"success","trial_type","trial_index","time_elapsed","internal_node_id","sub_n","timeout","failed_images","failed_audio","failed_video","screen_id","rt","response","stimulus","view_history","trial","r1","r2","r3","w1","h1","w2","h2","w3","h3","display","tdd","tdo","tw","th","cw","ch","dw","dh","ta","ca","da","probe","csls","csss","clls","clss","sa","la","probe_rects","r1yloc","r2yloc","r3yloc"
"true","fullscreen","0","6602","0.0-0.0","527","","","","","","","","","","","","","","","","","","","","","","","","","","","","","","","","","","","","","","","","","",""
"true","preload","1","6620","0.0-1.0","527","false","[]","[]","[]","img preload","","","","","","","","","","","","","","","","","","","","","","","","","","","","","","","","","","","","",""
"","survey-html-form","2","9442","0.0-2.0","527","","","","","enter-sub-number","2815","{""response"":""527""}","","","","","","","","","","","","","","","","","","","","","","","","","","","","","","","","","","",""
"","image-button-response","3","65418","0.0-3.0","527","","","","","","55912","0","consent.png","","","","","","","","","","","","","","","","","","","","","","","","","","","","","","","","","",""
"","html-button-response","4","70057","0.0-4.0","527","","","","","intro mssg","4634","0","<div style= ""font-size:25px;"" <p> <strong> Welcome! </strong><br> <p style=""color:#8B0000; font-size:25px;""><strong> Please do NOT exit full screen until you are done with the experiment. </strong> </p><p style=""font-size:25px;color:#8B0000;""> <strong> Your data will be lost <br> if you try to go back or refresh the page after the experiment starts. Feel free to click ""previous"" during the instructions, however.</strong> </p><br><p> <strong> Thanks in advance for your contribution to our research! </strong></p>","","","","","","","","","","","","","","","","","","","","","","","","","","","","","","","","","",""
"","instructions","5","107482","0.0-5.0","527","","","","","instructions","37418","","","[{""page_index"":0,""viewing_time"":5105},{""page_index"":1,""viewing_time"":4991},{""page_index"":2,""viewing_time"":1537},{""page_index"":3,""viewing_time"":17521},{""page_index"":4,""viewing_time"":3040},{""page_index"":5,""viewing_time"":2351},{""page_index"":6,""viewing_time"":2000},{""page_index"":7,""viewing_time"":873}]","","","","","","","","","","","","","","","","","","","","","","","","","","","","","","","","",""
"","canvas-keyboard-response","6","107689","0.0-6.0-0.0","527","","","","","pre trial waiting period","null","null","","","critical","c","d","t","240","164","162.6685","237.1485","164","240","spektor","0.02","h","164","240","240","164","162.6685","237.1485","39360","39360","38576.5967","dc","null","null","null","null","null","null","[2,1]","525.6468966425338","131.7990431759039","495.4995784739005"
"","canvas-keyboard-response","7","107715","0.0-6.0-1.0","527","","","","","clear_screen","null","null","","","critical","c","d","t","240","164","162.6685","237.1485","164","240","spektor","0.02","h","164","240","240","164","162.6685","237.1485","39360","39360","38576.5967","dc","null","null","null","null","null","null","[2,1]","525.6468966425338","131.7990431759039","495.4995784739005"
"","canvas-keyboard-response","8","108224","0.0-6.0-2.0","527","","","","","rectangles no change","null","null","","","critical","c","d","t","240","164","162.6685","237.1485","164","240","spektor","0.02","h","164","240","240","164","162.6685","237.1485","39360","39360","38576.5967","dc","null","null","null","null","null","null","[2,1]","525.6468966425338","131.7990431759039","495.4995784739005"
"","canvas-keyboard-response","9","109563","0.0-6.0-3.0","527","","","","","rectangles with change","null","null","","","critical","c","d","t","240","164","162.6685","237.1485","164","240","spektor","0.02","h","164","240","240","164","162.6685","237.1485","39360","39360","38576.5967","dc","null","null","null","null","null","null","[2,1]","525.6468966425338","131.7990431759039","495.4995784739005"
"","canvas-keyboard-response","10","109585","0.0-6.0-4.0","527","","","","","clear_screen","null","null","","","critical","c","d","t","240","164","162.6685","237.1485","164","240","spektor","0.02","h","164","240","240","164","162.6685","237.1485","39360","39360","38576.5967","dc","null","null","null","null","null","null","[2,1]","525.6468966425338","131.7990431759039","495.4995784739005"
"","canvas-keyboard-response","11","110284","0.0-6.0-5.0","527","","","","","make choice","695","1","","","critical","c","d","t","240","164","162.6685","237.1485","164","240","spektor","0.02","h","164","240","240","164","162.6685","237.1485","39360","39360","38576.5967","dc","null","null","null","null","null","null","[2,1]","","",""
"","canvas-keyboard-response","12","110301","0.0-6.0-6.0","527","","","","","clear_screen","null","null","","","critical","c","d","t","240","164","162.6685","237.1485","164","240","spektor","0.02","h","164","240","240","164","162.6685","237.1485","39360","39360","38576.5967","dc","null","null","null","null","null","null","[2,1]","","",""
"","canvas-keyboard-response","13","110503","0.0-6.0-0.1","527","","","","","pre trial waiting period","null","null","","","catch","sw","sh","l","180","200","210","175","197","231","spektor","null","null","null","null","null","null","null","null","null","null","null","","180","200","260","200","36000","52000","[1,3]","481.0974176922157","156.08484246591172","466.2295164890035"
"","canvas-keyboard-response","14","110524","0.0-6.0-1.1","527","","","","","clear_screen","null","null","","","catch","sw","sh","l","180","200","210","175","197","231","spektor","null","null","null","null","null","null","null","null","null","null","null","","180","200","260","200","36000","52000","[1,3]","481.0974176922157","156.08484246591172","466.2295164890035"
"","canvas-keyboard-response","15","111032","0.0-6.0-2.1","527","","","","","rectangles no change","null","null","","","catch","sw","sh","l","180","200","210","175","197","231","spektor","null","null","null","null","null","null","null","null","null","null","null","","180","200","260","200","36000","52000","[1,3]","481.0974176922157","156.08484246591172","466.2295164890035"
"","canvas-keyboard-response","16","112374","0.0-6.0-3.1","527","","","","","rectangles with change","null","null","","","catch","sw","sh","l","180","200","210","175","197","231","spektor","null","null","null","null","null","null","null","null","null","null","null","","180","200","260","200","36000","52000","[1,3]","481.0974176922157","156.08484246591172","466.2295164890035"
"","canvas-keyboard-response","17","112395","0.0-6.0-4.1","527","","","","","clear_screen","null","null","","","catch","sw","sh","l","180","200","210","175","197","231","spektor","null","null","null","null","null","null","null","null","null","null","null","","180","200","260","200","36000","52000","[1,3]","481.0974176922157","156.08484246591172","466.2295164890035"
"","canvas-keyboard-response","18","113941","0.0-6.0-5.1","527","","","","","make choice","1536","3","","","catch","sw","sh","l","180","200","210","175","197","231","spektor","null","null","null","null","null","null","null","null","null","null","null","","180","200","260","200","36000","52000","[1,3]","","",""
"","canvas-keyboard-response","19","113960","0.0-6.0-6.1","527","","","","","clear_screen","null","null","","","catch","sw","sh","l","180","200","210","175","197","231","spektor","null","null","null","null","null","null","null","null","null","null","null","","180","200","260","200","36000","52000","[1,3]","","",""
"","canvas-keyboard-response","20","114162","0.0-6.0-0.2","527","","","","","pre trial waiting period","null","null","","","critical","d","t","c","227.1683","158.0083","240","164","164","240","trueblood","0.09","w","240","164","164","240","227.1683","158.0083","39360","39360","35894.4834","td","null","null","null","null","null","null","[2,1]","496.89093357771054","515.5761565912181","445.5597234199014"
"","canvas-keyboard-response","21","114187","0.0-6.0-1.2","527","","","","","clear_screen","null","null","","","critical","d","t","c","227.1683","158.0083","240","164","164","240","trueblood","0.09","w","240","164","164","240","227.1683","158.0083","39360","39360","35894.4834","td","null","null","null","null","null","null","[2,1]","496.89093357771054","515.5761565912181","445.5597234199014"
"","canvas-keyboard-response","22","114693","0.0-6.0-2.2","527","","","","","rectangles no change","null","null","","","critical","d","t","c","227.1683","158.0083","240","164","164","240","trueblood","0.09","w","240","164","164","240","227.1683","158.0083","39360","39360","35894.4834","td","null","null","null","null","null","null","[2,1]","496.89093357771054","515.5761565912181","445.5597234199014"
"","canvas-keyboard-response","23","116032","0.0-6.0-3.2","527","","","","","rectangles with change","null","null","","","critical","d","t","c","227.1683","158.0083","240","164","164","240","trueblood","0.09","w","240","164","164","240","227.1683","158.0083","39360","39360","35894.4834","td","null","null","null","null","null","null","[2,1]","496.89093357771054","515.5761565912181","445.5597234199014"
"","canvas-keyboard-response","24","116050","0.0-6.0-4.2","527","","","","","clear_screen","null","null","","","critical","d","t","c","227.1683","158.0083","240","164","164","240","trueblood","0.09","w","240","164","164","240","227.1683","158.0083","39360","39360","35894.4834","td","null","null","null","null","null","null","[2,1]","496.89093357771054","515.5761565912181","445.5597234199014"
"","canvas-keyboard-response","25","117283","0.0-6.0-5.2","527","","","","","make choice","1226","1","","","critical","d","t","c","227.1683","158.0083","240","164","164","240","trueblood","0.09","w","240","164","164","240","227.1683","158.0083","39360","39360","35894.4834","td","null","null","null","null","null","null","[2,1]","","",""
"","canvas-keyboard-response","26","117300","0.0-6.0-6.2","527","","","","","clear_screen","null","null","","","critical","d","t","c","227.1683","158.0083","240","164","164","240","trueblood","0.09","w","240","164","164","240","227.1683","158.0083","39360","39360","35894.4834","td","null","null","null","null","null","null","[2,1]","","",""
"","canvas-keyboard-response","27","117501","0.0-6.0-0.3","527","","","","","pre trial waiting period","null","null","","","critical","d","t","c","227.1683","158.0083","240","164","164","240","spektor","0.09","w","240","164","164","240","227.1683","158.0083","39360","39360","35894.4834","td","null","null","null","null","null","null","[2,1]","513.4115838007353","168.87138077323758","501.0051897545305"
"","canvas-keyboard-response","28","117517","0.0-6.0-1.3","527","","","","","clear_screen","null","null","","","critical","d","t","c","227.1683","158.0083","240","164","164","240","spektor","0.09","w","240","164","164","240","227.1683","158.0083","39360","39360","35894.4834","td","null","null","null","null","null","null","[2,1]","513.4115838007353","168.87138077323758","501.0051897545305"
"","canvas-keyboard-response","29","118024","0.0-6.0-2.3","527","","","","","rectangles no change","null","null","","","critical","d","t","c","227.1683","158.0083","240","164","164","240","spektor","0.09","w","240","164","164","240","227.1683","158.0083","39360","39360","35894.4834","td","null","null","null","null","null","null","[2,1]","513.4115838007353","168.87138077323758","501.0051897545305"
"","canvas-keyboard-response","30","119358","0.0-6.0-3.3","527","","","","","rectangles with change","null","null","","","critical","d","t","c","227.1683","158.0083","240","164","164","240","spektor","0.09","w","240","164","164","240","227.1683","158.0083","39360","39360","35894.4834","td","null","null","null","null","null","null","[2,1]","513.4115838007353","168.87138077323758","501.0051897545305"
"","canvas-keyboard-response","31","119379","0.0-6.0-4.3","527","","","","","clear_screen","null","null","","","critical","d","t","c","227.1683","158.0083","240","164","164","240","spektor","0.09","w","240","164","164","240","227.1683","158.0083","39360","39360","35894.4834","td","null","null","null","null","null","null","[2,1]","513.4115838007353","168.87138077323758","501.0051897545305"
"","canvas-keyboard-response","32","120125","0.0-6.0-5.3","527","","","","","make choice","740","2","","","critical","d","t","c","227.1683","158.0083","240","164","164","240","spektor","0.09","w","240","164","164","240","227.1683","158.0083","39360","39360","35894.4834","td","null","null","null","null","null","null","[2,1]","","",""
"","canvas-keyboard-response","33","120143","0.0-6.0-6.3","527","","","","","clear_screen","null","null","","","critical","d","t","c","227.1683","158.0083","240","164","164","240","spektor","0.09","w","240","164","164","240","227.1683","158.0083","39360","39360","35894.4834","td","null","null","null","null","null","null","[2,1]","","",""
"","canvas-keyboard-response","34","120345","0.0-6.0-0.4","527","","","","","pre trial waiting period","null","null","","","critical","d","c","t","232.8713","160.6713","164","240","240","164","spektor","0.05","w","240","164","164","240","232.8713","160.6713","39360","39360","37415.7294","tc","null","null","null","null","null","null","[3,2]","536.0636358943278","129.19164259630836","496.81586923092124"
"","canvas-keyboard-response","35","120367","0.0-6.0-1.4","527","","","","","clear_screen","null","null","","","critical","d","c","t","232.8713","160.6713","164","240","240","164","spektor","0.05","w","240","164","164","240","232.8713","160.6713","39360","39360","37415.7294","tc","null","null","null","null","null","null","[3,2]","536.0636358943278","129.19164259630836","496.81586923092124"
"","canvas-keyboard-response","36","120872","0.0-6.0-2.4","527","","","","","rectangles no change","null","null","","","critical","d","c","t","232.8713","160.6713","164","240","240","164","spektor","0.05","w","240","164","164","240","232.8713","160.6713","39360","39360","37415.7294","tc","null","null","null","null","null","null","[3,2]","536.0636358943278","129.19164259630836","496.81586923092124"
"","canvas-keyboard-response","37","122210","0.0-6.0-3.4","527","","","","","rectangles with change","null","null","","","critical","d","c","t","232.8713","160.6713","164","240","240","164","spektor","0.05","w","240","164","164","240","232.8713","160.6713","39360","39360","37415.7294","tc","null","null","null","null","null","null","[3,2]","536.0636358943278","129.19164259630836","496.81586923092124"
"","canvas-keyboard-response","38","122229","0.0-6.0-4.4","527","","","","","clear_screen","null","null","","","critical","d","c","t","232.8713","160.6713","164","240","240","164","spektor","0.05","w","240","164","164","240","232.8713","160.6713","39360","39360","37415.7294","tc","null","null","null","null","null","null","[3,2]","536.0636358943278","129.19164259630836","496.81586923092124"
"","canvas-keyboard-response","39","122821","0.0-6.0-5.4","527","","","","","make choice","584","3","","","critical","d","c","t","232.8713","160.6713","164","240","240","164","spektor","0.05","w","240","164","164","240","232.8713","160.6713","39360","39360","37415.7294","tc","null","null","null","null","null","null","[3,2]","","",""
"","canvas-keyboard-response","40","122839","0.0-6.0-6.4","527","","","","","clear_screen","null","null","","","critical","d","c","t","232.8713","160.6713","164","240","240","164","spektor","0.05","w","240","164","164","240","232.8713","160.6713","39360","39360","37415.7294","tc","null","null","null","null","null","null","[3,2]","","",""
"","canvas-keyboard-response","41","123040","0.0-6.0-0.5","527","","","","","pre trial waiting period","null","null","","","catch","l","sw","sh","224","279","174","178","235","156","trueblood","null","null","null","null","null","null","null","null","null","null","null","","180","200","260","200","36000","52000","[1,3]","406.8105692498268","494.1875553897249","507.8319862666252"
"","canvas-keyboard-response","42","123061","0.0-6.0-1.5","527","","","","","clear_screen","null","null","","","catch","l","sw","sh","224","279","174","178","235","156","trueblood","null","null","null","null","null","null","null","null","null","null","null","","180","200","260","200","36000","52000","[1,3]","406.8105692498268","494.1875553897249","507.8319862666252"
"","canvas-keyboard-response","43","123572","0.0-6.0-2.5","527","","","","","rectangles no change","null","null","","","catch","l","sw","sh","224","279","174","178","235","156","trueblood","null","null","null","null","null","null","null","null","null","null","null","","180","200","260","200","36000","52000","[1,3]","406.8105692498268","494.1875553897249","507.8319862666252"
"","canvas-keyboard-response","44","124903","0.0-6.0-3.5","527","","","","","rectangles with change","null","null","","","catch","l","sw","sh","224","279","174","178","235","156","trueblood","null","null","null","null","null","null","null","null","null","null","null","","180","200","260","200","36000","52000","[1,3]","406.8105692498268","494.1875553897249","507.8319862666252"
"","canvas-keyboard-response","45","124923","0.0-6.0-4.5","527","","","","","clear_screen","null","null","","","catch","l","sw","sh","224","279","174","178","235","156","trueblood","null","null","null","null","null","null","null","null","null","null","null","","180","200","260","200","36000","52000","[1,3]","406.8105692498268","494.1875553897249","507.8319862666252"
"","canvas-keyboard-response","46","125709","0.0-6.0-5.5","527","","","","","make choice","782","1","","","catch","l","sw","sh","224","279","174","178","235","156","trueblood","null","null","null","null","null","null","null","null","null","null","null","","180","200","260","200","36000","52000","[1,3]","","",""
"","canvas-keyboard-response","47","125726","0.0-6.0-6.5","527","","","","","clear_screen","null","null","","","catch","l","sw","sh","224","279","174","178","235","156","trueblood","null","null","null","null","null","null","null","null","null","null","null","","180","200","260","200","36000","52000","[1,3]","","",""
"","canvas-keyboard-response","48","125927","0.0-6.0-0.6","527","","","","","pre trial waiting period","null","null","","","critical","t","d","c","240","164","237.1485","162.6685","164","240","trueblood","0.02","w","240","164","164","240","237.1485","162.6685","39360","39360","38576.5967","td","null","null","null","null","null","null","[1,2]","517.0298041306107","479.2004904317959","431.21216363552605"
"","canvas-keyboard-response","49","125950","0.0-6.0-1.6","527","","","","","clear_screen","null","null","","","critical","t","d","c","240","164","237.1485","162.6685","164","240","trueblood","0.02","w","240","164","164","240","237.1485","162.6685","39360","39360","38576.5967","td","null","null","null","null","null","null","[1,2]","517.0298041306107","479.2004904317959","431.21216363552605"
"","canvas-keyboard-response","50","126457","0.0-6.0-2.6","527","","","","","rectangles no change","null","null","","","critical","t","d","c","240","164","237.1485","162.6685","164","240","trueblood","0.02","w","240","164","164","240","237.1485","162.6685","39360","39360","38576.5967","td","null","null","null","null","null","null","[1,2]","517.0298041306107","479.2004904317959","431.21216363552605"
"","canvas-keyboard-response","51","127795","0.0-6.0-3.6","527","","","","","rectangles with change","null","null","","","critical","t","d","c","240","164","237.1485","162.6685","164","240","trueblood","0.02","w","240","164","164","240","237.1485","162.6685","39360","39360","38576.5967","td","null","null","null","null","null","null","[1,2]","517.0298041306107","479.2004904317959","431.21216363552605"
"","canvas-keyboard-response","52","127814","0.0-6.0-4.6","527","","","","","clear_screen","null","null","","","critical","t","d","c","240","164","237.1485","162.6685","164","240","trueblood","0.02","w","240","164","164","240","237.1485","162.6685","39360","39360","38576.5967","td","null","null","null","null","null","null","[1,2]","517.0298041306107","479.2004904317959","431.21216363552605"
"","canvas-keyboard-response","53","128861","0.0-6.0-5.6","527","","","","","make choice","1039","1","","","critical","t","d","c","240","164","237.1485","162.6685","164","240","trueblood","0.02","w","240","164","164","240","237.1485","162.6685","39360","39360","38576.5967","td","null","null","null","null","null","null","[1,2]","","",""
"","canvas-keyboard-response","54","128878","0.0-6.0-6.6","527","","","","","clear_screen","null","null","","","critical","t","d","c","240","164","237.1485","162.6685","164","240","trueblood","0.02","w","240","164","164","240","237.1485","162.6685","39360","39360","38576.5967","td","null","null","null","null","null","null","[1,2]","","",""
"","canvas-keyboard-response","55","129079","0.0-6.0-0.7","527","","","","","pre trial waiting period","null","null","","","catch","sh","sw","l","201","143","209","205","171","294","trueblood","null","null","null","null","null","null","null","null","null","null","null","","180","200","260","200","36000","52000","[2,3]","519.4646586783745","477.6546258726693","399.18814087541466"
"","canvas-keyboard-response","56","129100","0.0-6.0-1.7","527","","","","","clear_screen","null","null","","","catch","sh","sw","l","201","143","209","205","171","294","trueblood","null","null","null","null","null","null","null","null","null","null","null","","180","200","260","200","36000","52000","[2,3]","519.4646586783745","477.6546258726693","399.18814087541466"
"","canvas-keyboard-response","57","129607","0.0-6.0-2.7","527","","","","","rectangles no change","null","null","","","catch","sh","sw","l","201","143","209","205","171","294","trueblood","null","null","null","null","null","null","null","null","null","null","null","","180","200","260","200","36000","52000","[2,3]","519.4646586783745","477.6546258726693","399.18814087541466"
"","canvas-keyboard-response","58","130941","0.0-6.0-3.7","527","","","","","rectangles with change","null","null","","","catch","sh","sw","l","201","143","209","205","171","294","trueblood","null","null","null","null","null","null","null","null","null","null","null","","180","200","260","200","36000","52000","[2,3]","519.4646586783745","477.6546258726693","399.18814087541466"
"","canvas-keyboard-response","59","130959","0.0-6.0-4.7","527","","","","","clear_screen","null","null","","","catch","sh","sw","l","201","143","209","205","171","294","trueblood","null","null","null","null","null","null","null","null","null","null","null","","180","200","260","200","36000","52000","[2,3]","519.4646586783745","477.6546258726693","399.18814087541466"
"","canvas-keyboard-response","60","133860","0.0-6.0-5.7","527","","","","","make choice","2897","2","","","catch","sh","sw","l","201","143","209","205","171","294","trueblood","null","null","null","null","null","null","null","null","null","null","null","","180","200","260","200","36000","52000","[2,3]","","",""
"","canvas-keyboard-response","61","133879","0.0-6.0-6.7","527","","","","","clear_screen","null","null","","","catch","sh","sw","l","201","143","209","205","171","294","trueblood","null","null","null","null","null","null","null","null","null","null","null","","180","200","260","200","36000","52000","[2,3]","","",""
"","canvas-keyboard-response","62","134080","0.0-6.0-0.8","527","","","","","pre trial waiting period","null","null","","","critical","d","t","c","232.8713","160.6713","240","164","164","240","trueblood","0.05","w","240","164","164","240","232.8713","160.6713","39360","39360","37415.7294","dc","null","null","null","null","null","null","[1,3]","493.483585768782","500.5789066007976","467.1021867528401"
"","canvas-keyboard-response","63","134100","0.0-6.0-1.8","527","","","","","clear_screen","null","null","","","critical","d","t","c","232.8713","160.6713","240","164","164","240","trueblood","0.05","w","240","164","164","240","232.8713","160.6713","39360","39360","37415.7294","dc","null","null","null","null","null","null","[1,3]","493.483585768782","500.5789066007976","467.1021867528401"
"","canvas-keyboard-response","64","134608","0.0-6.0-2.8","527","","","","","rectangles no change","null","null","","","critical","d","t","c","232.8713","160.6713","240","164","164","240","trueblood","0.05","w","240","164","164","240","232.8713","160.6713","39360","39360","37415.7294","dc","null","null","null","null","null","null","[1,3]","493.483585768782","500.5789066007976","467.1021867528401"
"","canvas-keyboard-response","65","135940","0.0-6.0-3.8","527","","","","","rectangles with change","null","null","","","critical","d","t","c","232.8713","160.6713","240","164","164","240","trueblood","0.05","w","240","164","164","240","232.8713","160.6713","39360","39360","37415.7294","dc","null","null","null","null","null","null","[1,3]","493.483585768782","500.5789066007976","467.1021867528401"
"","canvas-keyboard-response","66","135962","0.0-6.0-4.8","527","","","","","clear_screen","null","null","","","critical","d","t","c","232.8713","160.6713","240","164","164","240","trueblood","0.05","w","240","164","164","240","232.8713","160.6713","39360","39360","37415.7294","dc","null","null","null","null","null","null","[1,3]","493.483585768782","500.5789066007976","467.1021867528401"
"","canvas-keyboard-response","67","137037","0.0-6.0-5.8","527","","","","","make choice","1066","1","","","critical","d","t","c","232.8713","160.6713","240","164","164","240","trueblood","0.05","w","240","164","164","240","232.8713","160.6713","39360","39360","37415.7294","dc","null","null","null","null","null","null","[1,3]","","",""
"","canvas-keyboard-response","68","137058","0.0-6.0-6.8","527","","","","","clear_screen","null","null","","","critical","d","t","c","232.8713","160.6713","240","164","164","240","trueblood","0.05","w","240","164","164","240","232.8713","160.6713","39360","39360","37415.7294","dc","null","null","null","null","null","null","[1,3]","","",""
"","canvas-keyboard-response","69","137259","0.0-6.0-0.9","527","","","","","pre trial waiting period","null","null","","","critical","d","t","c","237.1485","162.6685","240","164","164","240","spektor","0.02","w","240","164","164","240","237.1485","162.6685","39360","39360","38576.5967","td","null","null","null","null","null","null","[2,1]","508.96577119488586","177.18166709617378","482.10304436890135"
"","canvas-keyboard-response","70","137280","0.0-6.0-1.9","527","","","","","clear_screen","null","null","","","critical","d","t","c","237.1485","162.6685","240","164","164","240","spektor","0.02","w","240","164","164","240","237.1485","162.6685","39360","39360","38576.5967","td","null","null","null","null","null","null","[2,1]","508.96577119488586","177.18166709617378","482.10304436890135"
"","canvas-keyboard-response","71","137785","0.0-6.0-2.9","527","","","","","rectangles no change","null","null","","","critical","d","t","c","237.1485","162.6685","240","164","164","240","spektor","0.02","w","240","164","164","240","237.1485","162.6685","39360","39360","38576.5967","td","null","null","null","null","null","null","[2,1]","508.96577119488586","177.18166709617378","482.10304436890135"
"","canvas-keyboard-response","72","139117","0.0-6.0-3.9","527","","","","","rectangles with change","null","null","","","critical","d","t","c","237.1485","162.6685","240","164","164","240","spektor","0.02","w","240","164","164","240","237.1485","162.6685","39360","39360","38576.5967","td","null","null","null","null","null","null","[2,1]","508.96577119488586","177.18166709617378","482.10304436890135"
"","canvas-keyboard-response","73","139138","0.0-6.0-4.9","527","","","","","clear_screen","null","null","","","critical","d","t","c","237.1485","162.6685","240","164","164","240","spektor","0.02","w","240","164","164","240","237.1485","162.6685","39360","39360","38576.5967","td","null","null","null","null","null","null","[2,1]","508.96577119488586","177.18166709617378","482.10304436890135"
"","canvas-keyboard-response","74","140413","0.0-6.0-5.9","527","","","","","make choice","1269","2","","","critical","d","t","c","237.1485","162.6685","240","164","164","240","spektor","0.02","w","240","164","164","240","237.1485","162.6685","39360","39360","38576.5967","td","null","null","null","null","null","null","[2,1]","","",""
"","canvas-keyboard-response","75","140430","0.0-6.0-6.9","527","","","","","clear_screen","null","null","","","critical","d","t","c","237.1485","162.6685","240","164","164","240","spektor","0.02","w","240","164","164","240","237.1485","162.6685","39360","39360","38576.5967","td","null","null","null","null","null","null","[2,1]","","",""
"","canvas-keyboard-response","76","140632","0.0-6.0-0.10","527","","","","","pre trial waiting period","null","null","","","catch","sw","sh","l","180","200","222","217","188","267","spektor","null","null","null","null","null","null","null","null","null","null","null","","180","200","260","200","36000","52000","[2,3]","495.3189050357282","123.01879446198971","489.42379531837184"
"","canvas-keyboard-response","77","140650","0.0-6.0-1.10","527","","","","","clear_screen","null","null","","","catch","sw","sh","l","180","200","222","217","188","267","spektor","null","null","null","null","null","null","null","null","null","null","null","","180","200","260","200","36000","52000","[2,3]","495.3189050357282","123.01879446198971","489.42379531837184"
"","canvas-keyboard-response","78","141159","0.0-6.0-2.10","527","","","","","rectangles no change","null","null","","","catch","sw","sh","l","180","200","222","217","188","267","spektor","null","null","null","null","null","null","null","null","null","null","null","","180","200","260","200","36000","52000","[2,3]","495.3189050357282","123.01879446198971","489.42379531837184"
"","canvas-keyboard-response","79","142495","0.0-6.0-3.10","527","","","","","rectangles with change","null","null","","","catch","sw","sh","l","180","200","222","217","188","267","spektor","null","null","null","null","null","null","null","null","null","null","null","","180","200","260","200","36000","52000","[2,3]","495.3189050357282","123.01879446198971","489.42379531837184"
"","canvas-keyboard-response","80","142518","0.0-6.0-4.10","527","","","","","clear_screen","null","null","","","catch","sw","sh","l","180","200","222","217","188","267","spektor","null","null","null","null","null","null","null","null","null","null","null","","180","200","260","200","36000","52000","[2,3]","495.3189050357282","123.01879446198971","489.42379531837184"
"","canvas-keyboard-response","81","143005","0.0-6.0-5.10","527","","","","","make choice","480","3","","","catch","sw","sh","l","180","200","222","217","188","267","spektor","null","null","null","null","null","null","null","null","null","null","null","","180","200","260","200","36000","52000","[2,3]","","",""
"","canvas-keyboard-response","82","143023","0.0-6.0-6.10","527","","","","","clear_screen","null","null","","","catch","sw","sh","l","180","200","222","217","188","267","spektor","null","null","null","null","null","null","null","null","null","null","null","","180","200","260","200","36000","52000","[2,3]","","",""
"","canvas-keyboard-response","83","143225","0.0-6.0-0.11","527","","","","","pre trial waiting period","null","null","","","critical","d","t","c","154.6796","220.0396","164","240","240","164","spektor","0.14","h","164","240","240","164","154.6796","220.0396","39360","39360","34035.6388","dc","null","null","null","null","null","null","[1,3]","482.34114376464424","143.47472656267718","513.033759723239"
"","canvas-keyboard-response","84","143246","0.0-6.0-1.11","527","","","","","clear_screen","null","null","","","critical","d","t","c","154.6796","220.0396","164","240","240","164","spektor","0.14","h","164","240","240","164","154.6796","220.0396","39360","39360","34035.6388","dc","null","null","null","null","null","null","[1,3]","482.34114376464424","143.47472656267718","513.033759723239"
"","canvas-keyboard-response","85","143753","0.0-6.0-2.11","527","","","","","rectangles no change","null","null","","","critical","d","t","c","154.6796","220.0396","164","240","240","164","spektor","0.14","h","164","240","240","164","154.6796","220.0396","39360","39360","34035.6388","dc","null","null","null","null","null","null","[1,3]","482.34114376464424","143.47472656267718","513.033759723239"
"","canvas-keyboard-response","86","145088","0.0-6.0-3.11","527","","","","","rectangles with change","null","null","","","critical","d","t","c","154.6796","220.0396","164","240","240","164","spektor","0.14","h","164","240","240","164","154.6796","220.0396","39360","39360","34035.6388","dc","null","null","null","null","null","null","[1,3]","482.34114376464424","143.47472656267718","513.033759723239"
"","canvas-keyboard-response","87","145110","0.0-6.0-4.11","527","","","","","clear_screen","null","null","","","critical","d","t","c","154.6796","220.0396","164","240","240","164","spektor","0.14","h","164","240","240","164","154.6796","220.0396","39360","39360","34035.6388","dc","null","null","null","null","null","null","[1,3]","482.34114376464424","143.47472656267718","513.033759723239"
"","canvas-keyboard-response","88","145725","0.0-6.0-5.11","527","","","","","make choice","612","3","","","critical","d","t","c","154.6796","220.0396","164","240","240","164","spektor","0.14","h","164","240","240","164","154.6796","220.0396","39360","39360","34035.6388","dc","null","null","null","null","null","null","[1,3]","","",""
"","canvas-keyboard-response","89","145746","0.0-6.0-6.11","527","","","","","clear_screen","null","null","","","critical","d","t","c","154.6796","220.0396","164","240","240","164","spektor","0.14","h","164","240","240","164","154.6796","220.0396","39360","39360","34035.6388","dc","null","null","null","null","null","null","[1,3]","","",""
"","canvas-keyboard-response","90","145947","0.0-6.0-0.12","527","","","","","pre trial waiting period","null","null","","","critical","t","c","d","164","240","240","164","154.6796","220.0396","trueblood","0.14","h","164","240","240","164","154.6796","220.0396","39360","39360","34035.6388","tc","null","null","null","null","null","null","[1,2]","438.06821192582026","513.411869461091","445.7973192595981"
"","canvas-keyboard-response","91","145969","0.0-6.0-1.12","527","","","","","clear_screen","null","null","","","critical","t","c","d","164","240","240","164","154.6796","220.0396","trueblood","0.14","h","164","240","240","164","154.6796","220.0396","39360","39360","34035.6388","tc","null","null","null","null","null","null","[1,2]","438.06821192582026","513.411869461091","445.7973192595981"
"","canvas-keyboard-response","92","146481","0.0-6.0-2.12","527","","","","","rectangles no change","null","null","","","critical","t","c","d","164","240","240","164","154.6796","220.0396","trueblood","0.14","h","164","240","240","164","154.6796","220.0396","39360","39360","34035.6388","tc","null","null","null","null","null","null","[1,2]","438.06821192582026","513.411869461091","445.7973192595981"
"","canvas-keyboard-response","93","147816","0.0-6.0-3.12","527","","","","","rectangles with change","null","null","","","critical","t","c","d","164","240","240","164","154.6796","220.0396","trueblood","0.14","h","164","240","240","164","154.6796","220.0396","39360","39360","34035.6388","tc","null","null","null","null","null","null","[1,2]","438.06821192582026","513.411869461091","445.7973192595981"
"","canvas-keyboard-response","94","147838","0.0-6.0-4.12","527","","","","","clear_screen","null","null","","","critical","t","c","d","164","240","240","164","154.6796","220.0396","trueblood","0.14","h","164","240","240","164","154.6796","220.0396","39360","39360","34035.6388","tc","null","null","null","null","null","null","[1,2]","438.06821192582026","513.411869461091","445.7973192595981"
"","canvas-keyboard-response","95","148221","0.0-6.0-5.12","527","","","","","make choice","376","2","","","critical","t","c","d","164","240","240","164","154.6796","220.0396","trueblood","0.14","h","164","240","240","164","154.6796","220.0396","39360","39360","34035.6388","tc","null","null","null","null","null","null","[1,2]","","",""
"","canvas-keyboard-response","96","148240","0.0-6.0-6.12","527","","","","","clear_screen","null","null","","","critical","t","c","d","164","240","240","164","154.6796","220.0396","trueblood","0.14","h","164","240","240","164","154.6796","220.0396","39360","39360","34035.6388","tc","null","null","null","null","null","null","[1,2]","","",""
"","canvas-keyboard-response","97","148442","0.0-6.0-0.13","527","","","","","pre trial waiting period","null","null","","","critical","c","d","t","164","240","220.0396","154.6796","240","164","spektor","0.14","w","240","164","164","240","220.0396","154.6796","39360","39360","34035.6388","dc","null","null","null","null","null","null","[2,1]","489.2342702496572","211.38596679733635","532.2441186705553"
"","canvas-keyboard-response","98","148461","0.0-6.0-1.13","527","","","","","clear_screen","null","null","","","critical","c","d","t","164","240","220.0396","154.6796","240","164","spektor","0.14","w","240","164","164","240","220.0396","154.6796","39360","39360","34035.6388","dc","null","null","null","null","null","null","[2,1]","489.2342702496572","211.38596679733635","532.2441186705553"
"","canvas-keyboard-response","99","148968","0.0-6.0-2.13","527","","","","","rectangles no change","null","null","","","critical","c","d","t","164","240","220.0396","154.6796","240","164","spektor","0.14","w","240","164","164","240","220.0396","154.6796","39360","39360","34035.6388","dc","null","null","null","null","null","null","[2,1]","489.2342702496572","211.38596679733635","532.2441186705553"
"","canvas-keyboard-response","100","150307","0.0-6.0-3.13","527","","","","","rectangles with change","null","null","","","critical","c","d","t","164","240","220.0396","154.6796","240","164","spektor","0.14","w","240","164","164","240","220.0396","154.6796","39360","39360","34035.6388","dc","null","null","null","null","null","null","[2,1]","489.2342702496572","211.38596679733635","532.2441186705553"
"","canvas-keyboard-response","101","150324","0.0-6.0-4.13","527","","","","","clear_screen","null","null","","","critical","c","d","t","164","240","220.0396","154.6796","240","164","spektor","0.14","w","240","164","164","240","220.0396","154.6796","39360","39360","34035.6388","dc","null","null","null","null","null","null","[2,1]","489.2342702496572","211.38596679733635","532.2441186705553"
"","canvas-keyboard-response","102","150717","0.0-6.0-5.13","527","","","","","make choice","387","1","","","critical","c","d","t","164","240","220.0396","154.6796","240","164","spektor","0.14","w","240","164","164","240","220.0396","154.6796","39360","39360","34035.6388","dc","null","null","null","null","null","null","[2,1]","","",""
"","canvas-keyboard-response","103","150734","0.0-6.0-6.13","527","","","","","clear_screen","null","null","","","critical","c","d","t","164","240","220.0396","154.6796","240","164","spektor","0.14","w","240","164","164","240","220.0396","154.6796","39360","39360","34035.6388","dc","null","null","null","null","null","null","[2,1]","","",""
"","canvas-keyboard-response","104","150935","0.0-6.0-0.14","527","","","","","pre trial waiting period","null","null","","","critical","t","c","d","240","164","164","240","232.8713","160.6713","spektor","0.05","w","240","164","164","240","232.8713","160.6713","39360","39360","37415.7294","dc","null","null","null","null","null","null","[3,2]","530.3538276922659","121.2141619094719","511.2065082355756"
"","canvas-keyboard-response","105","150958","0.0-6.0-1.14","527","","","","","clear_screen","null","null","","","critical","t","c","d","240","164","164","240","232.8713","160.6713","spektor","0.05","w","240","164","164","240","232.8713","160.6713","39360","39360","37415.7294","dc","null","null","null","null","null","null","[3,2]","530.3538276922659","121.2141619094719","511.2065082355756"
"","canvas-keyboard-response","106","151465","0.0-6.0-2.14","527","","","","","rectangles no change","null","null","","","critical","t","c","d","240","164","164","240","232.8713","160.6713","spektor","0.05","w","240","164","164","240","232.8713","160.6713","39360","39360","37415.7294","dc","null","null","null","null","null","null","[3,2]","530.3538276922659","121.2141619094719","511.2065082355756"
"","canvas-keyboard-response","107","152802","0.0-6.0-3.14","527","","","","","rectangles with change","null","null","","","critical","t","c","d","240","164","164","240","232.8713","160.6713","spektor","0.05","w","240","164","164","240","232.8713","160.6713","39360","39360","37415.7294","dc","null","null","null","null","null","null","[3,2]","530.3538276922659","121.2141619094719","511.2065082355756"
"","canvas-keyboard-response","108","152824","0.0-6.0-4.14","527","","","","","clear_screen","null","null","","","critical","t","c","d","240","164","164","240","232.8713","160.6713","spektor","0.05","w","240","164","164","240","232.8713","160.6713","39360","39360","37415.7294","dc","null","null","null","null","null","null","[3,2]","530.3538276922659","121.2141619094719","511.2065082355756"
"","canvas-keyboard-response","109","153252","0.0-6.0-5.14","527","","","","","make choice","424","3","","","critical","t","c","d","240","164","164","240","232.8713","160.6713","spektor","0.05","w","240","164","164","240","232.8713","160.6713","39360","39360","37415.7294","dc","null","null","null","null","null","null","[3,2]","","",""
"","canvas-keyboard-response","110","153275","0.0-6.0-6.14","527","","","","","clear_screen","null","null","","","critical","t","c","d","240","164","164","240","232.8713","160.6713","spektor","0.05","w","240","164","164","240","232.8713","160.6713","39360","39360","37415.7294","dc","null","null","null","null","null","null","[3,2]","","",""
"","canvas-keyboard-response","111","153475","0.0-6.0-0.15","527","","","","","pre trial waiting period","null","null","","","critical","t","d","c","240","164","240","164","164","240","trueblood","0","w","240","164","164","240","240","164","39360","39360","39360","td","null","null","null","null","null","null","[1,2]","494.81241994941615","471.6640489890334","448.52559444099705"
"","canvas-keyboard-response","112","153496","0.0-6.0-1.15","527","","","","","clear_screen","null","null","","","critical","t","d","c","240","164","240","164","164","240","trueblood","0","w","240","164","164","240","240","164","39360","39360","39360","td","null","null","null","null","null","null","[1,2]","494.81241994941615","471.6640489890334","448.52559444099705"
"","canvas-keyboard-response","113","154001","0.0-6.0-2.15","527","","","","","rectangles no change","null","null","","","critical","t","d","c","240","164","240","164","164","240","trueblood","0","w","240","164","164","240","240","164","39360","39360","39360","td","null","null","null","null","null","null","[1,2]","494.81241994941615","471.6640489890334","448.52559444099705"
"","canvas-keyboard-response","114","155334","0.0-6.0-3.15","527","","","","","rectangles with change","null","null","","","critical","t","d","c","240","164","240","164","164","240","trueblood","0","w","240","164","164","240","240","164","39360","39360","39360","td","null","null","null","null","null","null","[1,2]","494.81241994941615","471.6640489890334","448.52559444099705"
"","canvas-keyboard-response","115","155357","0.0-6.0-4.15","527","","","","","clear_screen","null","null","","","critical","t","d","c","240","164","240","164","164","240","trueblood","0","w","240","164","164","240","240","164","39360","39360","39360","td","null","null","null","null","null","null","[1,2]","494.81241994941615","471.6640489890334","448.52559444099705"
"","canvas-keyboard-response","116","155645","0.0-6.0-5.15","527","","","","","make choice","278","1","","","critical","t","d","c","240","164","240","164","164","240","trueblood","0","w","240","164","164","240","240","164","39360","39360","39360","td","null","null","null","null","null","null","[1,2]","","",""
"","canvas-keyboard-response","117","155664","0.0-6.0-6.15","527","","","","","clear_screen","null","null","","","critical","t","d","c","240","164","240","164","164","240","trueblood","0","w","240","164","164","240","240","164","39360","39360","39360","td","null","null","null","null","null","null","[1,2]","","",""
"","canvas-keyboard-response","118","155865","0.0-6.0-0.16","527","","","","","pre trial waiting period","null","null","","","critical","c","t","d","164","240","240","164","227.1683","158.0083","trueblood","0.09","w","240","164","164","240","227.1683","158.0083","39360","39360","35894.4834","tc","null","null","null","null","null","null","[2,1]","433.70830818761044","512.4207521637576","503.4711308952315"
"","canvas-keyboard-response","119","155887","0.0-6.0-1.16","527","","","","","clear_screen","null","null","","","critical","c","t","d","164","240","240","164","227.1683","158.0083","trueblood","0.09","w","240","164","164","240","227.1683","158.0083","39360","39360","35894.4834","tc","null","null","null","null","null","null","[2,1]","433.70830818761044","512.4207521637576","503.4711308952315"
"","canvas-keyboard-response","120","156394","0.0-6.0-2.16","527","","","","","rectangles no change","null","null","","","critical","c","t","d","164","240","240","164","227.1683","158.0083","trueblood","0.09","w","240","164","164","240","227.1683","158.0083","39360","39360","35894.4834","tc","null","null","null","null","null","null","[2,1]","433.70830818761044","512.4207521637576","503.4711308952315"
"","canvas-keyboard-response","121","157730","0.0-6.0-3.16","527","","","","","rectangles with change","null","null","","","critical","c","t","d","164","240","240","164","227.1683","158.0083","trueblood","0.09","w","240","164","164","240","227.1683","158.0083","39360","39360","35894.4834","tc","null","null","null","null","null","null","[2,1]","433.70830818761044","512.4207521637576","503.4711308952315"
"","canvas-keyboard-response","122","157748","0.0-6.0-4.16","527","","","","","clear_screen","null","null","","","critical","c","t","d","164","240","240","164","227.1683","158.0083","trueblood","0.09","w","240","164","164","240","227.1683","158.0083","39360","39360","35894.4834","tc","null","null","null","null","null","null","[2,1]","433.70830818761044","512.4207521637576","503.4711308952315"
"","canvas-keyboard-response","123","158476","0.0-6.0-5.16","527","","","","","make choice","725","2","","","critical","c","t","d","164","240","240","164","227.1683","158.0083","trueblood","0.09","w","240","164","164","240","227.1683","158.0083","39360","39360","35894.4834","tc","null","null","null","null","null","null","[2,1]","","",""
"","canvas-keyboard-response","124","158495","0.0-6.0-6.16","527","","","","","clear_screen","null","null","","","critical","c","t","d","164","240","240","164","227.1683","158.0083","trueblood","0.09","w","240","164","164","240","227.1683","158.0083","39360","39360","35894.4834","tc","null","null","null","null","null","null","[2,1]","","",""
"","canvas-keyboard-response","125","158697","0.0-6.0-0.17","527","","","","","pre trial waiting period","null","null","","","critical","c","d","t","240","164","164","240","164","240","trueblood","0","h","164","240","240","164","164","240","39360","39360","39360","dc","null","null","null","null","null","null","[2,1]","484.59120877943917","453.59257364957483","442.5249956094432"
"","canvas-keyboard-response","126","158713","0.0-6.0-1.17","527","","","","","clear_screen","null","null","","","critical","c","d","t","240","164","164","240","164","240","trueblood","0","h","164","240","240","164","164","240","39360","39360","39360","dc","null","null","null","null","null","null","[2,1]","484.59120877943917","453.59257364957483","442.5249956094432"
"","canvas-keyboard-response","127","159221","0.0-6.0-2.17","527","","","","","rectangles no change","null","null","","","critical","c","d","t","240","164","164","240","164","240","trueblood","0","h","164","240","240","164","164","240","39360","39360","39360","dc","null","null","null","null","null","null","[2,1]","484.59120877943917","453.59257364957483","442.5249956094432"
"","canvas-keyboard-response","128","160556","0.0-6.0-3.17","527","","","","","rectangles with change","null","null","","","critical","c","d","t","240","164","164","240","164","240","trueblood","0","h","164","240","240","164","164","240","39360","39360","39360","dc","null","null","null","null","null","null","[2,1]","484.59120877943917","453.59257364957483","442.5249956094432"
"","canvas-keyboard-response","129","160576","0.0-6.0-4.17","527","","","","","clear_screen","null","null","","","critical","c","d","t","240","164","164","240","164","240","trueblood","0","h","164","240","240","164","164","240","39360","39360","39360","dc","null","null","null","null","null","null","[2,1]","484.59120877943917","453.59257364957483","442.5249956094432"
"","canvas-keyboard-response","130","161116","0.0-6.0-5.17","527","","","","","make choice","534","1","","","critical","c","d","t","240","164","164","240","164","240","trueblood","0","h","164","240","240","164","164","240","39360","39360","39360","dc","null","null","null","null","null","null","[2,1]","","",""
"","canvas-keyboard-response","131","161136","0.0-6.0-6.17","527","","","","","clear_screen","null","null","","","critical","c","d","t","240","164","164","240","164","240","trueblood","0","h","164","240","240","164","164","240","39360","39360","39360","dc","null","null","null","null","null","null","[2,1]","","",""
"","canvas-keyboard-response","132","161337","0.0-6.0-0.18","527","","","","","pre trial waiting period","null","null","","","critical","t","c","d","164","240","240","164","160.6713","232.8713","spektor","0.05","h","164","240","240","164","160.6713","232.8713","39360","39360","37415.7294","tc","null","null","null","null","null","null","[1,2]","475.88863026608067","152.76616068227233","484.00126623348604"
"","canvas-keyboard-response","133","161356","0.0-6.0-1.18","527","","","","","clear_screen","null","null","","","critical","t","c","d","164","240","240","164","160.6713","232.8713","spektor","0.05","h","164","240","240","164","160.6713","232.8713","39360","39360","37415.7294","tc","null","null","null","null","null","null","[1,2]","475.88863026608067","152.76616068227233","484.00126623348604"
"","canvas-keyboard-response","134","161862","0.0-6.0-2.18","527","","","","","rectangles no change","null","null","","","critical","t","c","d","164","240","240","164","160.6713","232.8713","spektor","0.05","h","164","240","240","164","160.6713","232.8713","39360","39360","37415.7294","tc","null","null","null","null","null","null","[1,2]","475.88863026608067","152.76616068227233","484.00126623348604"
"","canvas-keyboard-response","135","163197","0.0-6.0-3.18","527","","","","","rectangles with change","null","null","","","critical","t","c","d","164","240","240","164","160.6713","232.8713","spektor","0.05","h","164","240","240","164","160.6713","232.8713","39360","39360","37415.7294","tc","null","null","null","null","null","null","[1,2]","475.88863026608067","152.76616068227233","484.00126623348604"
"","canvas-keyboard-response","136","163215","0.0-6.0-4.18","527","","","","","clear_screen","null","null","","","critical","t","c","d","164","240","240","164","160.6713","232.8713","spektor","0.05","h","164","240","240","164","160.6713","232.8713","39360","39360","37415.7294","tc","null","null","null","null","null","null","[1,2]","475.88863026608067","152.76616068227233","484.00126623348604"
"","canvas-keyboard-response","137","163501","0.0-6.0-5.18","527","","","","","make choice","282","2","","","critical","t","c","d","164","240","240","164","160.6713","232.8713","spektor","0.05","h","164","240","240","164","160.6713","232.8713","39360","39360","37415.7294","tc","null","null","null","null","null","null","[1,2]","","",""
"","canvas-keyboard-response","138","163520","0.0-6.0-6.18","527","","","","","clear_screen","null","null","","","critical","t","c","d","164","240","240","164","160.6713","232.8713","spektor","0.05","h","164","240","240","164","160.6713","232.8713","39360","39360","37415.7294","tc","null","null","null","null","null","null","[1,2]","","",""
"","canvas-keyboard-response","139","163720","0.0-6.0-0.19","527","","","","","pre trial waiting period","null","null","","","catch","l","sh","sw","212","294","166","143","188","160","trueblood","null","null","null","null","null","null","null","null","null","null","null","","180","200","260","200","36000","52000","[1,3]","417.7613832406403","530.2993300116487","501.160179086775"
"","canvas-keyboard-response","140","163736","0.0-6.0-1.19","527","","","","","clear_screen","null","null","","","catch","l","sh","sw","212","294","166","143","188","160","trueblood","null","null","null","null","null","null","null","null","null","null","null","","180","200","260","200","36000","52000","[1,3]","417.7613832406403","530.2993300116487","501.160179086775"
"","canvas-keyboard-response","141","164246","0.0-6.0-2.19","527","","","","","rectangles no change","null","null","","","catch","l","sh","sw","212","294","166","143","188","160","trueblood","null","null","null","null","null","null","null","null","null","null","null","","180","200","260","200","36000","52000","[1,3]","417.7613832406403","530.2993300116487","501.160179086775"
"","canvas-keyboard-response","142","165580","0.0-6.0-3.19","527","","","","","rectangles with change","null","null","","","catch","l","sh","sw","212","294","166","143","188","160","trueblood","null","null","null","null","null","null","null","null","null","null","null","","180","200","260","200","36000","52000","[1,3]","417.7613832406403","530.2993300116487","501.160179086775"
"","canvas-keyboard-response","143","165601","0.0-6.0-4.19","527","","","","","clear_screen","null","null","","","catch","l","sh","sw","212","294","166","143","188","160","trueblood","null","null","null","null","null","null","null","null","null","null","null","","180","200","260","200","36000","52000","[1,3]","417.7613832406403","530.2993300116487","501.160179086775"
"","canvas-keyboard-response","144","165909","0.0-6.0-5.19","527","","","","","make choice","304","1","","","catch","l","sh","sw","212","294","166","143","188","160","trueblood","null","null","null","null","null","null","null","null","null","null","null","","180","200","260","200","36000","52000","[1,3]","","",""
"","canvas-keyboard-response","145","165926","0.0-6.0-6.19","527","","","","","clear_screen","null","null","","","catch","l","sh","sw","212","294","166","143","188","160","trueblood","null","null","null","null","null","null","null","null","null","null","null","","180","200","260","200","36000","52000","[1,3]","","",""
"","canvas-keyboard-response","146","166128","0.0-6.0-0.20","527","","","","","pre trial waiting period","null","null","","","critical","d","t","c","160.6713","232.8713","164","240","240","164","trueblood","0.05","h","164","240","240","164","160.6713","232.8713","39360","39360","37415.7294","td","null","null","null","null","null","null","[2,1]","441.3039848044119","441.40417730067685","504.52775980678166"
"","canvas-keyboard-response","147","166148","0.0-6.0-1.20","527","","","","","clear_screen","null","null","","","critical","d","t","c","160.6713","232.8713","164","240","240","164","trueblood","0.05","h","164","240","240","164","160.6713","232.8713","39360","39360","37415.7294","td","null","null","null","null","null","null","[2,1]","441.3039848044119","441.40417730067685","504.52775980678166"
"","canvas-keyboard-response","148","166654","0.0-6.0-2.20","527","","","","","rectangles no change","null","null","","","critical","d","t","c","160.6713","232.8713","164","240","240","164","trueblood","0.05","h","164","240","240","164","160.6713","232.8713","39360","39360","37415.7294","td","null","null","null","null","null","null","[2,1]","441.3039848044119","441.40417730067685","504.52775980678166"
"","canvas-keyboard-response","149","167991","0.0-6.0-3.20","527","","","","","rectangles with change","null","null","","","critical","d","t","c","160.6713","232.8713","164","240","240","164","trueblood","0.05","h","164","240","240","164","160.6713","232.8713","39360","39360","37415.7294","td","null","null","null","null","null","null","[2,1]","441.3039848044119","441.40417730067685","504.52775980678166"
"","canvas-keyboard-response","150","168011","0.0-6.0-4.20","527","","","","","clear_screen","null","null","","","critical","d","t","c","160.6713","232.8713","164","240","240","164","trueblood","0.05","h","164","240","240","164","160.6713","232.8713","39360","39360","37415.7294","td","null","null","null","null","null","null","[2,1]","441.3039848044119","441.40417730067685","504.52775980678166"
"","canvas-keyboard-response","151","168779","0.0-6.0-5.20","527","","","","","make choice","764","2","","","critical","d","t","c","160.6713","232.8713","164","240","240","164","trueblood","0.05","h","164","240","240","164","160.6713","232.8713","39360","39360","37415.7294","td","null","null","null","null","null","null","[2,1]","","",""
"","canvas-keyboard-response","152","168798","0.0-6.0-6.20","527","","","","","clear_screen","null","null","","","critical","d","t","c","160.6713","232.8713","164","240","240","164","trueblood","0.05","h","164","240","240","164","160.6713","232.8713","39360","39360","37415.7294","td","null","null","null","null","null","null","[2,1]","","",""
"","canvas-keyboard-response","153","168998","0.0-6.0-0.21","527","","","","","pre trial waiting period","null","null","","","critical","t","d","c","164","240","158.0083","227.1683","240","164","spektor","0.09","h","164","240","240","164","158.0083","227.1683","39360","39360","35894.4834","dc","null","null","null","null","null","null","[2,3]","463.3447205800934","125.37286521895541","496.62686400856757"
"","canvas-keyboard-response","154","169021","0.0-6.0-1.21","527","","","","","clear_screen","null","null","","","critical","t","d","c","164","240","158.0083","227.1683","240","164","spektor","0.09","h","164","240","240","164","158.0083","227.1683","39360","39360","35894.4834","dc","null","null","null","null","null","null","[2,3]","463.3447205800934","125.37286521895541","496.62686400856757"
"","canvas-keyboard-response","155","169526","0.0-6.0-2.21","527","","","","","rectangles no change","null","null","","","critical","t","d","c","164","240","158.0083","227.1683","240","164","spektor","0.09","h","164","240","240","164","158.0083","227.1683","39360","39360","35894.4834","dc","null","null","null","null","null","null","[2,3]","463.3447205800934","125.37286521895541","496.62686400856757"
"","canvas-keyboard-response","156","170863","0.0-6.0-3.21","527","","","","","rectangles with change","null","null","","","critical","t","d","c","164","240","158.0083","227.1683","240","164","spektor","0.09","h","164","240","240","164","158.0083","227.1683","39360","39360","35894.4834","dc","null","null","null","null","null","null","[2,3]","463.3447205800934","125.37286521895541","496.62686400856757"
"","canvas-keyboard-response","157","170880","0.0-6.0-4.21","527","","","","","clear_screen","null","null","","","critical","t","d","c","164","240","158.0083","227.1683","240","164","spektor","0.09","h","164","240","240","164","158.0083","227.1683","39360","39360","35894.4834","dc","null","null","null","null","null","null","[2,3]","463.3447205800934","125.37286521895541","496.62686400856757"
"","canvas-keyboard-response","158","171380","0.0-6.0-5.21","527","","","","","make choice","496","3","","","critical","t","d","c","164","240","158.0083","227.1683","240","164","spektor","0.09","h","164","240","240","164","158.0083","227.1683","39360","39360","35894.4834","dc","null","null","null","null","null","null","[2,3]","","",""
"","canvas-keyboard-response","159","171401","0.0-6.0-6.21","527","","","","","clear_screen","null","null","","","critical","t","d","c","164","240","158.0083","227.1683","240","164","spektor","0.09","h","164","240","240","164","158.0083","227.1683","39360","39360","35894.4834","dc","null","null","null","null","null","null","[2,3]","","",""
"","canvas-keyboard-response","160","171602","0.0-6.0-0.22","527","","","","","pre trial waiting period","null","null","","","critical","t","d","c","164","240","154.6796","220.0396","240","164","trueblood","0.14","h","164","240","240","164","154.6796","220.0396","39360","39360","34035.6388","dc","null","null","null","null","null","null","[2,3]","454.27803304048507","446.8944631660927","479.14233546119203"
"","canvas-keyboard-response","161","171623","0.0-6.0-1.22","527","","","","","clear_screen","null","null","","","critical","t","d","c","164","240","154.6796","220.0396","240","164","trueblood","0.14","h","164","240","240","164","154.6796","220.0396","39360","39360","34035.6388","dc","null","null","null","null","null","null","[2,3]","454.27803304048507","446.8944631660927","479.14233546119203"
"","canvas-keyboard-response","162","172128","0.0-6.0-2.22","527","","","","","rectangles no change","null","null","","","critical","t","d","c","164","240","154.6796","220.0396","240","164","trueblood","0.14","h","164","240","240","164","154.6796","220.0396","39360","39360","34035.6388","dc","null","null","null","null","null","null","[2,3]","454.27803304048507","446.8944631660927","479.14233546119203"
"","canvas-keyboard-response","163","173467","0.0-6.0-3.22","527","","","","","rectangles with change","null","null","","","critical","t","d","c","164","240","154.6796","220.0396","240","164","trueblood","0.14","h","164","240","240","164","154.6796","220.0396","39360","39360","34035.6388","dc","null","null","null","null","null","null","[2,3]","454.27803304048507","446.8944631660927","479.14233546119203"
"","canvas-keyboard-response","164","173489","0.0-6.0-4.22","527","","","","","clear_screen","null","null","","","critical","t","d","c","164","240","154.6796","220.0396","240","164","trueblood","0.14","h","164","240","240","164","154.6796","220.0396","39360","39360","34035.6388","dc","null","null","null","null","null","null","[2,3]","454.27803304048507","446.8944631660927","479.14233546119203"
"","canvas-keyboard-response","165","173941","0.0-6.0-5.22","527","","","","","make choice","448","3","","","critical","t","d","c","164","240","154.6796","220.0396","240","164","trueblood","0.14","h","164","240","240","164","154.6796","220.0396","39360","39360","34035.6388","dc","null","null","null","null","null","null","[2,3]","","",""
"","canvas-keyboard-response","166","173961","0.0-6.0-6.22","527","","","","","clear_screen","null","null","","","critical","t","d","c","164","240","154.6796","220.0396","240","164","trueblood","0.14","h","164","240","240","164","154.6796","220.0396","39360","39360","34035.6388","dc","null","null","null","null","null","null","[2,3]","","",""
"","canvas-keyboard-response","167","174163","0.0-6.0-0.23","527","","","","","pre trial waiting period","null","null","","","catch","l","sh","sw","276","213","239","180","204","180","spektor","null","null","null","null","null","null","null","null","null","null","null","","180","200","260","200","36000","52000","[1,2]","472.9230972635636","181.32832382778258","511.0218192528518"
"","canvas-keyboard-response","168","174182","0.0-6.0-1.23","527","","","","","clear_screen","null","null","","","catch","l","sh","sw","276","213","239","180","204","180","spektor","null","null","null","null","null","null","null","null","null","null","null","","180","200","260","200","36000","52000","[1,2]","472.9230972635636","181.32832382778258","511.0218192528518"
"","canvas-keyboard-response","169","174690","0.0-6.0-2.23","527","","","","","rectangles no change","null","null","","","catch","l","sh","sw","276","213","239","180","204","180","spektor","null","null","null","null","null","null","null","null","null","null","null","","180","200","260","200","36000","52000","[1,2]","472.9230972635636","181.32832382778258","511.0218192528518"
"","canvas-keyboard-response","170","176028","0.0-6.0-3.23","527","","","","","rectangles with change","null","null","","","catch","l","sh","sw","276","213","239","180","204","180","spektor","null","null","null","null","null","null","null","null","null","null","null","","180","200","260","200","36000","52000","[1,2]","472.9230972635636","181.32832382778258","511.0218192528518"
"","canvas-keyboard-response","171","176050","0.0-6.0-4.23","527","","","","","clear_screen","null","null","","","catch","l","sh","sw","276","213","239","180","204","180","spektor","null","null","null","null","null","null","null","null","null","null","null","","180","200","260","200","36000","52000","[1,2]","472.9230972635636","181.32832382778258","511.0218192528518"
"","canvas-keyboard-response","172","176414","0.0-6.0-5.23","527","","","","","make choice","359","1","","","catch","l","sh","sw","276","213","239","180","204","180","spektor","null","null","null","null","null","null","null","null","null","null","null","","180","200","260","200","36000","52000","[1,2]","","",""
"","canvas-keyboard-response","173","176432","0.0-6.0-6.23","527","","","","","clear_screen","null","null","","","catch","l","sh","sw","276","213","239","180","204","180","spektor","null","null","null","null","null","null","null","null","null","null","null","","180","200","260","200","36000","52000","[1,2]","","",""
"","canvas-keyboard-response","174","176633","0.0-6.0-0.24","527","","","","","pre trial waiting period","null","null","","","critical","t","c","d","240","164","164","240","237.1485","162.6685","spektor","0.02","w","240","164","164","240","237.1485","162.6685","39360","39360","38576.5967","dc","null","null","null","null","null","null","[3,2]","531.2494657897571","155.27329386438106","500.3613823609016"
"","canvas-keyboard-response","175","176656","0.0-6.0-1.24","527","","","","","clear_screen","null","null","","","critical","t","c","d","240","164","164","240","237.1485","162.6685","spektor","0.02","w","240","164","164","240","237.1485","162.6685","39360","39360","38576.5967","dc","null","null","null","null","null","null","[3,2]","531.2494657897571","155.27329386438106","500.3613823609016"
"","canvas-keyboard-response","176","177160","0.0-6.0-2.24","527","","","","","rectangles no change","null","null","","","critical","t","c","d","240","164","164","240","237.1485","162.6685","spektor","0.02","w","240","164","164","240","237.1485","162.6685","39360","39360","38576.5967","dc","null","null","null","null","null","null","[3,2]","531.2494657897571","155.27329386438106","500.3613823609016"
"","canvas-keyboard-response","177","178499","0.0-6.0-3.24","527","","","","","rectangles with change","null","null","","","critical","t","c","d","240","164","164","240","237.1485","162.6685","spektor","0.02","w","240","164","164","240","237.1485","162.6685","39360","39360","38576.5967","dc","null","null","null","null","null","null","[3,2]","531.2494657897571","155.27329386438106","500.3613823609016"
"","canvas-keyboard-response","178","178521","0.0-6.0-4.24","527","","","","","clear_screen","null","null","","","critical","t","c","d","240","164","164","240","237.1485","162.6685","spektor","0.02","w","240","164","164","240","237.1485","162.6685","39360","39360","38576.5967","dc","null","null","null","null","null","null","[3,2]","531.2494657897571","155.27329386438106","500.3613823609016"
"","canvas-keyboard-response","179","178877","0.0-6.0-5.24","527","","","","","make choice","352","3","","","critical","t","c","d","240","164","164","240","237.1485","162.6685","spektor","0.02","w","240","164","164","240","237.1485","162.6685","39360","39360","38576.5967","dc","null","null","null","null","null","null","[3,2]","","",""
"","canvas-keyboard-response","180","178898","0.0-6.0-6.24","527","","","","","clear_screen","null","null","","","critical","t","c","d","240","164","164","240","237.1485","162.6685","spektor","0.02","w","240","164","164","240","237.1485","162.6685","39360","39360","38576.5967","dc","null","null","null","null","null","null","[3,2]","","",""
"","canvas-keyboard-response","181","179099","0.0-6.0-0.25","527","","","","","pre trial waiting period","null","null","","","critical","t","c","d","164","240","240","164","158.0083","227.1683","trueblood","0.09","h","164","240","240","164","158.0083","227.1683","39360","39360","35894.4834","tc","null","null","null","null","null","null","[1,2]","450.63546091458255","487.00785605237115","464.96228275235273"
"","canvas-keyboard-response","182","179122","0.0-6.0-1.25","527","","","","","clear_screen","null","null","","","critical","t","c","d","164","240","240","164","158.0083","227.1683","trueblood","0.09","h","164","240","240","164","158.0083","227.1683","39360","39360","35894.4834","tc","null","null","null","null","null","null","[1,2]","450.63546091458255","487.00785605237115","464.96228275235273"
"","canvas-keyboard-response","183","179628","0.0-6.0-2.25","527","","","","","rectangles no change","null","null","","","critical","t","c","d","164","240","240","164","158.0083","227.1683","trueblood","0.09","h","164","240","240","164","158.0083","227.1683","39360","39360","35894.4834","tc","null","null","null","null","null","null","[1,2]","450.63546091458255","487.00785605237115","464.96228275235273"
"","canvas-keyboard-response","184","180964","0.0-6.0-3.25","527","","","","","rectangles with change","null","null","","","critical","t","c","d","164","240","240","164","158.0083","227.1683","trueblood","0.09","h","164","240","240","164","158.0083","227.1683","39360","39360","35894.4834","tc","null","null","null","null","null","null","[1,2]","450.63546091458255","487.00785605237115","464.96228275235273"
"","canvas-keyboard-response","185","180982","0.0-6.0-4.25","527","","","","","clear_screen","null","null","","","critical","t","c","d","164","240","240","164","158.0083","227.1683","trueblood","0.09","h","164","240","240","164","158.0083","227.1683","39360","39360","35894.4834","tc","null","null","null","null","null","null","[1,2]","450.63546091458255","487.00785605237115","464.96228275235273"
"","canvas-keyboard-response","186","181260","0.0-6.0-5.25","527","","","","","make choice","272","2","","","critical","t","c","d","164","240","240","164","158.0083","227.1683","trueblood","0.09","h","164","240","240","164","158.0083","227.1683","39360","39360","35894.4834","tc","null","null","null","null","null","null","[1,2]","","",""
"","canvas-keyboard-response","187","181278","0.0-6.0-6.25","527","","","","","clear_screen","null","null","","","critical","t","c","d","164","240","240","164","158.0083","227.1683","trueblood","0.09","h","164","240","240","164","158.0083","227.1683","39360","39360","35894.4834","tc","null","null","null","null","null","null","[1,2]","","",""
"","canvas-keyboard-response","188","181480","0.0-6.0-0.26","527","","","","","pre trial waiting period","null","null","","","catch","sw","l","sh","180","200","217","268","223","215","trueblood","null","null","null","null","null","null","null","null","null","null","null","","180","200","260","200","36000","52000","[2,3]","450.54862037952125","425.01040784453687","436.381565674396"
"","canvas-keyboard-response","189","181500","0.0-6.0-1.26","527","","","","","clear_screen","null","null","","","catch","sw","l","sh","180","200","217","268","223","215","trueblood","null","null","null","null","null","null","null","null","null","null","null","","180","200","260","200","36000","52000","[2,3]","450.54862037952125","425.01040784453687","436.381565674396"
"","canvas-keyboard-response","190","182012","0.0-6.0-2.26","527","","","","","rectangles no change","null","null","","","catch","sw","l","sh","180","200","217","268","223","215","trueblood","null","null","null","null","null","null","null","null","null","null","null","","180","200","260","200","36000","52000","[2,3]","450.54862037952125","425.01040784453687","436.381565674396"
"","canvas-keyboard-response","191","183346","0.0-6.0-3.26","527","","","","","rectangles with change","null","null","","","catch","sw","l","sh","180","200","217","268","223","215","trueblood","null","null","null","null","null","null","null","null","null","null","null","","180","200","260","200","36000","52000","[2,3]","450.54862037952125","425.01040784453687","436.381565674396"
"","canvas-keyboard-response","192","183364","0.0-6.0-4.26","527","","","","","clear_screen","null","null","","","catch","sw","l","sh","180","200","217","268","223","215","trueblood","null","null","null","null","null","null","null","null","null","null","null","","180","200","260","200","36000","52000","[2,3]","450.54862037952125","425.01040784453687","436.381565674396"
"","canvas-keyboard-response","193","183629","0.0-6.0-5.26","527","","","","","make choice","258","2","","","catch","sw","l","sh","180","200","217","268","223","215","trueblood","null","null","null","null","null","null","null","null","null","null","null","","180","200","260","200","36000","52000","[2,3]","","",""
"","canvas-keyboard-response","194","183649","0.0-6.0-6.26","527","","","","","clear_screen","null","null","","","catch","sw","l","sh","180","200","217","268","223","215","trueblood","null","null","null","null","null","null","null","null","null","null","null","","180","200","260","200","36000","52000","[2,3]","","",""
"","canvas-keyboard-response","195","183850","0.0-6.0-0.27","527","","","","","pre trial waiting period","null","null","","","critical","t","d","c","240","164","220.0396","154.6796","164","240","spektor","0.14","w","240","164","164","240","220.0396","154.6796","39360","39360","34035.6388","td","null","null","null","null","null","null","[1,2]","531.6977820286527","191.39817190661935","493.05020425292037"
"","canvas-keyboard-response","196","183871","0.0-6.0-1.27","527","","","","","clear_screen","null","null","","","critical","t","d","c","240","164","220.0396","154.6796","164","240","spektor","0.14","w","240","164","164","240","220.0396","154.6796","39360","39360","34035.6388","td","null","null","null","null","null","null","[1,2]","531.6977820286527","191.39817190661935","493.05020425292037"
"","canvas-keyboard-response","197","184379","0.0-6.0-2.27","527","","","","","rectangles no change","null","null","","","critical","t","d","c","240","164","220.0396","154.6796","164","240","spektor","0.14","w","240","164","164","240","220.0396","154.6796","39360","39360","34035.6388","td","null","null","null","null","null","null","[1,2]","531.6977820286527","191.39817190661935","493.05020425292037"
"","canvas-keyboard-response","198","185715","0.0-6.0-3.27","527","","","","","rectangles with change","null","null","","","critical","t","d","c","240","164","220.0396","154.6796","164","240","spektor","0.14","w","240","164","164","240","220.0396","154.6796","39360","39360","34035.6388","td","null","null","null","null","null","null","[1,2]","531.6977820286527","191.39817190661935","493.05020425292037"
"","canvas-keyboard-response","199","185738","0.0-6.0-4.27","527","","","","","clear_screen","null","null","","","critical","t","d","c","240","164","220.0396","154.6796","164","240","spektor","0.14","w","240","164","164","240","220.0396","154.6796","39360","39360","34035.6388","td","null","null","null","null","null","null","[1,2]","531.6977820286527","191.39817190661935","493.05020425292037"
"","canvas-keyboard-response","200","186069","0.0-6.0-5.27","527","","","","","make choice","325","1","","","critical","t","d","c","240","164","220.0396","154.6796","164","240","spektor","0.14","w","240","164","164","240","220.0396","154.6796","39360","39360","34035.6388","td","null","null","null","null","null","null","[1,2]","","",""
"","canvas-keyboard-response","201","186086","0.0-6.0-6.27","527","","","","","clear_screen","null","null","","","critical","t","d","c","240","164","220.0396","154.6796","164","240","spektor","0.14","w","240","164","164","240","220.0396","154.6796","39360","39360","34035.6388","td","null","null","null","null","null","null","[1,2]","","",""
"","canvas-keyboard-response","202","186288","0.0-6.0-0.28","527","","","","","pre trial waiting period","null","null","","","critical","d","c","t","158.0083","227.1683","240","164","164","240","trueblood","0.09","h","164","240","240","164","158.0083","227.1683","39360","39360","35894.4834","dc","null","null","null","null","null","null","[1,2]","472.3922519992431","493.538390226298","458.27056142457286"
"","canvas-keyboard-response","203","186307","0.0-6.0-1.28","527","","","","","clear_screen","null","null","","","critical","d","c","t","158.0083","227.1683","240","164","164","240","trueblood","0.09","h","164","240","240","164","158.0083","227.1683","39360","39360","35894.4834","dc","null","null","null","null","null","null","[1,2]","472.3922519992431","493.538390226298","458.27056142457286"
"","canvas-keyboard-response","204","186811","0.0-6.0-2.28","527","","","","","rectangles no change","null","null","","","critical","d","c","t","158.0083","227.1683","240","164","164","240","trueblood","0.09","h","164","240","240","164","158.0083","227.1683","39360","39360","35894.4834","dc","null","null","null","null","null","null","[1,2]","472.3922519992431","493.538390226298","458.27056142457286"
"","canvas-keyboard-response","205","188144","0.0-6.0-3.28","527","","","","","rectangles with change","null","null","","","critical","d","c","t","158.0083","227.1683","240","164","164","240","trueblood","0.09","h","164","240","240","164","158.0083","227.1683","39360","39360","35894.4834","dc","null","null","null","null","null","null","[1,2]","472.3922519992431","493.538390226298","458.27056142457286"
"","canvas-keyboard-response","206","188163","0.0-6.0-4.28","527","","","","","clear_screen","null","null","","","critical","d","c","t","158.0083","227.1683","240","164","164","240","trueblood","0.09","h","164","240","240","164","158.0083","227.1683","39360","39360","35894.4834","dc","null","null","null","null","null","null","[1,2]","472.3922519992431","493.538390226298","458.27056142457286"
"","canvas-keyboard-response","207","188445","0.0-6.0-5.28","527","","","","","make choice","276","2","","","critical","d","c","t","158.0083","227.1683","240","164","164","240","trueblood","0.09","h","164","240","240","164","158.0083","227.1683","39360","39360","35894.4834","dc","null","null","null","null","null","null","[1,2]","","",""
"","canvas-keyboard-response","208","188462","0.0-6.0-6.28","527","","","","","clear_screen","null","null","","","critical","d","c","t","158.0083","227.1683","240","164","164","240","trueblood","0.09","h","164","240","240","164","158.0083","227.1683","39360","39360","35894.4834","dc","null","null","null","null","null","null","[1,2]","","",""
"","canvas-keyboard-response","209","188662","0.0-6.0-0.29","527","","","","","pre trial waiting period","null","null","","","catch","sh","sw","l","219","213","206","191","271","204","spektor","null","null","null","null","null","null","null","null","null","null","null","","180","200","260","200","36000","52000","[1,3]","478.37894673553257","177.34143689374753","480.10132156408565"
"","canvas-keyboard-response","210","188681","0.0-6.0-1.29","527","","","","","clear_screen","null","null","","","catch","sh","sw","l","219","213","206","191","271","204","spektor","null","null","null","null","null","null","null","null","null","null","null","","180","200","260","200","36000","52000","[1,3]","478.37894673553257","177.34143689374753","480.10132156408565"
"","canvas-keyboard-response","211","189192","0.0-6.0-2.29","527","","","","","rectangles no change","null","null","","","catch","sh","sw","l","219","213","206","191","271","204","spektor","null","null","null","null","null","null","null","null","null","null","null","","180","200","260","200","36000","52000","[1,3]","478.37894673553257","177.34143689374753","480.10132156408565"
"","canvas-keyboard-response","212","190527","0.0-6.0-3.29","527","","","","","rectangles with change","null","null","","","catch","sh","sw","l","219","213","206","191","271","204","spektor","null","null","null","null","null","null","null","null","null","null","null","","180","200","260","200","36000","52000","[1,3]","478.37894673553257","177.34143689374753","480.10132156408565"
"","canvas-keyboard-response","213","190547","0.0-6.0-4.29","527","","","","","clear_screen","null","null","","","catch","sh","sw","l","219","213","206","191","271","204","spektor","null","null","null","null","null","null","null","null","null","null","null","","180","200","260","200","36000","52000","[1,3]","478.37894673553257","177.34143689374753","480.10132156408565"
"","canvas-keyboard-response","214","190997","0.0-6.0-5.29","527","","","","","make choice","440","3","","","catch","sh","sw","l","219","213","206","191","271","204","spektor","null","null","null","null","null","null","null","null","null","null","null","","180","200","260","200","36000","52000","[1,3]","","",""
"","canvas-keyboard-response","215","191014","0.0-6.0-6.29","527","","","","","clear_screen","null","null","","","catch","sh","sw","l","219","213","206","191","271","204","spektor","null","null","null","null","null","null","null","null","null","null","null","","180","200","260","200","36000","52000","[1,3]","","",""
"","canvas-keyboard-response","216","191214","0.0-6.0-0.30","527","","","","","pre trial waiting period","null","null","","","catch","sh","l","sw","179","182","166","241","174","195","spektor","null","null","null","null","null","null","null","null","null","null","null","","180","200","260","200","36000","52000","[1,2]","520.192396775425","101.36646491531646","501.18901879980774"
"","canvas-keyboard-response","217","191233","0.0-6.0-1.30","527","","","","","clear_screen","null","null","","","catch","sh","l","sw","179","182","166","241","174","195","spektor","null","null","null","null","null","null","null","null","null","null","null","","180","200","260","200","36000","52000","[1,2]","520.192396775425","101.36646491531646","501.18901879980774"
"","canvas-keyboard-response","218","191740","0.0-6.0-2.30","527","","","","","rectangles no change","null","null","","","catch","sh","l","sw","179","182","166","241","174","195","spektor","null","null","null","null","null","null","null","null","null","null","null","","180","200","260","200","36000","52000","[1,2]","520.192396775425","101.36646491531646","501.18901879980774"
"","canvas-keyboard-response","219","193078","0.0-6.0-3.30","527","","","","","rectangles with change","null","null","","","catch","sh","l","sw","179","182","166","241","174","195","spektor","null","null","null","null","null","null","null","null","null","null","null","","180","200","260","200","36000","52000","[1,2]","520.192396775425","101.36646491531646","501.18901879980774"
"","canvas-keyboard-response","220","193096","0.0-6.0-4.30","527","","","","","clear_screen","null","null","","","catch","sh","l","sw","179","182","166","241","174","195","spektor","null","null","null","null","null","null","null","null","null","null","null","","180","200","260","200","36000","52000","[1,2]","520.192396775425","101.36646491531646","501.18901879980774"
"","canvas-keyboard-response","221","193397","0.0-6.0-5.30","527","","","","","make choice","295","2","","","catch","sh","l","sw","179","182","166","241","174","195","spektor","null","null","null","null","null","null","null","null","null","null","null","","180","200","260","200","36000","52000","[1,2]","","",""
"","canvas-keyboard-response","222","193414","0.0-6.0-6.30","527","","","","","clear_screen","null","null","","","catch","sh","l","sw","179","182","166","241","174","195","spektor","null","null","null","null","null","null","null","null","null","null","null","","180","200","260","200","36000","52000","[1,2]","","",""
"","canvas-keyboard-response","223","193615","0.0-6.0-0.31","527","","","","","pre trial waiting period","null","null","","","catch","l","sh","sw","212","222","195","153","149","216","spektor","null","null","null","null","null","null","null","null","null","null","null","","180","200","260","200","36000","52000","[1,3]","469.8437511728557","176.55047875188748","478.3945956148325"
"","canvas-keyboard-response","224","193638","0.0-6.0-1.31","527","","","","","clear_screen","null","null","","","catch","l","sh","sw","212","222","195","153","149","216","spektor","null","null","null","null","null","null","null","null","null","null","null","","180","200","260","200","36000","52000","[1,3]","469.8437511728557","176.55047875188748","478.3945956148325"
"","canvas-keyboard-response","225","194145","0.0-6.0-2.31","527","","","","","rectangles no change","null","null","","","catch","l","sh","sw","212","222","195","153","149","216","spektor","null","null","null","null","null","null","null","null","null","null","null","","180","200","260","200","36000","52000","[1,3]","469.8437511728557","176.55047875188748","478.3945956148325"
"","canvas-keyboard-response","226","195483","0.0-6.0-3.31","527","","","","","rectangles with change","null","null","","","catch","l","sh","sw","212","222","195","153","149","216","spektor","null","null","null","null","null","null","null","null","null","null","null","","180","200","260","200","36000","52000","[1,3]","469.8437511728557","176.55047875188748","478.3945956148325"
"","canvas-keyboard-response","227","195505","0.0-6.0-4.31","527","","","","","clear_screen","null","null","","","catch","l","sh","sw","212","222","195","153","149","216","spektor","null","null","null","null","null","null","null","null","null","null","null","","180","200","260","200","36000","52000","[1,3]","469.8437511728557","176.55047875188748","478.3945956148325"
"","canvas-keyboard-response","228","195765","0.0-6.0-5.31","527","","","","","make choice","255","1","","","catch","l","sh","sw","212","222","195","153","149","216","spektor","null","null","null","null","null","null","null","null","null","null","null","","180","200","260","200","36000","52000","[1,3]","","",""
"","canvas-keyboard-response","229","195785","0.0-6.0-6.31","527","","","","","clear_screen","null","null","","","catch","l","sh","sw","212","222","195","153","149","216","spektor","null","null","null","null","null","null","null","null","null","null","null","","180","200","260","200","36000","52000","[1,3]","","",""
"","canvas-keyboard-response","230","195986","0.0-6.0-0.32","527","","","","","pre trial waiting period","null","null","","","critical","d","c","t","240","164","164","240","240","164","spektor","0","w","240","164","164","240","240","164","39360","39360","39360","tc","null","null","null","null","null","null","[3,2]","505.9911570450572","157.35993049949434","508.1331585036408"
"","canvas-keyboard-response","231","196006","0.0-6.0-1.32","527","","","","","clear_screen","null","null","","","critical","d","c","t","240","164","164","240","240","164","spektor","0","w","240","164","164","240","240","164","39360","39360","39360","tc","null","null","null","null","null","null","[3,2]","505.9911570450572","157.35993049949434","508.1331585036408"
"","canvas-keyboard-response","232","196512","0.0-6.0-2.32","527","","","","","rectangles no change","null","null","","","critical","d","c","t","240","164","164","240","240","164","spektor","0","w","240","164","164","240","240","164","39360","39360","39360","tc","null","null","null","null","null","null","[3,2]","505.9911570450572","157.35993049949434","508.1331585036408"
"","canvas-keyboard-response","233","197850","0.0-6.0-3.32","527","","","","","rectangles with change","null","null","","","critical","d","c","t","240","164","164","240","240","164","spektor","0","w","240","164","164","240","240","164","39360","39360","39360","tc","null","null","null","null","null","null","[3,2]","505.9911570450572","157.35993049949434","508.1331585036408"
"","canvas-keyboard-response","234","197868","0.0-6.0-4.32","527","","","","","clear_screen","null","null","","","critical","d","c","t","240","164","164","240","240","164","spektor","0","w","240","164","164","240","240","164","39360","39360","39360","tc","null","null","null","null","null","null","[3,2]","505.9911570450572","157.35993049949434","508.1331585036408"
"","canvas-keyboard-response","235","198125","0.0-6.0-5.32","527","","","","","make choice","250","3","","","critical","d","c","t","240","164","164","240","240","164","spektor","0","w","240","164","164","240","240","164","39360","39360","39360","tc","null","null","null","null","null","null","[3,2]","","",""
"","canvas-keyboard-response","236","198143","0.0-6.0-6.32","527","","","","","clear_screen","null","null","","","critical","d","c","t","240","164","164","240","240","164","spektor","0","w","240","164","164","240","240","164","39360","39360","39360","tc","null","null","null","null","null","null","[3,2]","","",""
"","canvas-keyboard-response","237","198344","0.0-6.0-0.33","527","","","","","pre trial waiting period","null","null","","","catch","sw","l","sh","180","200","275","219","216","179","trueblood","null","null","null","null","null","null","null","null","null","null","null","","180","200","260","200","36000","52000","[2,3]","486.85283654826117","461.8562152132446","483.1311353343181"
"","canvas-keyboard-response","238","198366","0.0-6.0-1.33","527","","","","","clear_screen","null","null","","","catch","sw","l","sh","180","200","275","219","216","179","trueblood","null","null","null","null","null","null","null","null","null","null","null","","180","200","260","200","36000","52000","[2,3]","486.85283654826117","461.8562152132446","483.1311353343181"
"","canvas-keyboard-response","239","198878","0.0-6.0-2.33","527","","","","","rectangles no change","null","null","","","catch","sw","l","sh","180","200","275","219","216","179","trueblood","null","null","null","null","null","null","null","null","null","null","null","","180","200","260","200","36000","52000","[2,3]","486.85283654826117","461.8562152132446","483.1311353343181"
"","canvas-keyboard-response","240","200210","0.0-6.0-3.33","527","","","","","rectangles with change","null","null","","","catch","sw","l","sh","180","200","275","219","216","179","trueblood","null","null","null","null","null","null","null","null","null","null","null","","180","200","260","200","36000","52000","[2,3]","486.85283654826117","461.8562152132446","483.1311353343181"
"","canvas-keyboard-response","241","200228","0.0-6.0-4.33","527","","","","","clear_screen","null","null","","","catch","sw","l","sh","180","200","275","219","216","179","trueblood","null","null","null","null","null","null","null","null","null","null","null","","180","200","260","200","36000","52000","[2,3]","486.85283654826117","461.8562152132446","483.1311353343181"
"","canvas-keyboard-response","242","200485","0.0-6.0-5.33","527","","","","","make choice","252","2","","","catch","sw","l","sh","180","200","275","219","216","179","trueblood","null","null","null","null","null","null","null","null","null","null","null","","180","200","260","200","36000","52000","[2,3]","","",""
"","canvas-keyboard-response","243","200503","0.0-6.0-6.33","527","","","","","clear_screen","null","null","","","catch","sw","l","sh","180","200","275","219","216","179","trueblood","null","null","null","null","null","null","null","null","null","null","null","","180","200","260","200","36000","52000","[2,3]","","",""
"","canvas-keyboard-response","244","200705","0.0-6.0-0.34","527","","","","","pre trial waiting period","null","null","","","critical","t","c","d","164","240","240","164","162.6685","237.1485","trueblood","0.02","h","164","240","240","164","162.6685","237.1485","39360","39360","38576.5967","td","null","null","null","null","null","null","[1,3]","431.56169444782574","516.9276094244202","464.79010743927233"
"","canvas-keyboard-response","245","200727","0.0-6.0-1.34","527","","","","","clear_screen","null","null","","","critical","t","c","d","164","240","240","164","162.6685","237.1485","trueblood","0.02","h","164","240","240","164","162.6685","237.1485","39360","39360","38576.5967","td","null","null","null","null","null","null","[1,3]","431.56169444782574","516.9276094244202","464.79010743927233"
"","canvas-keyboard-response","246","201232","0.0-6.0-2.34","527","","","","","rectangles no change","null","null","","","critical","t","c","d","164","240","240","164","162.6685","237.1485","trueblood","0.02","h","164","240","240","164","162.6685","237.1485","39360","39360","38576.5967","td","null","null","null","null","null","null","[1,3]","431.56169444782574","516.9276094244202","464.79010743927233"
"","canvas-keyboard-response","247","202570","0.0-6.0-3.34","527","","","","","rectangles with change","null","null","","","critical","t","c","d","164","240","240","164","162.6685","237.1485","trueblood","0.02","h","164","240","240","164","162.6685","237.1485","39360","39360","38576.5967","td","null","null","null","null","null","null","[1,3]","431.56169444782574","516.9276094244202","464.79010743927233"
"","canvas-keyboard-response","248","202593","0.0-6.0-4.34","527","","","","","clear_screen","null","null","","","critical","t","c","d","164","240","240","164","162.6685","237.1485","trueblood","0.02","h","164","240","240","164","162.6685","237.1485","39360","39360","38576.5967","td","null","null","null","null","null","null","[1,3]","431.56169444782574","516.9276094244202","464.79010743927233"
"","canvas-keyboard-response","249","202973","0.0-6.0-5.34","527","","","","","make choice","376","1","","","critical","t","c","d","164","240","240","164","162.6685","237.1485","trueblood","0.02","h","164","240","240","164","162.6685","237.1485","39360","39360","38576.5967","td","null","null","null","null","null","null","[1,3]","","",""
"","canvas-keyboard-response","250","202990","0.0-6.0-6.34","527","","","","","clear_screen","null","null","","","critical","t","c","d","164","240","240","164","162.6685","237.1485","trueblood","0.02","h","164","240","240","164","162.6685","237.1485","39360","39360","38576.5967","td","null","null","null","null","null","null","[1,3]","","",""
"","canvas-keyboard-response","251","203192","0.0-6.0-0.35","527","","","","","pre trial waiting period","null","null","","","critical","c","t","d","164","240","240","164","227.1683","158.0083","spektor","0.09","w","240","164","164","240","227.1683","158.0083","39360","39360","35894.4834","dc","null","null","null","null","null","null","[3,1]","456.8740229108311","171.04051187534898","527.5609029630388"
"","canvas-keyboard-response","252","203214","0.0-6.0-1.35","527","","","","","clear_screen","null","null","","","critical","c","t","d","164","240","240","164","227.1683","158.0083","spektor","0.09","w","240","164","164","240","227.1683","158.0083","39360","39360","35894.4834","dc","null","null","null","null","null","null","[3,1]","456.8740229108311","171.04051187534898","527.5609029630388"
"","canvas-keyboard-response","253","203720","0.0-6.0-2.35","527","","","","","rectangles no change","null","null","","","critical","c","t","d","164","240","240","164","227.1683","158.0083","spektor","0.09","w","240","164","164","240","227.1683","158.0083","39360","39360","35894.4834","dc","null","null","null","null","null","null","[3,1]","456.8740229108311","171.04051187534898","527.5609029630388"
"","canvas-keyboard-response","254","205055","0.0-6.0-3.35","527","","","","","rectangles with change","null","null","","","critical","c","t","d","164","240","240","164","227.1683","158.0083","spektor","0.09","w","240","164","164","240","227.1683","158.0083","39360","39360","35894.4834","dc","null","null","null","null","null","null","[3,1]","456.8740229108311","171.04051187534898","527.5609029630388"
"","canvas-keyboard-response","255","205073","0.0-6.0-4.35","527","","","","","clear_screen","null","null","","","critical","c","t","d","164","240","240","164","227.1683","158.0083","spektor","0.09","w","240","164","164","240","227.1683","158.0083","39360","39360","35894.4834","dc","null","null","null","null","null","null","[3,1]","456.8740229108311","171.04051187534898","527.5609029630388"
"","canvas-keyboard-response","256","206062","0.0-6.0-5.35","527","","","","","make choice","982","1","","","critical","c","t","d","164","240","240","164","227.1683","158.0083","spektor","0.09","w","240","164","164","240","227.1683","158.0083","39360","39360","35894.4834","dc","null","null","null","null","null","null","[3,1]","","",""
"","canvas-keyboard-response","257","206080","0.0-6.0-6.35","527","","","","","clear_screen","null","null","","","critical","c","t","d","164","240","240","164","227.1683","158.0083","spektor","0.09","w","240","164","164","240","227.1683","158.0083","39360","39360","35894.4834","dc","null","null","null","null","null","null","[3,1]","","",""
"","canvas-keyboard-response","258","206281","0.0-6.0-0.36","527","","","","","pre trial waiting period","null","null","","","critical","c","d","t","164","240","220.0396","154.6796","240","164","trueblood","0.14","w","240","164","164","240","220.0396","154.6796","39360","39360","34035.6388","tc","null","null","null","null","null","null","[3,1]","424.79436538884386","486.5459858232895","480.8900761173843"
"","canvas-keyboard-response","259","206300","0.0-6.0-1.36","527","","","","","clear_screen","null","null","","","critical","c","d","t","164","240","220.0396","154.6796","240","164","trueblood","0.14","w","240","164","164","240","220.0396","154.6796","39360","39360","34035.6388","tc","null","null","null","null","null","null","[3,1]","424.79436538884386","486.5459858232895","480.8900761173843"
"","canvas-keyboard-response","260","206806","0.0-6.0-2.36","527","","","","","rectangles no change","null","null","","","critical","c","d","t","164","240","220.0396","154.6796","240","164","trueblood","0.14","w","240","164","164","240","220.0396","154.6796","39360","39360","34035.6388","tc","null","null","null","null","null","null","[3,1]","424.79436538884386","486.5459858232895","480.8900761173843"
"","canvas-keyboard-response","261","208142","0.0-6.0-3.36","527","","","","","rectangles with change","null","null","","","critical","c","d","t","164","240","220.0396","154.6796","240","164","trueblood","0.14","w","240","164","164","240","220.0396","154.6796","39360","39360","34035.6388","tc","null","null","null","null","null","null","[3,1]","424.79436538884386","486.5459858232895","480.8900761173843"
"","canvas-keyboard-response","262","208166","0.0-6.0-4.36","527","","","","","clear_screen","null","null","","","critical","c","d","t","164","240","220.0396","154.6796","240","164","trueblood","0.14","w","240","164","164","240","220.0396","154.6796","39360","39360","34035.6388","tc","null","null","null","null","null","null","[3,1]","424.79436538884386","486.5459858232895","480.8900761173843"
"","canvas-keyboard-response","263","208853","0.0-6.0-5.36","527","","","","","make choice","679","1","","","critical","c","d","t","164","240","220.0396","154.6796","240","164","trueblood","0.14","w","240","164","164","240","220.0396","154.6796","39360","39360","34035.6388","tc","null","null","null","null","null","null","[3,1]","","",""
"","canvas-keyboard-response","264","208871","0.0-6.0-6.36","527","","","","","clear_screen","null","null","","","critical","c","d","t","164","240","220.0396","154.6796","240","164","trueblood","0.14","w","240","164","164","240","220.0396","154.6796","39360","39360","34035.6388","tc","null","null","null","null","null","null","[3,1]","","",""
"","canvas-keyboard-response","265","209071","0.0-6.0-0.37","527","","","","","pre trial waiting period","null","null","","","critical","d","c","t","162.6685","237.1485","240","164","164","240","trueblood","0.02","h","164","240","240","164","162.6685","237.1485","39360","39360","38576.5967","dc","null","null","null","null","null","null","[1,2]","470.07531693025106","487.6477439881487","443.4542219388183"
