"success","trial_type","trial_index","time_elapsed","internal_node_id","sub_n","timeout","failed_images","failed_audio","failed_video","screen_id","rt","response","stimulus","view_history","trial","r1","r2","r3","w1","h1","w2","h2","w3","h3","display","tdd","tdo","tw","th","cw","ch","dw","dh","ta","ca","da","probe","csls","csss","clls","clss","sa","la","probe_rects","r1yloc","r2yloc","r3yloc"
"true","fullscreen","0","2789","0.0-0.0","526","","","","","","","","","","","","","","","","","","","","","","","","","","","","","","","","","","","","","","","","","",""
"true","preload","1","2845","0.0-1.0","526","false","[]","[]","[]","img preload","","","","","","","","","","","","","","","","","","","","","","","","","","","","","","","","","","","","",""
"","survey-html-form","2","5919","0.0-2.0","526","","","","","enter-sub-number","3037","{""response"":""526""}","","","","","","","","","","","","","","","","","","","","","","","","","","","","","","","","","","",""
"","image-button-response","3","66004","0.0-3.0","526","","","","","","59978","0","consent.png","","","","","","","","","","","","","","","","","","","","","","","","","","","","","","","","","",""
"","html-button-response","4","73171","0.0-4.0","526","","","","","intro mssg","7164","0","<div style= ""font-size:25px;"" <p> <strong> Welcome! </strong><br> <p style=""color:#8B0000; font-size:25px;""><strong> Please do NOT exit full screen until you are done with the experiment. </strong> </p><p style=""font-size:25px;color:#8B0000;""> <strong> Your data will be lost <br> if you try to go back or refresh the page after the experiment starts. Feel free to click ""previous"" during the instructions, however.</strong> </p><br><p> <strong> Thanks in advance for your contribution to our research! </strong></p>","","","","","","","","","","","","","","","","","","","","","","","","","","","","","","","","","",""
"","instructions","5","132771","0.0-5.0","526","","","","","instructions","59595","","","[{""page_index"":0,""viewing_time"":13291},{""page_index"":1,""viewing_time"":11368},{""page_index"":2,""viewing_time"":7184},{""page_index"":3,""viewing_time"":13520},{""page_index"":4,""viewing_time"":6848},{""page_index"":5,""viewing_time"":2752},{""page_index"":6,""viewing_time"":3080},{""page_index"":7,""viewing_time"":1552}]","","","","","","","","","","","","","","","","","","","","","","","","","","","","","","","","",""
"","canvas-keyboard-response","6","132976","0.0-6.0-0.0","526","","","","","pre trial waiting period","null","null","","","catch","l","sh","sw","278","214","223","213","218","213","trueblood","null","null","null","null","null","null","null","null","null","null","null","","180","200","260","200","36000","52000","[1,3]","485.46765929265376","450.5516867472441","462.74341028757766"
"","canvas-keyboard-response","7","132999","0.0-6.0-1.0","526","","","","","clear_screen","null","null","","","catch","l","sh","sw","278","214","223","213","218","213","trueblood","null","null","null","null","null","null","null","null","null","null","null","","180","200","260","200","36000","52000","[1,3]","485.46765929265376","450.5516867472441","462.74341028757766"
"","canvas-keyboard-response","8","133515","0.0-6.0-2.0","526","","","","","rectangles no change","null","null","","","catch","l","sh","sw","278","214","223","213","218","213","trueblood","null","null","null","null","null","null","null","null","null","null","null","","180","200","260","200","36000","52000","[1,3]","485.46765929265376","450.5516867472441","462.74341028757766"
"","canvas-keyboard-response","9","134853","0.0-6.0-3.0","526","","","","","rectangles with change","null","null","","","catch","l","sh","sw","278","214","223","213","218","213","trueblood","null","null","null","null","null","null","null","null","null","null","null","","180","200","260","200","36000","52000","[1,3]","485.46765929265376","450.5516867472441","462.74341028757766"
"","canvas-keyboard-response","10","134873","0.0-6.0-4.0","526","","","","","clear_screen","null","null","","","catch","l","sh","sw","278","214","223","213","218","213","trueblood","null","null","null","null","null","null","null","null","null","null","null","","180","200","260","200","36000","52000","[1,3]","485.46765929265376","450.5516867472441","462.74341028757766"
"","canvas-keyboard-response","11","148736","0.0-6.0-5.0","526","","","","","make choice","13851","3","","","catch","l","sh","sw","278","214","223","213","218","213","trueblood","null","null","null","null","null","null","null","null","null","null","null","","180","200","260","200","36000","52000","[1,3]","","",""
"","canvas-keyboard-response","12","148756","0.0-6.0-6.0","526","","","","","clear_screen","null","null","","","catch","l","sh","sw","278","214","223","213","218","213","trueblood","null","null","null","null","null","null","null","null","null","null","null","","180","200","260","200","36000","52000","[1,3]","","",""
"","canvas-keyboard-response","13","148959","0.0-6.0-0.1","526","","","","","pre trial waiting period","null","null","","","critical","t","c","d","164","240","240","164","158.0083","227.1683","trueblood","0.09","h","164","240","240","164","158.0083","227.1683","39360","39360","35894.4834","td","null","null","null","null","null","null","[1,3]","464.629638921966","483.02274183376994","454.2653814863963"
"","canvas-keyboard-response","14","148978","0.0-6.0-1.1","526","","","","","clear_screen","null","null","","","critical","t","c","d","164","240","240","164","158.0083","227.1683","trueblood","0.09","h","164","240","240","164","158.0083","227.1683","39360","39360","35894.4834","td","null","null","null","null","null","null","[1,3]","464.629638921966","483.02274183376994","454.2653814863963"
"","canvas-keyboard-response","15","149487","0.0-6.0-2.1","526","","","","","rectangles no change","null","null","","","critical","t","c","d","164","240","240","164","158.0083","227.1683","trueblood","0.09","h","164","240","240","164","158.0083","227.1683","39360","39360","35894.4834","td","null","null","null","null","null","null","[1,3]","464.629638921966","483.02274183376994","454.2653814863963"
"","canvas-keyboard-response","16","150822","0.0-6.0-3.1","526","","","","","rectangles with change","null","null","","","critical","t","c","d","164","240","240","164","158.0083","227.1683","trueblood","0.09","h","164","240","240","164","158.0083","227.1683","39360","39360","35894.4834","td","null","null","null","null","null","null","[1,3]","464.629638921966","483.02274183376994","454.2653814863963"
"","canvas-keyboard-response","17","150841","0.0-6.0-4.1","526","","","","","clear_screen","null","null","","","critical","t","c","d","164","240","240","164","158.0083","227.1683","trueblood","0.09","h","164","240","240","164","158.0083","227.1683","39360","39360","35894.4834","td","null","null","null","null","null","null","[1,3]","464.629638921966","483.02274183376994","454.2653814863963"
"","canvas-keyboard-response","18","156889","0.0-6.0-5.1","526","","","","","make choice","6036","3","","","critical","t","c","d","164","240","240","164","158.0083","227.1683","trueblood","0.09","h","164","240","240","164","158.0083","227.1683","39360","39360","35894.4834","td","null","null","null","null","null","null","[1,3]","","",""
"","canvas-keyboard-response","19","156907","0.0-6.0-6.1","526","","","","","clear_screen","null","null","","","critical","t","c","d","164","240","240","164","158.0083","227.1683","trueblood","0.09","h","164","240","240","164","158.0083","227.1683","39360","39360","35894.4834","td","null","null","null","null","null","null","[1,3]","","",""
"","canvas-keyboard-response","20","157108","0.0-6.0-0.2","526","","","","","pre trial waiting period","null","null","","","critical","c","d","t","164","240","227.1683","158.0083","240","164","spektor","0.09","w","240","164","164","240","227.1683","158.0083","39360","39360","35894.4834","dc","null","null","null","null","null","null","[2,1]","491.6080453484857","208.19413883833892","498.81551454656056"
"","canvas-keyboard-response","21","157129","0.0-6.0-1.2","526","","","","","clear_screen","null","null","","","critical","c","d","t","164","240","227.1683","158.0083","240","164","spektor","0.09","w","240","164","164","240","227.1683","158.0083","39360","39360","35894.4834","dc","null","null","null","null","null","null","[2,1]","491.6080453484857","208.19413883833892","498.81551454656056"
"","canvas-keyboard-response","22","157643","0.0-6.0-2.2","526","","","","","rectangles no change","null","null","","","critical","c","d","t","164","240","227.1683","158.0083","240","164","spektor","0.09","w","240","164","164","240","227.1683","158.0083","39360","39360","35894.4834","dc","null","null","null","null","null","null","[2,1]","491.6080453484857","208.19413883833892","498.81551454656056"
"","canvas-keyboard-response","23","158979","0.0-6.0-3.2","526","","","","","rectangles with change","null","null","","","critical","c","d","t","164","240","227.1683","158.0083","240","164","spektor","0.09","w","240","164","164","240","227.1683","158.0083","39360","39360","35894.4834","dc","null","null","null","null","null","null","[2,1]","491.6080453484857","208.19413883833892","498.81551454656056"
"","canvas-keyboard-response","24","158998","0.0-6.0-4.2","526","","","","","clear_screen","null","null","","","critical","c","d","t","164","240","227.1683","158.0083","240","164","spektor","0.09","w","240","164","164","240","227.1683","158.0083","39360","39360","35894.4834","dc","null","null","null","null","null","null","[2,1]","491.6080453484857","208.19413883833892","498.81551454656056"
"","canvas-keyboard-response","25","161705","0.0-6.0-5.2","526","","","","","make choice","2698","2","","","critical","c","d","t","164","240","227.1683","158.0083","240","164","spektor","0.09","w","240","164","164","240","227.1683","158.0083","39360","39360","35894.4834","dc","null","null","null","null","null","null","[2,1]","","",""
"","canvas-keyboard-response","26","161723","0.0-6.0-6.2","526","","","","","clear_screen","null","null","","","critical","c","d","t","164","240","227.1683","158.0083","240","164","spektor","0.09","w","240","164","164","240","227.1683","158.0083","39360","39360","35894.4834","dc","null","null","null","null","null","null","[2,1]","","",""
"","canvas-keyboard-response","27","161925","0.0-6.0-0.3","526","","","","","pre trial waiting period","null","null","","","critical","t","c","d","164","240","240","164","160.6713","232.8713","trueblood","0.05","h","164","240","240","164","160.6713","232.8713","39360","39360","37415.7294","td","null","null","null","null","null","null","[1,3]","443.422231956463","485.24630507652205","432.27703481185154"
"","canvas-keyboard-response","28","161945","0.0-6.0-1.3","526","","","","","clear_screen","null","null","","","critical","t","c","d","164","240","240","164","160.6713","232.8713","trueblood","0.05","h","164","240","240","164","160.6713","232.8713","39360","39360","37415.7294","td","null","null","null","null","null","null","[1,3]","443.422231956463","485.24630507652205","432.27703481185154"
"","canvas-keyboard-response","29","162454","0.0-6.0-2.3","526","","","","","rectangles no change","null","null","","","critical","t","c","d","164","240","240","164","160.6713","232.8713","trueblood","0.05","h","164","240","240","164","160.6713","232.8713","39360","39360","37415.7294","td","null","null","null","null","null","null","[1,3]","443.422231956463","485.24630507652205","432.27703481185154"
"","canvas-keyboard-response","30","163790","0.0-6.0-3.3","526","","","","","rectangles with change","null","null","","","critical","t","c","d","164","240","240","164","160.6713","232.8713","trueblood","0.05","h","164","240","240","164","160.6713","232.8713","39360","39360","37415.7294","td","null","null","null","null","null","null","[1,3]","443.422231956463","485.24630507652205","432.27703481185154"
"","canvas-keyboard-response","31","163811","0.0-6.0-4.3","526","","","","","clear_screen","null","null","","","critical","t","c","d","164","240","240","164","160.6713","232.8713","trueblood","0.05","h","164","240","240","164","160.6713","232.8713","39360","39360","37415.7294","td","null","null","null","null","null","null","[1,3]","443.422231956463","485.24630507652205","432.27703481185154"
"","canvas-keyboard-response","32","168025","0.0-6.0-5.3","526","","","","","make choice","4206","3","","","critical","t","c","d","164","240","240","164","160.6713","232.8713","trueblood","0.05","h","164","240","240","164","160.6713","232.8713","39360","39360","37415.7294","td","null","null","null","null","null","null","[1,3]","","",""
"","canvas-keyboard-response","33","168043","0.0-6.0-6.3","526","","","","","clear_screen","null","null","","","critical","t","c","d","164","240","240","164","160.6713","232.8713","trueblood","0.05","h","164","240","240","164","160.6713","232.8713","39360","39360","37415.7294","td","null","null","null","null","null","null","[1,3]","","",""
"","canvas-keyboard-response","34","168244","0.0-6.0-0.4","526","","","","","pre trial waiting period","null","null","","","critical","t","d","c","240","164","237.1485","162.6685","164","240","spektor","0.02","w","240","164","164","240","237.1485","162.6685","39360","39360","38576.5967","td","null","null","null","null","null","null","[1,2]","505.22187424668766","182.19357836565968","464.2309926999387"
"","canvas-keyboard-response","35","168264","0.0-6.0-1.4","526","","","","","clear_screen","null","null","","","critical","t","d","c","240","164","237.1485","162.6685","164","240","spektor","0.02","w","240","164","164","240","237.1485","162.6685","39360","39360","38576.5967","td","null","null","null","null","null","null","[1,2]","505.22187424668766","182.19357836565968","464.2309926999387"
"","canvas-keyboard-response","36","168776","0.0-6.0-2.4","526","","","","","rectangles no change","null","null","","","critical","t","d","c","240","164","237.1485","162.6685","164","240","spektor","0.02","w","240","164","164","240","237.1485","162.6685","39360","39360","38576.5967","td","null","null","null","null","null","null","[1,2]","505.22187424668766","182.19357836565968","464.2309926999387"
"","canvas-keyboard-response","37","170112","0.0-6.0-3.4","526","","","","","rectangles with change","null","null","","","critical","t","d","c","240","164","237.1485","162.6685","164","240","spektor","0.02","w","240","164","164","240","237.1485","162.6685","39360","39360","38576.5967","td","null","null","null","null","null","null","[1,2]","505.22187424668766","182.19357836565968","464.2309926999387"
"","canvas-keyboard-response","38","170130","0.0-6.0-4.4","526","","","","","clear_screen","null","null","","","critical","t","d","c","240","164","237.1485","162.6685","164","240","spektor","0.02","w","240","164","164","240","237.1485","162.6685","39360","39360","38576.5967","td","null","null","null","null","null","null","[1,2]","505.22187424668766","182.19357836565968","464.2309926999387"
"","canvas-keyboard-response","39","172657","0.0-6.0-5.4","526","","","","","make choice","2517","2","","","critical","t","d","c","240","164","237.1485","162.6685","164","240","spektor","0.02","w","240","164","164","240","237.1485","162.6685","39360","39360","38576.5967","td","null","null","null","null","null","null","[1,2]","","",""
"","canvas-keyboard-response","40","172675","0.0-6.0-6.4","526","","","","","clear_screen","null","null","","","critical","t","d","c","240","164","237.1485","162.6685","164","240","spektor","0.02","w","240","164","164","240","237.1485","162.6685","39360","39360","38576.5967","td","null","null","null","null","null","null","[1,2]","","",""
"","canvas-keyboard-response","41","172877","0.0-6.0-0.5","526","","","","","pre trial waiting period","null","null","","","catch","sw","sh","l","180","200","208","205","266","197","trueblood","null","null","null","null","null","null","null","null","null","null","null","","180","200","260","200","36000","52000","[2,3]","468.1880851534288","477.3295062705761","459.21309549328083"
"","canvas-keyboard-response","42","172902","0.0-6.0-1.5","526","","","","","clear_screen","null","null","","","catch","sw","sh","l","180","200","208","205","266","197","trueblood","null","null","null","null","null","null","null","null","null","null","null","","180","200","260","200","36000","52000","[2,3]","468.1880851534288","477.3295062705761","459.21309549328083"
"","canvas-keyboard-response","43","173412","0.0-6.0-2.5","526","","","","","rectangles no change","null","null","","","catch","sw","sh","l","180","200","208","205","266","197","trueblood","null","null","null","null","null","null","null","null","null","null","null","","180","200","260","200","36000","52000","[2,3]","468.1880851534288","477.3295062705761","459.21309549328083"
"","canvas-keyboard-response","44","174747","0.0-6.0-3.5","526","","","","","rectangles with change","null","null","","","catch","sw","sh","l","180","200","208","205","266","197","trueblood","null","null","null","null","null","null","null","null","null","null","null","","180","200","260","200","36000","52000","[2,3]","468.1880851534288","477.3295062705761","459.21309549328083"
"","canvas-keyboard-response","45","174765","0.0-6.0-4.5","526","","","","","clear_screen","null","null","","","catch","sw","sh","l","180","200","208","205","266","197","trueblood","null","null","null","null","null","null","null","null","null","null","null","","180","200","260","200","36000","52000","[2,3]","468.1880851534288","477.3295062705761","459.21309549328083"
"","canvas-keyboard-response","46","176697","0.0-6.0-5.5","526","","","","","make choice","1923","3","","","catch","sw","sh","l","180","200","208","205","266","197","trueblood","null","null","null","null","null","null","null","null","null","null","null","","180","200","260","200","36000","52000","[2,3]","","",""
"","canvas-keyboard-response","47","176715","0.0-6.0-6.5","526","","","","","clear_screen","null","null","","","catch","sw","sh","l","180","200","208","205","266","197","trueblood","null","null","null","null","null","null","null","null","null","null","null","","180","200","260","200","36000","52000","[2,3]","","",""
"","canvas-keyboard-response","48","176915","0.0-6.0-0.6","526","","","","","pre trial waiting period","null","null","","","catch","sw","sh","l","180","200","190","194","207","279","spektor","null","null","null","null","null","null","null","null","null","null","null","","180","200","260","200","36000","52000","[2,3]","485.3869028884659","154.89425443840594","455.65173512361145"
"","canvas-keyboard-response","49","176935","0.0-6.0-1.6","526","","","","","clear_screen","null","null","","","catch","sw","sh","l","180","200","190","194","207","279","spektor","null","null","null","null","null","null","null","null","null","null","null","","180","200","260","200","36000","52000","[2,3]","485.3869028884659","154.89425443840594","455.65173512361145"
"","canvas-keyboard-response","50","177446","0.0-6.0-2.6","526","","","","","rectangles no change","null","null","","","catch","sw","sh","l","180","200","190","194","207","279","spektor","null","null","null","null","null","null","null","null","null","null","null","","180","200","260","200","36000","52000","[2,3]","485.3869028884659","154.89425443840594","455.65173512361145"
"","canvas-keyboard-response","51","178782","0.0-6.0-3.6","526","","","","","rectangles with change","null","null","","","catch","sw","sh","l","180","200","190","194","207","279","spektor","null","null","null","null","null","null","null","null","null","null","null","","180","200","260","200","36000","52000","[2,3]","485.3869028884659","154.89425443840594","455.65173512361145"
"","canvas-keyboard-response","52","178801","0.0-6.0-4.6","526","","","","","clear_screen","null","null","","","catch","sw","sh","l","180","200","190","194","207","279","spektor","null","null","null","null","null","null","null","null","null","null","null","","180","200","260","200","36000","52000","[2,3]","485.3869028884659","154.89425443840594","455.65173512361145"
"","canvas-keyboard-response","53","180873","0.0-6.0-5.6","526","","","","","make choice","2063","3","","","catch","sw","sh","l","180","200","190","194","207","279","spektor","null","null","null","null","null","null","null","null","null","null","null","","180","200","260","200","36000","52000","[2,3]","","",""
"","canvas-keyboard-response","54","180893","0.0-6.0-6.6","526","","","","","clear_screen","null","null","","","catch","sw","sh","l","180","200","190","194","207","279","spektor","null","null","null","null","null","null","null","null","null","null","null","","180","200","260","200","36000","52000","[2,3]","","",""
"","canvas-keyboard-response","55","181094","0.0-6.0-0.7","526","","","","","pre trial waiting period","null","null","","","catch","sh","l","sw","165","166","270","184","214","217","trueblood","null","null","null","null","null","null","null","null","null","null","null","","180","200","260","200","36000","52000","[2,3]","514.3681145347938","460.8208846996274","443.00463567429045"
"","canvas-keyboard-response","56","181113","0.0-6.0-1.7","526","","","","","clear_screen","null","null","","","catch","sh","l","sw","165","166","270","184","214","217","trueblood","null","null","null","null","null","null","null","null","null","null","null","","180","200","260","200","36000","52000","[2,3]","514.3681145347938","460.8208846996274","443.00463567429045"
"","canvas-keyboard-response","57","181627","0.0-6.0-2.7","526","","","","","rectangles no change","null","null","","","catch","sh","l","sw","165","166","270","184","214","217","trueblood","null","null","null","null","null","null","null","null","null","null","null","","180","200","260","200","36000","52000","[2,3]","514.3681145347938","460.8208846996274","443.00463567429045"
"","canvas-keyboard-response","58","182961","0.0-6.0-3.7","526","","","","","rectangles with change","null","null","","","catch","sh","l","sw","165","166","270","184","214","217","trueblood","null","null","null","null","null","null","null","null","null","null","null","","180","200","260","200","36000","52000","[2,3]","514.3681145347938","460.8208846996274","443.00463567429045"
"","canvas-keyboard-response","59","182980","0.0-6.0-4.7","526","","","","","clear_screen","null","null","","","catch","sh","l","sw","165","166","270","184","214","217","trueblood","null","null","null","null","null","null","null","null","null","null","null","","180","200","260","200","36000","52000","[2,3]","514.3681145347938","460.8208846996274","443.00463567429045"
"","canvas-keyboard-response","60","185648","0.0-6.0-5.7","526","","","","","make choice","2659","2","","","catch","sh","l","sw","165","166","270","184","214","217","trueblood","null","null","null","null","null","null","null","null","null","null","null","","180","200","260","200","36000","52000","[2,3]","","",""
"","canvas-keyboard-response","61","185667","0.0-6.0-6.7","526","","","","","clear_screen","null","null","","","catch","sh","l","sw","165","166","270","184","214","217","trueblood","null","null","null","null","null","null","null","null","null","null","null","","180","200","260","200","36000","52000","[2,3]","","",""
"","canvas-keyboard-response","62","185869","0.0-6.0-0.8","526","","","","","pre trial waiting period","null","null","","","catch","sw","sh","l","180","200","206","187","277","198","spektor","null","null","null","null","null","null","null","null","null","null","null","","180","200","260","200","36000","52000","[2,3]","476.58064651102734","193.02590488267685","481.33399723579714"
"","canvas-keyboard-response","63","185887","0.0-6.0-1.8","526","","","","","clear_screen","null","null","","","catch","sw","sh","l","180","200","206","187","277","198","spektor","null","null","null","null","null","null","null","null","null","null","null","","180","200","260","200","36000","52000","[2,3]","476.58064651102734","193.02590488267685","481.33399723579714"
"","canvas-keyboard-response","64","186398","0.0-6.0-2.8","526","","","","","rectangles no change","null","null","","","catch","sw","sh","l","180","200","206","187","277","198","spektor","null","null","null","null","null","null","null","null","null","null","null","","180","200","260","200","36000","52000","[2,3]","476.58064651102734","193.02590488267685","481.33399723579714"
"","canvas-keyboard-response","65","187733","0.0-6.0-3.8","526","","","","","rectangles with change","null","null","","","catch","sw","sh","l","180","200","206","187","277","198","spektor","null","null","null","null","null","null","null","null","null","null","null","","180","200","260","200","36000","52000","[2,3]","476.58064651102734","193.02590488267685","481.33399723579714"
"","canvas-keyboard-response","66","187752","0.0-6.0-4.8","526","","","","","clear_screen","null","null","","","catch","sw","sh","l","180","200","206","187","277","198","spektor","null","null","null","null","null","null","null","null","null","null","null","","180","200","260","200","36000","52000","[2,3]","476.58064651102734","193.02590488267685","481.33399723579714"
"","canvas-keyboard-response","67","189906","0.0-6.0-5.8","526","","","","","make choice","2145","3","","","catch","sw","sh","l","180","200","206","187","277","198","spektor","null","null","null","null","null","null","null","null","null","null","null","","180","200","260","200","36000","52000","[2,3]","","",""
"","canvas-keyboard-response","68","189927","0.0-6.0-6.8","526","","","","","clear_screen","null","null","","","catch","sw","sh","l","180","200","206","187","277","198","spektor","null","null","null","null","null","null","null","null","null","null","null","","180","200","260","200","36000","52000","[2,3]","","",""
"","canvas-keyboard-response","69","190129","0.0-6.0-0.9","526","","","","","pre trial waiting period","null","null","","","catch","sw","sh","l","180","200","238","150","224","271","spektor","null","null","null","null","null","null","null","null","null","null","null","","180","200","260","200","36000","52000","[1,3]","522.0689036380336","195.3689300239252","443.44934105280765"
"","canvas-keyboard-response","70","190150","0.0-6.0-1.9","526","","","","","clear_screen","null","null","","","catch","sw","sh","l","180","200","238","150","224","271","spektor","null","null","null","null","null","null","null","null","null","null","null","","180","200","260","200","36000","52000","[1,3]","522.0689036380336","195.3689300239252","443.44934105280765"
"","canvas-keyboard-response","71","190663","0.0-6.0-2.9","526","","","","","rectangles no change","null","null","","","catch","sw","sh","l","180","200","238","150","224","271","spektor","null","null","null","null","null","null","null","null","null","null","null","","180","200","260","200","36000","52000","[1,3]","522.0689036380336","195.3689300239252","443.44934105280765"
"","canvas-keyboard-response","72","192000","0.0-6.0-3.9","526","","","","","rectangles with change","null","null","","","catch","sw","sh","l","180","200","238","150","224","271","spektor","null","null","null","null","null","null","null","null","null","null","null","","180","200","260","200","36000","52000","[1,3]","522.0689036380336","195.3689300239252","443.44934105280765"
"","canvas-keyboard-response","73","192019","0.0-6.0-4.9","526","","","","","clear_screen","null","null","","","catch","sw","sh","l","180","200","238","150","224","271","spektor","null","null","null","null","null","null","null","null","null","null","null","","180","200","260","200","36000","52000","[1,3]","522.0689036380336","195.3689300239252","443.44934105280765"
"","canvas-keyboard-response","74","194784","0.0-6.0-5.9","526","","","","","make choice","2757","3","","","catch","sw","sh","l","180","200","238","150","224","271","spektor","null","null","null","null","null","null","null","null","null","null","null","","180","200","260","200","36000","52000","[1,3]","","",""
"","canvas-keyboard-response","75","194804","0.0-6.0-6.9","526","","","","","clear_screen","null","null","","","catch","sw","sh","l","180","200","238","150","224","271","spektor","null","null","null","null","null","null","null","null","null","null","null","","180","200","260","200","36000","52000","[1,3]","","",""
"","canvas-keyboard-response","76","195005","0.0-6.0-0.10","526","","","","","pre trial waiting period","null","null","","","critical","t","c","d","240","164","164","240","227.1683","158.0083","spektor","0.09","w","240","164","164","240","227.1683","158.0083","39360","39360","35894.4834","td","null","null","null","null","null","null","[1,3]","534.3265843004978","112.18092282124344","514.3012371236289"
"","canvas-keyboard-response","77","195026","0.0-6.0-1.10","526","","","","","clear_screen","null","null","","","critical","t","c","d","240","164","164","240","227.1683","158.0083","spektor","0.09","w","240","164","164","240","227.1683","158.0083","39360","39360","35894.4834","td","null","null","null","null","null","null","[1,3]","534.3265843004978","112.18092282124344","514.3012371236289"
"","canvas-keyboard-response","78","195539","0.0-6.0-2.10","526","","","","","rectangles no change","null","null","","","critical","t","c","d","240","164","164","240","227.1683","158.0083","spektor","0.09","w","240","164","164","240","227.1683","158.0083","39360","39360","35894.4834","td","null","null","null","null","null","null","[1,3]","534.3265843004978","112.18092282124344","514.3012371236289"
"","canvas-keyboard-response","79","196876","0.0-6.0-3.10","526","","","","","rectangles with change","null","null","","","critical","t","c","d","240","164","164","240","227.1683","158.0083","spektor","0.09","w","240","164","164","240","227.1683","158.0083","39360","39360","35894.4834","td","null","null","null","null","null","null","[1,3]","534.3265843004978","112.18092282124344","514.3012371236289"
"","canvas-keyboard-response","80","196900","0.0-6.0-4.10","526","","","","","clear_screen","null","null","","","critical","t","c","d","240","164","164","240","227.1683","158.0083","spektor","0.09","w","240","164","164","240","227.1683","158.0083","39360","39360","35894.4834","td","null","null","null","null","null","null","[1,3]","534.3265843004978","112.18092282124344","514.3012371236289"
"","canvas-keyboard-response","81","199217","0.0-6.0-5.10","526","","","","","make choice","2307","1","","","critical","t","c","d","240","164","164","240","227.1683","158.0083","spektor","0.09","w","240","164","164","240","227.1683","158.0083","39360","39360","35894.4834","td","null","null","null","null","null","null","[1,3]","","",""
"","canvas-keyboard-response","82","199236","0.0-6.0-6.10","526","","","","","clear_screen","null","null","","","critical","t","c","d","240","164","164","240","227.1683","158.0083","spektor","0.09","w","240","164","164","240","227.1683","158.0083","39360","39360","35894.4834","td","null","null","null","null","null","null","[1,3]","","",""
"","canvas-keyboard-response","83","199438","0.0-6.0-0.11","526","","","","","pre trial waiting period","null","null","","","catch","sh","sw","l","230","201","143","234","196","289","spektor","null","null","null","null","null","null","null","null","null","null","null","","180","200","260","200","36000","52000","[1,3]","513.2300551149594","74.88313257790789","430.87033708166194"
"","canvas-keyboard-response","84","199457","0.0-6.0-1.11","526","","","","","clear_screen","null","null","","","catch","sh","sw","l","230","201","143","234","196","289","spektor","null","null","null","null","null","null","null","null","null","null","null","","180","200","260","200","36000","52000","[1,3]","513.2300551149594","74.88313257790789","430.87033708166194"
"","canvas-keyboard-response","85","199967","0.0-6.0-2.11","526","","","","","rectangles no change","null","null","","","catch","sh","sw","l","230","201","143","234","196","289","spektor","null","null","null","null","null","null","null","null","null","null","null","","180","200","260","200","36000","52000","[1,3]","513.2300551149594","74.88313257790789","430.87033708166194"
"","canvas-keyboard-response","86","201303","0.0-6.0-3.11","526","","","","","rectangles with change","null","null","","","catch","sh","sw","l","230","201","143","234","196","289","spektor","null","null","null","null","null","null","null","null","null","null","null","","180","200","260","200","36000","52000","[1,3]","513.2300551149594","74.88313257790789","430.87033708166194"
"","canvas-keyboard-response","87","201322","0.0-6.0-4.11","526","","","","","clear_screen","null","null","","","catch","sh","sw","l","230","201","143","234","196","289","spektor","null","null","null","null","null","null","null","null","null","null","null","","180","200","260","200","36000","52000","[1,3]","513.2300551149594","74.88313257790789","430.87033708166194"
"","canvas-keyboard-response","88","208417","0.0-6.0-5.11","526","","","","","make choice","7085","1","","","catch","sh","sw","l","230","201","143","234","196","289","spektor","null","null","null","null","null","null","null","null","null","null","null","","180","200","260","200","36000","52000","[1,3]","","",""
"","canvas-keyboard-response","89","208435","0.0-6.0-6.11","526","","","","","clear_screen","null","null","","","catch","sh","sw","l","230","201","143","234","196","289","spektor","null","null","null","null","null","null","null","null","null","null","null","","180","200","260","200","36000","52000","[1,3]","","",""
"","canvas-keyboard-response","90","208637","0.0-6.0-0.12","526","","","","","pre trial waiting period","null","null","","","critical","t","d","c","240","164","232.8713","160.6713","164","240","trueblood","0.05","w","240","164","164","240","232.8713","160.6713","39360","39360","37415.7294","tc","null","null","null","null","null","null","[1,3]","486.82714744369116","512.699417344998","438.6945997589796"
"","canvas-keyboard-response","91","208657","0.0-6.0-1.12","526","","","","","clear_screen","null","null","","","critical","t","d","c","240","164","232.8713","160.6713","164","240","trueblood","0.05","w","240","164","164","240","232.8713","160.6713","39360","39360","37415.7294","tc","null","null","null","null","null","null","[1,3]","486.82714744369116","512.699417344998","438.6945997589796"
"","canvas-keyboard-response","92","209168","0.0-6.0-2.12","526","","","","","rectangles no change","null","null","","","critical","t","d","c","240","164","232.8713","160.6713","164","240","trueblood","0.05","w","240","164","164","240","232.8713","160.6713","39360","39360","37415.7294","tc","null","null","null","null","null","null","[1,3]","486.82714744369116","512.699417344998","438.6945997589796"
"","canvas-keyboard-response","93","210504","0.0-6.0-3.12","526","","","","","rectangles with change","null","null","","","critical","t","d","c","240","164","232.8713","160.6713","164","240","trueblood","0.05","w","240","164","164","240","232.8713","160.6713","39360","39360","37415.7294","tc","null","null","null","null","null","null","[1,3]","486.82714744369116","512.699417344998","438.6945997589796"
"","canvas-keyboard-response","94","210522","0.0-6.0-4.12","526","","","","","clear_screen","null","null","","","critical","t","d","c","240","164","232.8713","160.6713","164","240","trueblood","0.05","w","240","164","164","240","232.8713","160.6713","39360","39360","37415.7294","tc","null","null","null","null","null","null","[1,3]","486.82714744369116","512.699417344998","438.6945997589796"
"","canvas-keyboard-response","95","213760","0.0-6.0-5.12","526","","","","","make choice","3231","1","","","critical","t","d","c","240","164","232.8713","160.6713","164","240","trueblood","0.05","w","240","164","164","240","232.8713","160.6713","39360","39360","37415.7294","tc","null","null","null","null","null","null","[1,3]","","",""
"","canvas-keyboard-response","96","213779","0.0-6.0-6.12","526","","","","","clear_screen","null","null","","","critical","t","d","c","240","164","232.8713","160.6713","164","240","trueblood","0.05","w","240","164","164","240","232.8713","160.6713","39360","39360","37415.7294","tc","null","null","null","null","null","null","[1,3]","","",""
"","canvas-keyboard-response","97","213980","0.0-6.0-0.13","526","","","","","pre trial waiting period","null","null","","","critical","t","d","c","240","164","220.0396","154.6796","164","240","spektor","0.14","w","240","164","164","240","220.0396","154.6796","39360","39360","34035.6388","tc","null","null","null","null","null","null","[1,3]","539.6552373799904","188.60112816145252","500.17765483952417"
"","canvas-keyboard-response","98","214001","0.0-6.0-1.13","526","","","","","clear_screen","null","null","","","critical","t","d","c","240","164","220.0396","154.6796","164","240","spektor","0.14","w","240","164","164","240","220.0396","154.6796","39360","39360","34035.6388","tc","null","null","null","null","null","null","[1,3]","539.6552373799904","188.60112816145252","500.17765483952417"
"","canvas-keyboard-response","99","214512","0.0-6.0-2.13","526","","","","","rectangles no change","null","null","","","critical","t","d","c","240","164","220.0396","154.6796","164","240","spektor","0.14","w","240","164","164","240","220.0396","154.6796","39360","39360","34035.6388","tc","null","null","null","null","null","null","[1,3]","539.6552373799904","188.60112816145252","500.17765483952417"
"","canvas-keyboard-response","100","215847","0.0-6.0-3.13","526","","","","","rectangles with change","null","null","","","critical","t","d","c","240","164","220.0396","154.6796","164","240","spektor","0.14","w","240","164","164","240","220.0396","154.6796","39360","39360","34035.6388","tc","null","null","null","null","null","null","[1,3]","539.6552373799904","188.60112816145252","500.17765483952417"
"","canvas-keyboard-response","101","215867","0.0-6.0-4.13","526","","","","","clear_screen","null","null","","","critical","t","d","c","240","164","220.0396","154.6796","164","240","spektor","0.14","w","240","164","164","240","220.0396","154.6796","39360","39360","34035.6388","tc","null","null","null","null","null","null","[1,3]","539.6552373799904","188.60112816145252","500.17765483952417"
"","canvas-keyboard-response","102","217704","0.0-6.0-5.13","526","","","","","make choice","1830","1","","","critical","t","d","c","240","164","220.0396","154.6796","164","240","spektor","0.14","w","240","164","164","240","220.0396","154.6796","39360","39360","34035.6388","tc","null","null","null","null","null","null","[1,3]","","",""
"","canvas-keyboard-response","103","217724","0.0-6.0-6.13","526","","","","","clear_screen","null","null","","","critical","t","d","c","240","164","220.0396","154.6796","164","240","spektor","0.14","w","240","164","164","240","220.0396","154.6796","39360","39360","34035.6388","tc","null","null","null","null","null","null","[1,3]","","",""
"","canvas-keyboard-response","104","217925","0.0-6.0-0.14","526","","","","","pre trial waiting period","null","null","","","critical","c","d","t","164","240","237.1485","162.6685","240","164","spektor","0.02","w","240","164","164","240","237.1485","162.6685","39360","39360","38576.5967","dc","null","null","null","null","null","null","[2,1]","458.24634982042943","201.18999023908026","515.3594244018783"
"","canvas-keyboard-response","105","217944","0.0-6.0-1.14","526","","","","","clear_screen","null","null","","","critical","c","d","t","164","240","237.1485","162.6685","240","164","spektor","0.02","w","240","164","164","240","237.1485","162.6685","39360","39360","38576.5967","dc","null","null","null","null","null","null","[2,1]","458.24634982042943","201.18999023908026","515.3594244018783"
"","canvas-keyboard-response","106","218455","0.0-6.0-2.14","526","","","","","rectangles no change","null","null","","","critical","c","d","t","164","240","237.1485","162.6685","240","164","spektor","0.02","w","240","164","164","240","237.1485","162.6685","39360","39360","38576.5967","dc","null","null","null","null","null","null","[2,1]","458.24634982042943","201.18999023908026","515.3594244018783"
"","canvas-keyboard-response","107","219791","0.0-6.0-3.14","526","","","","","rectangles with change","null","null","","","critical","c","d","t","164","240","237.1485","162.6685","240","164","spektor","0.02","w","240","164","164","240","237.1485","162.6685","39360","39360","38576.5967","dc","null","null","null","null","null","null","[2,1]","458.24634982042943","201.18999023908026","515.3594244018783"
"","canvas-keyboard-response","108","219814","0.0-6.0-4.14","526","","","","","clear_screen","null","null","","","critical","c","d","t","164","240","237.1485","162.6685","240","164","spektor","0.02","w","240","164","164","240","237.1485","162.6685","39360","39360","38576.5967","dc","null","null","null","null","null","null","[2,1]","458.24634982042943","201.18999023908026","515.3594244018783"
"","canvas-keyboard-response","109","221447","0.0-6.0-5.14","526","","","","","make choice","1625","2","","","critical","c","d","t","164","240","237.1485","162.6685","240","164","spektor","0.02","w","240","164","164","240","237.1485","162.6685","39360","39360","38576.5967","dc","null","null","null","null","null","null","[2,1]","","",""
"","canvas-keyboard-response","110","221467","0.0-6.0-6.14","526","","","","","clear_screen","null","null","","","critical","c","d","t","164","240","237.1485","162.6685","240","164","spektor","0.02","w","240","164","164","240","237.1485","162.6685","39360","39360","38576.5967","dc","null","null","null","null","null","null","[2,1]","","",""
"","canvas-keyboard-response","111","221668","0.0-6.0-0.15","526","","","","","pre trial waiting period","null","null","","","critical","t","c","d","240","164","164","240","237.1485","162.6685","trueblood","0.02","w","240","164","164","240","237.1485","162.6685","39360","39360","38576.5967","tc","null","null","null","null","null","null","[1,2]","510.1323726316909","449.29907915994664","512.8613628763117"
"","canvas-keyboard-response","112","221688","0.0-6.0-1.15","526","","","","","clear_screen","null","null","","","critical","t","c","d","240","164","164","240","237.1485","162.6685","trueblood","0.02","w","240","164","164","240","237.1485","162.6685","39360","39360","38576.5967","tc","null","null","null","null","null","null","[1,2]","510.1323726316909","449.29907915994664","512.8613628763117"
"","canvas-keyboard-response","113","222198","0.0-6.0-2.15","526","","","","","rectangles no change","null","null","","","critical","t","c","d","240","164","164","240","237.1485","162.6685","trueblood","0.02","w","240","164","164","240","237.1485","162.6685","39360","39360","38576.5967","tc","null","null","null","null","null","null","[1,2]","510.1323726316909","449.29907915994664","512.8613628763117"
"","canvas-keyboard-response","114","223533","0.0-6.0-3.15","526","","","","","rectangles with change","null","null","","","critical","t","c","d","240","164","164","240","237.1485","162.6685","trueblood","0.02","w","240","164","164","240","237.1485","162.6685","39360","39360","38576.5967","tc","null","null","null","null","null","null","[1,2]","510.1323726316909","449.29907915994664","512.8613628763117"
"","canvas-keyboard-response","115","223552","0.0-6.0-4.15","526","","","","","clear_screen","null","null","","","critical","t","c","d","240","164","164","240","237.1485","162.6685","trueblood","0.02","w","240","164","164","240","237.1485","162.6685","39360","39360","38576.5967","tc","null","null","null","null","null","null","[1,2]","510.1323726316909","449.29907915994664","512.8613628763117"
"","canvas-keyboard-response","116","225072","0.0-6.0-5.15","526","","","","","make choice","1514","1","","","critical","t","c","d","240","164","164","240","237.1485","162.6685","trueblood","0.02","w","240","164","164","240","237.1485","162.6685","39360","39360","38576.5967","tc","null","null","null","null","null","null","[1,2]","","",""
"","canvas-keyboard-response","117","225091","0.0-6.0-6.15","526","","","","","clear_screen","null","null","","","critical","t","c","d","240","164","164","240","237.1485","162.6685","trueblood","0.02","w","240","164","164","240","237.1485","162.6685","39360","39360","38576.5967","tc","null","null","null","null","null","null","[1,2]","","",""
"","canvas-keyboard-response","118","225292","0.0-6.0-0.16","526","","","","","pre trial waiting period","null","null","","","catch","sh","l","sw","182","204","258","180","195","160","spektor","null","null","null","null","null","null","null","null","null","null","null","","180","200","260","200","36000","52000","[1,2]","498.7814725513716","192.23472865596213","499.2788898053229"
"","canvas-keyboard-response","119","225311","0.0-6.0-1.16","526","","","","","clear_screen","null","null","","","catch","sh","l","sw","182","204","258","180","195","160","spektor","null","null","null","null","null","null","null","null","null","null","null","","180","200","260","200","36000","52000","[1,2]","498.7814725513716","192.23472865596213","499.2788898053229"
"","canvas-keyboard-response","120","225820","0.0-6.0-2.16","526","","","","","rectangles no change","null","null","","","catch","sh","l","sw","182","204","258","180","195","160","spektor","null","null","null","null","null","null","null","null","null","null","null","","180","200","260","200","36000","52000","[1,2]","498.7814725513716","192.23472865596213","499.2788898053229"
"","canvas-keyboard-response","121","227159","0.0-6.0-3.16","526","","","","","rectangles with change","null","null","","","catch","sh","l","sw","182","204","258","180","195","160","spektor","null","null","null","null","null","null","null","null","null","null","null","","180","200","260","200","36000","52000","[1,2]","498.7814725513716","192.23472865596213","499.2788898053229"
"","canvas-keyboard-response","122","227177","0.0-6.0-4.16","526","","","","","clear_screen","null","null","","","catch","sh","l","sw","182","204","258","180","195","160","spektor","null","null","null","null","null","null","null","null","null","null","null","","180","200","260","200","36000","52000","[1,2]","498.7814725513716","192.23472865596213","499.2788898053229"
"","canvas-keyboard-response","123","228280","0.0-6.0-5.16","526","","","","","make choice","1097","2","","","catch","sh","l","sw","182","204","258","180","195","160","spektor","null","null","null","null","null","null","null","null","null","null","null","","180","200","260","200","36000","52000","[1,2]","","",""
"","canvas-keyboard-response","124","228300","0.0-6.0-6.16","526","","","","","clear_screen","null","null","","","catch","sh","l","sw","182","204","258","180","195","160","spektor","null","null","null","null","null","null","null","null","null","null","null","","180","200","260","200","36000","52000","[1,2]","","",""
"","canvas-keyboard-response","125","228501","0.0-6.0-0.17","526","","","","","pre trial waiting period","null","null","","","critical","t","d","c","164","240","162.6685","237.1485","240","164","spektor","0.02","h","164","240","240","164","162.6685","237.1485","39360","39360","38576.5967","dc","null","null","null","null","null","null","[2,3]","463.2815459295388","129.58798309846378","517.0152852008483"
"","canvas-keyboard-response","126","228522","0.0-6.0-1.17","526","","","","","clear_screen","null","null","","","critical","t","d","c","164","240","162.6685","237.1485","240","164","spektor","0.02","h","164","240","240","164","162.6685","237.1485","39360","39360","38576.5967","dc","null","null","null","null","null","null","[2,3]","463.2815459295388","129.58798309846378","517.0152852008483"
"","canvas-keyboard-response","127","229036","0.0-6.0-2.17","526","","","","","rectangles no change","null","null","","","critical","t","d","c","164","240","162.6685","237.1485","240","164","spektor","0.02","h","164","240","240","164","162.6685","237.1485","39360","39360","38576.5967","dc","null","null","null","null","null","null","[2,3]","463.2815459295388","129.58798309846378","517.0152852008483"
"","canvas-keyboard-response","128","230372","0.0-6.0-3.17","526","","","","","rectangles with change","null","null","","","critical","t","d","c","164","240","162.6685","237.1485","240","164","spektor","0.02","h","164","240","240","164","162.6685","237.1485","39360","39360","38576.5967","dc","null","null","null","null","null","null","[2,3]","463.2815459295388","129.58798309846378","517.0152852008483"
"","canvas-keyboard-response","129","230391","0.0-6.0-4.17","526","","","","","clear_screen","null","null","","","critical","t","d","c","164","240","162.6685","237.1485","240","164","spektor","0.02","h","164","240","240","164","162.6685","237.1485","39360","39360","38576.5967","dc","null","null","null","null","null","null","[2,3]","463.2815459295388","129.58798309846378","517.0152852008483"
"","canvas-keyboard-response","130","231824","0.0-6.0-5.17","526","","","","","make choice","1426","3","","","critical","t","d","c","164","240","162.6685","237.1485","240","164","spektor","0.02","h","164","240","240","164","162.6685","237.1485","39360","39360","38576.5967","dc","null","null","null","null","null","null","[2,3]","","",""
"","canvas-keyboard-response","131","231842","0.0-6.0-6.17","526","","","","","clear_screen","null","null","","","critical","t","d","c","164","240","162.6685","237.1485","240","164","spektor","0.02","h","164","240","240","164","162.6685","237.1485","39360","39360","38576.5967","dc","null","null","null","null","null","null","[2,3]","","",""
"","canvas-keyboard-response","132","232043","0.0-6.0-0.18","526","","","","","pre trial waiting period","null","null","","","catch","sw","sh","l","180","200","200","166","291","179","trueblood","null","null","null","null","null","null","null","null","null","null","null","","180","200","260","200","36000","52000","[1,3]","456.76057033007396","498.78857232503594","464.7123822382922"
"","canvas-keyboard-response","133","232062","0.0-6.0-1.18","526","","","","","clear_screen","null","null","","","catch","sw","sh","l","180","200","200","166","291","179","trueblood","null","null","null","null","null","null","null","null","null","null","null","","180","200","260","200","36000","52000","[1,3]","456.76057033007396","498.78857232503594","464.7123822382922"
"","canvas-keyboard-response","134","232571","0.0-6.0-2.18","526","","","","","rectangles no change","null","null","","","catch","sw","sh","l","180","200","200","166","291","179","trueblood","null","null","null","null","null","null","null","null","null","null","null","","180","200","260","200","36000","52000","[1,3]","456.76057033007396","498.78857232503594","464.7123822382922"
"","canvas-keyboard-response","135","233906","0.0-6.0-3.18","526","","","","","rectangles with change","null","null","","","catch","sw","sh","l","180","200","200","166","291","179","trueblood","null","null","null","null","null","null","null","null","null","null","null","","180","200","260","200","36000","52000","[1,3]","456.76057033007396","498.78857232503594","464.7123822382922"
"","canvas-keyboard-response","136","233924","0.0-6.0-4.18","526","","","","","clear_screen","null","null","","","catch","sw","sh","l","180","200","200","166","291","179","trueblood","null","null","null","null","null","null","null","null","null","null","null","","180","200","260","200","36000","52000","[1,3]","456.76057033007396","498.78857232503594","464.7123822382922"
"","canvas-keyboard-response","137","235303","0.0-6.0-5.18","526","","","","","make choice","1372","3","","","catch","sw","sh","l","180","200","200","166","291","179","trueblood","null","null","null","null","null","null","null","null","null","null","null","","180","200","260","200","36000","52000","[1,3]","","",""
"","canvas-keyboard-response","138","235322","0.0-6.0-6.18","526","","","","","clear_screen","null","null","","","catch","sw","sh","l","180","200","200","166","291","179","trueblood","null","null","null","null","null","null","null","null","null","null","null","","180","200","260","200","36000","52000","[1,3]","","",""
"","canvas-keyboard-response","139","235523","0.0-6.0-0.19","526","","","","","pre trial waiting period","null","null","","","critical","d","c","t","232.8713","160.6713","164","240","240","164","trueblood","0.05","w","240","164","164","240","232.8713","160.6713","39360","39360","37415.7294","td","null","null","null","null","null","null","[3,1]","518.27432135623","459.763117203386","488.50243523823735"
"","canvas-keyboard-response","140","235543","0.0-6.0-1.19","526","","","","","clear_screen","null","null","","","critical","d","c","t","232.8713","160.6713","164","240","240","164","trueblood","0.05","w","240","164","164","240","232.8713","160.6713","39360","39360","37415.7294","td","null","null","null","null","null","null","[3,1]","518.27432135623","459.763117203386","488.50243523823735"
"","canvas-keyboard-response","141","236054","0.0-6.0-2.19","526","","","","","rectangles no change","null","null","","","critical","d","c","t","232.8713","160.6713","164","240","240","164","trueblood","0.05","w","240","164","164","240","232.8713","160.6713","39360","39360","37415.7294","td","null","null","null","null","null","null","[3,1]","518.27432135623","459.763117203386","488.50243523823735"
"","canvas-keyboard-response","142","237390","0.0-6.0-3.19","526","","","","","rectangles with change","null","null","","","critical","d","c","t","232.8713","160.6713","164","240","240","164","trueblood","0.05","w","240","164","164","240","232.8713","160.6713","39360","39360","37415.7294","td","null","null","null","null","null","null","[3,1]","518.27432135623","459.763117203386","488.50243523823735"
"","canvas-keyboard-response","143","237409","0.0-6.0-4.19","526","","","","","clear_screen","null","null","","","critical","d","c","t","232.8713","160.6713","164","240","240","164","trueblood","0.05","w","240","164","164","240","232.8713","160.6713","39360","39360","37415.7294","td","null","null","null","null","null","null","[3,1]","518.27432135623","459.763117203386","488.50243523823735"
"","canvas-keyboard-response","144","238560","0.0-6.0-5.19","526","","","","","make choice","1141","1","","","critical","d","c","t","232.8713","160.6713","164","240","240","164","trueblood","0.05","w","240","164","164","240","232.8713","160.6713","39360","39360","37415.7294","td","null","null","null","null","null","null","[3,1]","","",""
"","canvas-keyboard-response","145","238580","0.0-6.0-6.19","526","","","","","clear_screen","null","null","","","critical","d","c","t","232.8713","160.6713","164","240","240","164","trueblood","0.05","w","240","164","164","240","232.8713","160.6713","39360","39360","37415.7294","td","null","null","null","null","null","null","[3,1]","","",""
"","canvas-keyboard-response","146","238781","0.0-6.0-0.20","526","","","","","pre trial waiting period","null","null","","","critical","c","d","t","240","164","164","240","164","240","trueblood","0","h","164","240","240","164","164","240","39360","39360","39360","td","null","null","null","null","null","null","[3,2]","475.3278143484908","449.0863284684757","468.8107886017745"
"","canvas-keyboard-response","147","238801","0.0-6.0-1.20","526","","","","","clear_screen","null","null","","","critical","c","d","t","240","164","164","240","164","240","trueblood","0","h","164","240","240","164","164","240","39360","39360","39360","td","null","null","null","null","null","null","[3,2]","475.3278143484908","449.0863284684757","468.8107886017745"
"","canvas-keyboard-response","148","239311","0.0-6.0-2.20","526","","","","","rectangles no change","null","null","","","critical","c","d","t","240","164","164","240","164","240","trueblood","0","h","164","240","240","164","164","240","39360","39360","39360","td","null","null","null","null","null","null","[3,2]","475.3278143484908","449.0863284684757","468.8107886017745"
"","canvas-keyboard-response","149","240646","0.0-6.0-3.20","526","","","","","rectangles with change","null","null","","","critical","c","d","t","240","164","164","240","164","240","trueblood","0","h","164","240","240","164","164","240","39360","39360","39360","td","null","null","null","null","null","null","[3,2]","475.3278143484908","449.0863284684757","468.8107886017745"
"","canvas-keyboard-response","150","240665","0.0-6.0-4.20","526","","","","","clear_screen","null","null","","","critical","c","d","t","240","164","164","240","164","240","trueblood","0","h","164","240","240","164","164","240","39360","39360","39360","td","null","null","null","null","null","null","[3,2]","475.3278143484908","449.0863284684757","468.8107886017745"
"","canvas-keyboard-response","151","241808","0.0-6.0-5.20","526","","","","","make choice","1136","3","","","critical","c","d","t","240","164","164","240","164","240","trueblood","0","h","164","240","240","164","164","240","39360","39360","39360","td","null","null","null","null","null","null","[3,2]","","",""
"","canvas-keyboard-response","152","241826","0.0-6.0-6.20","526","","","","","clear_screen","null","null","","","critical","c","d","t","240","164","164","240","164","240","trueblood","0","h","164","240","240","164","164","240","39360","39360","39360","td","null","null","null","null","null","null","[3,2]","","",""
"","canvas-keyboard-response","153","242027","0.0-6.0-0.21","526","","","","","pre trial waiting period","null","null","","","critical","d","t","c","158.0083","227.1683","164","240","240","164","spektor","0.09","h","164","240","240","164","158.0083","227.1683","39360","39360","35894.4834","td","null","null","null","null","null","null","[2,1]","505.84233939676085","122.18260482608368","501.0256554379396"
"","canvas-keyboard-response","154","242046","0.0-6.0-1.21","526","","","","","clear_screen","null","null","","","critical","d","t","c","158.0083","227.1683","164","240","240","164","spektor","0.09","h","164","240","240","164","158.0083","227.1683","39360","39360","35894.4834","td","null","null","null","null","null","null","[2,1]","505.84233939676085","122.18260482608368","501.0256554379396"
"","canvas-keyboard-response","155","242557","0.0-6.0-2.21","526","","","","","rectangles no change","null","null","","","critical","d","t","c","158.0083","227.1683","164","240","240","164","spektor","0.09","h","164","240","240","164","158.0083","227.1683","39360","39360","35894.4834","td","null","null","null","null","null","null","[2,1]","505.84233939676085","122.18260482608368","501.0256554379396"
"","canvas-keyboard-response","156","243893","0.0-6.0-3.21","526","","","","","rectangles with change","null","null","","","critical","d","t","c","158.0083","227.1683","164","240","240","164","spektor","0.09","h","164","240","240","164","158.0083","227.1683","39360","39360","35894.4834","td","null","null","null","null","null","null","[2,1]","505.84233939676085","122.18260482608368","501.0256554379396"
"","canvas-keyboard-response","157","243911","0.0-6.0-4.21","526","","","","","clear_screen","null","null","","","critical","d","t","c","158.0083","227.1683","164","240","240","164","spektor","0.09","h","164","240","240","164","158.0083","227.1683","39360","39360","35894.4834","td","null","null","null","null","null","null","[2,1]","505.84233939676085","122.18260482608368","501.0256554379396"
"","canvas-keyboard-response","158","246048","0.0-6.0-5.21","526","","","","","make choice","2130","2","","","critical","d","t","c","158.0083","227.1683","164","240","240","164","spektor","0.09","h","164","240","240","164","158.0083","227.1683","39360","39360","35894.4834","td","null","null","null","null","null","null","[2,1]","","",""
"","canvas-keyboard-response","159","246066","0.0-6.0-6.21","526","","","","","clear_screen","null","null","","","critical","d","t","c","158.0083","227.1683","164","240","240","164","spektor","0.09","h","164","240","240","164","158.0083","227.1683","39360","39360","35894.4834","td","null","null","null","null","null","null","[2,1]","","",""
"","canvas-keyboard-response","160","246267","0.0-6.0-0.22","526","","","","","pre trial waiting period","null","null","","","catch","l","sw","sh","231","202","176","193","168","141","spektor","null","null","null","null","null","null","null","null","null","null","null","","180","200","260","200","36000","52000","[1,3]","482.02801819337265","165.5947942778903","537.8189849035547"
"","canvas-keyboard-response","161","246286","0.0-6.0-1.22","526","","","","","clear_screen","null","null","","","catch","l","sw","sh","231","202","176","193","168","141","spektor","null","null","null","null","null","null","null","null","null","null","null","","180","200","260","200","36000","52000","[1,3]","482.02801819337265","165.5947942778903","537.8189849035547"
"","canvas-keyboard-response","162","246798","0.0-6.0-2.22","526","","","","","rectangles no change","null","null","","","catch","l","sw","sh","231","202","176","193","168","141","spektor","null","null","null","null","null","null","null","null","null","null","null","","180","200","260","200","36000","52000","[1,3]","482.02801819337265","165.5947942778903","537.8189849035547"
"","canvas-keyboard-response","163","248133","0.0-6.0-3.22","526","","","","","rectangles with change","null","null","","","catch","l","sw","sh","231","202","176","193","168","141","spektor","null","null","null","null","null","null","null","null","null","null","null","","180","200","260","200","36000","52000","[1,3]","482.02801819337265","165.5947942778903","537.8189849035547"
"","canvas-keyboard-response","164","248151","0.0-6.0-4.22","526","","","","","clear_screen","null","null","","","catch","l","sw","sh","231","202","176","193","168","141","spektor","null","null","null","null","null","null","null","null","null","null","null","","180","200","260","200","36000","52000","[1,3]","482.02801819337265","165.5947942778903","537.8189849035547"
"","canvas-keyboard-response","165","249439","0.0-6.0-5.22","526","","","","","make choice","1281","1","","","catch","l","sw","sh","231","202","176","193","168","141","spektor","null","null","null","null","null","null","null","null","null","null","null","","180","200","260","200","36000","52000","[1,3]","","",""
"","canvas-keyboard-response","166","249458","0.0-6.0-6.22","526","","","","","clear_screen","null","null","","","catch","l","sw","sh","231","202","176","193","168","141","spektor","null","null","null","null","null","null","null","null","null","null","null","","180","200","260","200","36000","52000","[1,3]","","",""
"","canvas-keyboard-response","167","249660","0.0-6.0-0.23","526","","","","","pre trial waiting period","null","null","","","critical","t","c","d","164","240","240","164","154.6796","220.0396","trueblood","0.14","h","164","240","240","164","154.6796","220.0396","39360","39360","34035.6388","tc","null","null","null","null","null","null","[1,2]","421.00245164119065","508.7818494028749","445.34681562649797"
"","canvas-keyboard-response","168","249685","0.0-6.0-1.23","526","","","","","clear_screen","null","null","","","critical","t","c","d","164","240","240","164","154.6796","220.0396","trueblood","0.14","h","164","240","240","164","154.6796","220.0396","39360","39360","34035.6388","tc","null","null","null","null","null","null","[1,2]","421.00245164119065","508.7818494028749","445.34681562649797"
"","canvas-keyboard-response","169","250196","0.0-6.0-2.23","526","","","","","rectangles no change","null","null","","","critical","t","c","d","164","240","240","164","154.6796","220.0396","trueblood","0.14","h","164","240","240","164","154.6796","220.0396","39360","39360","34035.6388","tc","null","null","null","null","null","null","[1,2]","421.00245164119065","508.7818494028749","445.34681562649797"
"","canvas-keyboard-response","170","251530","0.0-6.0-3.23","526","","","","","rectangles with change","null","null","","","critical","t","c","d","164","240","240","164","154.6796","220.0396","trueblood","0.14","h","164","240","240","164","154.6796","220.0396","39360","39360","34035.6388","tc","null","null","null","null","null","null","[1,2]","421.00245164119065","508.7818494028749","445.34681562649797"
"","canvas-keyboard-response","171","251550","0.0-6.0-4.23","526","","","","","clear_screen","null","null","","","critical","t","c","d","164","240","240","164","154.6796","220.0396","trueblood","0.14","h","164","240","240","164","154.6796","220.0396","39360","39360","34035.6388","tc","null","null","null","null","null","null","[1,2]","421.00245164119065","508.7818494028749","445.34681562649797"
"","canvas-keyboard-response","172","252671","0.0-6.0-5.23","526","","","","","make choice","1113","2","","","critical","t","c","d","164","240","240","164","154.6796","220.0396","trueblood","0.14","h","164","240","240","164","154.6796","220.0396","39360","39360","34035.6388","tc","null","null","null","null","null","null","[1,2]","","",""
"","canvas-keyboard-response","173","252691","0.0-6.0-6.23","526","","","","","clear_screen","null","null","","","critical","t","c","d","164","240","240","164","154.6796","220.0396","trueblood","0.14","h","164","240","240","164","154.6796","220.0396","39360","39360","34035.6388","tc","null","null","null","null","null","null","[1,2]","","",""
"","canvas-keyboard-response","174","252892","0.0-6.0-0.24","526","","","","","pre trial waiting period","null","null","","","critical","d","c","t","158.0083","227.1683","240","164","164","240","spektor","0.09","h","164","240","240","164","158.0083","227.1683","39360","39360","35894.4834","tc","null","null","null","null","null","null","[3,2]","467.69674739278094","165.00281973478934","477.13763474117746"
"","canvas-keyboard-response","175","252911","0.0-6.0-1.24","526","","","","","clear_screen","null","null","","","critical","d","c","t","158.0083","227.1683","240","164","164","240","spektor","0.09","h","164","240","240","164","158.0083","227.1683","39360","39360","35894.4834","tc","null","null","null","null","null","null","[3,2]","467.69674739278094","165.00281973478934","477.13763474117746"
"","canvas-keyboard-response","176","253421","0.0-6.0-2.24","526","","","","","rectangles no change","null","null","","","critical","d","c","t","158.0083","227.1683","240","164","164","240","spektor","0.09","h","164","240","240","164","158.0083","227.1683","39360","39360","35894.4834","tc","null","null","null","null","null","null","[3,2]","467.69674739278094","165.00281973478934","477.13763474117746"
"","canvas-keyboard-response","177","254756","0.0-6.0-3.24","526","","","","","rectangles with change","null","null","","","critical","d","c","t","158.0083","227.1683","240","164","164","240","spektor","0.09","h","164","240","240","164","158.0083","227.1683","39360","39360","35894.4834","tc","null","null","null","null","null","null","[3,2]","467.69674739278094","165.00281973478934","477.13763474117746"
"","canvas-keyboard-response","178","254775","0.0-6.0-4.24","526","","","","","clear_screen","null","null","","","critical","d","c","t","158.0083","227.1683","240","164","164","240","spektor","0.09","h","164","240","240","164","158.0083","227.1683","39360","39360","35894.4834","tc","null","null","null","null","null","null","[3,2]","467.69674739278094","165.00281973478934","477.13763474117746"
"","canvas-keyboard-response","179","258103","0.0-6.0-5.24","526","","","","","make choice","3320","2","","","critical","d","c","t","158.0083","227.1683","240","164","164","240","spektor","0.09","h","164","240","240","164","158.0083","227.1683","39360","39360","35894.4834","tc","null","null","null","null","null","null","[3,2]","","",""
"","canvas-keyboard-response","180","258126","0.0-6.0-6.24","526","","","","","clear_screen","null","null","","","critical","d","c","t","158.0083","227.1683","240","164","164","240","spektor","0.09","h","164","240","240","164","158.0083","227.1683","39360","39360","35894.4834","tc","null","null","null","null","null","null","[3,2]","","",""
"","canvas-keyboard-response","181","258326","0.0-6.0-0.25","526","","","","","pre trial waiting period","null","null","","","critical","c","d","t","240","164","158.0083","227.1683","164","240","spektor","0.09","h","164","240","240","164","158.0083","227.1683","39360","39360","35894.4834","dc","null","null","null","null","null","null","[2,1]","495.93469722438584","112.60757170815944","503.9108705240056"
"","canvas-keyboard-response","182","258345","0.0-6.0-1.25","526","","","","","clear_screen","null","null","","","critical","c","d","t","240","164","158.0083","227.1683","164","240","spektor","0.09","h","164","240","240","164","158.0083","227.1683","39360","39360","35894.4834","dc","null","null","null","null","null","null","[2,1]","495.93469722438584","112.60757170815944","503.9108705240056"
"","canvas-keyboard-response","183","258859","0.0-6.0-2.25","526","","","","","rectangles no change","null","null","","","critical","c","d","t","240","164","158.0083","227.1683","164","240","spektor","0.09","h","164","240","240","164","158.0083","227.1683","39360","39360","35894.4834","dc","null","null","null","null","null","null","[2,1]","495.93469722438584","112.60757170815944","503.9108705240056"
"","canvas-keyboard-response","184","260195","0.0-6.0-3.25","526","","","","","rectangles with change","null","null","","","critical","c","d","t","240","164","158.0083","227.1683","164","240","spektor","0.09","h","164","240","240","164","158.0083","227.1683","39360","39360","35894.4834","dc","null","null","null","null","null","null","[2,1]","495.93469722438584","112.60757170815944","503.9108705240056"
"","canvas-keyboard-response","185","260214","0.0-6.0-4.25","526","","","","","clear_screen","null","null","","","critical","c","d","t","240","164","158.0083","227.1683","164","240","spektor","0.09","h","164","240","240","164","158.0083","227.1683","39360","39360","35894.4834","dc","null","null","null","null","null","null","[2,1]","495.93469722438584","112.60757170815944","503.9108705240056"
"","canvas-keyboard-response","186","262304","0.0-6.0-5.25","526","","","","","make choice","2081","1","","","critical","c","d","t","240","164","158.0083","227.1683","164","240","spektor","0.09","h","164","240","240","164","158.0083","227.1683","39360","39360","35894.4834","dc","null","null","null","null","null","null","[2,1]","","",""
"","canvas-keyboard-response","187","262322","0.0-6.0-6.25","526","","","","","clear_screen","null","null","","","critical","c","d","t","240","164","158.0083","227.1683","164","240","spektor","0.09","h","164","240","240","164","158.0083","227.1683","39360","39360","35894.4834","dc","null","null","null","null","null","null","[2,1]","","",""
"","canvas-keyboard-response","188","262523","0.0-6.0-0.26","526","","","","","pre trial waiting period","null","null","","","catch","sh","sw","l","219","198","206","165","233","282","spektor","null","null","null","null","null","null","null","null","null","null","null","","180","200","260","200","36000","52000","[1,3]","520.7643406463407","159.8305719370439","465.8369054117976"
"","canvas-keyboard-response","189","262544","0.0-6.0-1.26","526","","","","","clear_screen","null","null","","","catch","sh","sw","l","219","198","206","165","233","282","spektor","null","null","null","null","null","null","null","null","null","null","null","","180","200","260","200","36000","52000","[1,3]","520.7643406463407","159.8305719370439","465.8369054117976"
"","canvas-keyboard-response","190","263054","0.0-6.0-2.26","526","","","","","rectangles no change","null","null","","","catch","sh","sw","l","219","198","206","165","233","282","spektor","null","null","null","null","null","null","null","null","null","null","null","","180","200","260","200","36000","52000","[1,3]","520.7643406463407","159.8305719370439","465.8369054117976"
"","canvas-keyboard-response","191","264390","0.0-6.0-3.26","526","","","","","rectangles with change","null","null","","","catch","sh","sw","l","219","198","206","165","233","282","spektor","null","null","null","null","null","null","null","null","null","null","null","","180","200","260","200","36000","52000","[1,3]","520.7643406463407","159.8305719370439","465.8369054117976"
"","canvas-keyboard-response","192","264408","0.0-6.0-4.26","526","","","","","clear_screen","null","null","","","catch","sh","sw","l","219","198","206","165","233","282","spektor","null","null","null","null","null","null","null","null","null","null","null","","180","200","260","200","36000","52000","[1,3]","520.7643406463407","159.8305719370439","465.8369054117976"
"","canvas-keyboard-response","193","265495","0.0-6.0-5.26","526","","","","","make choice","1075","3","","","catch","sh","sw","l","219","198","206","165","233","282","spektor","null","null","null","null","null","null","null","null","null","null","null","","180","200","260","200","36000","52000","[1,3]","","",""
"","canvas-keyboard-response","194","265514","0.0-6.0-6.26","526","","","","","clear_screen","null","null","","","catch","sh","sw","l","219","198","206","165","233","282","spektor","null","null","null","null","null","null","null","null","null","null","null","","180","200","260","200","36000","52000","[1,3]","","",""
"","canvas-keyboard-response","195","265715","0.0-6.0-0.27","526","","","","","pre trial waiting period","null","null","","","catch","sh","l","sw","161","200","180","223","190","204","trueblood","null","null","null","null","null","null","null","null","null","null","null","","180","200","260","200","36000","52000","[2,3]","468.08580708572157","448.93125159270653","487.8951600634053"
"","canvas-keyboard-response","196","265734","0.0-6.0-1.27","526","","","","","clear_screen","null","null","","","catch","sh","l","sw","161","200","180","223","190","204","trueblood","null","null","null","null","null","null","null","null","null","null","null","","180","200","260","200","36000","52000","[2,3]","468.08580708572157","448.93125159270653","487.8951600634053"
"","canvas-keyboard-response","197","266246","0.0-6.0-2.27","526","","","","","rectangles no change","null","null","","","catch","sh","l","sw","161","200","180","223","190","204","trueblood","null","null","null","null","null","null","null","null","null","null","null","","180","200","260","200","36000","52000","[2,3]","468.08580708572157","448.93125159270653","487.8951600634053"
"","canvas-keyboard-response","198","267581","0.0-6.0-3.27","526","","","","","rectangles with change","null","null","","","catch","sh","l","sw","161","200","180","223","190","204","trueblood","null","null","null","null","null","null","null","null","null","null","null","","180","200","260","200","36000","52000","[2,3]","468.08580708572157","448.93125159270653","487.8951600634053"
"","canvas-keyboard-response","199","267599","0.0-6.0-4.27","526","","","","","clear_screen","null","null","","","catch","sh","l","sw","161","200","180","223","190","204","trueblood","null","null","null","null","null","null","null","null","null","null","null","","180","200","260","200","36000","52000","[2,3]","468.08580708572157","448.93125159270653","487.8951600634053"
"","canvas-keyboard-response","200","269544","0.0-6.0-5.27","526","","","","","make choice","1937","2","","","catch","sh","l","sw","161","200","180","223","190","204","trueblood","null","null","null","null","null","null","null","null","null","null","null","","180","200","260","200","36000","52000","[2,3]","","",""
"","canvas-keyboard-response","201","269562","0.0-6.0-6.27","526","","","","","clear_screen","null","null","","","catch","sh","l","sw","161","200","180","223","190","204","trueblood","null","null","null","null","null","null","null","null","null","null","null","","180","200","260","200","36000","52000","[2,3]","","",""
"","canvas-keyboard-response","202","269763","0.0-6.0-0.28","526","","","","","pre trial waiting period","null","null","","","critical","d","t","c","162.6685","237.1485","164","240","240","164","trueblood","0.02","h","164","240","240","164","162.6685","237.1485","39360","39360","38576.5967","td","null","null","null","null","null","null","[2,1]","443.36703984332763","421.7603603583664","507.7990904539048"
"","canvas-keyboard-response","203","269782","0.0-6.0-1.28","526","","","","","clear_screen","null","null","","","critical","d","t","c","162.6685","237.1485","164","240","240","164","trueblood","0.02","h","164","240","240","164","162.6685","237.1485","39360","39360","38576.5967","td","null","null","null","null","null","null","[2,1]","443.36703984332763","421.7603603583664","507.7990904539048"
"","canvas-keyboard-response","204","270295","0.0-6.0-2.28","526","","","","","rectangles no change","null","null","","","critical","d","t","c","162.6685","237.1485","164","240","240","164","trueblood","0.02","h","164","240","240","164","162.6685","237.1485","39360","39360","38576.5967","td","null","null","null","null","null","null","[2,1]","443.36703984332763","421.7603603583664","507.7990904539048"
"","canvas-keyboard-response","205","271629","0.0-6.0-3.28","526","","","","","rectangles with change","null","null","","","critical","d","t","c","162.6685","237.1485","164","240","240","164","trueblood","0.02","h","164","240","240","164","162.6685","237.1485","39360","39360","38576.5967","td","null","null","null","null","null","null","[2,1]","443.36703984332763","421.7603603583664","507.7990904539048"
"","canvas-keyboard-response","206","271647","0.0-6.0-4.28","526","","","","","clear_screen","null","null","","","critical","d","t","c","162.6685","237.1485","164","240","240","164","trueblood","0.02","h","164","240","240","164","162.6685","237.1485","39360","39360","38576.5967","td","null","null","null","null","null","null","[2,1]","443.36703984332763","421.7603603583664","507.7990904539048"
"","canvas-keyboard-response","207","272911","0.0-6.0-5.28","526","","","","","make choice","1256","1","","","critical","d","t","c","162.6685","237.1485","164","240","240","164","trueblood","0.02","h","164","240","240","164","162.6685","237.1485","39360","39360","38576.5967","td","null","null","null","null","null","null","[2,1]","","",""
"","canvas-keyboard-response","208","272929","0.0-6.0-6.28","526","","","","","clear_screen","null","null","","","critical","d","t","c","162.6685","237.1485","164","240","240","164","trueblood","0.02","h","164","240","240","164","162.6685","237.1485","39360","39360","38576.5967","td","null","null","null","null","null","null","[2,1]","","",""
"","canvas-keyboard-response","209","273131","0.0-6.0-0.29","526","","","","","pre trial waiting period","null","null","","","critical","c","t","d","240","164","164","240","162.6685","237.1485","trueblood","0.02","h","164","240","240","164","162.6685","237.1485","39360","39360","38576.5967","dc","null","null","null","null","null","null","[3,1]","484.9227468267719","427.2017570276191","460.7902577396767"
"","canvas-keyboard-response","210","273151","0.0-6.0-1.29","526","","","","","clear_screen","null","null","","","critical","c","t","d","240","164","164","240","162.6685","237.1485","trueblood","0.02","h","164","240","240","164","162.6685","237.1485","39360","39360","38576.5967","dc","null","null","null","null","null","null","[3,1]","484.9227468267719","427.2017570276191","460.7902577396767"
"","canvas-keyboard-response","211","273662","0.0-6.0-2.29","526","","","","","rectangles no change","null","null","","","critical","c","t","d","240","164","164","240","162.6685","237.1485","trueblood","0.02","h","164","240","240","164","162.6685","237.1485","39360","39360","38576.5967","dc","null","null","null","null","null","null","[3,1]","484.9227468267719","427.2017570276191","460.7902577396767"
"","canvas-keyboard-response","212","274996","0.0-6.0-3.29","526","","","","","rectangles with change","null","null","","","critical","c","t","d","240","164","164","240","162.6685","237.1485","trueblood","0.02","h","164","240","240","164","162.6685","237.1485","39360","39360","38576.5967","dc","null","null","null","null","null","null","[3,1]","484.9227468267719","427.2017570276191","460.7902577396767"
"","canvas-keyboard-response","213","275014","0.0-6.0-4.29","526","","","","","clear_screen","null","null","","","critical","c","t","d","240","164","164","240","162.6685","237.1485","trueblood","0.02","h","164","240","240","164","162.6685","237.1485","39360","39360","38576.5967","dc","null","null","null","null","null","null","[3,1]","484.9227468267719","427.2017570276191","460.7902577396767"
"","canvas-keyboard-response","214","276248","0.0-6.0-5.29","526","","","","","make choice","1224","1","","","critical","c","t","d","240","164","164","240","162.6685","237.1485","trueblood","0.02","h","164","240","240","164","162.6685","237.1485","39360","39360","38576.5967","dc","null","null","null","null","null","null","[3,1]","","",""
"","canvas-keyboard-response","215","276266","0.0-6.0-6.29","526","","","","","clear_screen","null","null","","","critical","c","t","d","240","164","164","240","162.6685","237.1485","trueblood","0.02","h","164","240","240","164","162.6685","237.1485","39360","39360","38576.5967","dc","null","null","null","null","null","null","[3,1]","","",""
"","canvas-keyboard-response","216","276468","0.0-6.0-0.30","526","","","","","pre trial waiting period","null","null","","","critical","t","c","d","240","164","164","240","240","164","spektor","0","w","240","164","164","240","240","164","39360","39360","39360","td","null","null","null","null","null","null","[1,3]","537.4488371878535","132.22813763547109","494.11206468534516"
"","canvas-keyboard-response","217","276491","0.0-6.0-1.30","526","","","","","clear_screen","null","null","","","critical","t","c","d","240","164","164","240","240","164","spektor","0","w","240","164","164","240","240","164","39360","39360","39360","td","null","null","null","null","null","null","[1,3]","537.4488371878535","132.22813763547109","494.11206468534516"
"","canvas-keyboard-response","218","277002","0.0-6.0-2.30","526","","","","","rectangles no change","null","null","","","critical","t","c","d","240","164","164","240","240","164","spektor","0","w","240","164","164","240","240","164","39360","39360","39360","td","null","null","null","null","null","null","[1,3]","537.4488371878535","132.22813763547109","494.11206468534516"
"","canvas-keyboard-response","219","278337","0.0-6.0-3.30","526","","","","","rectangles with change","null","null","","","critical","t","c","d","240","164","164","240","240","164","spektor","0","w","240","164","164","240","240","164","39360","39360","39360","td","null","null","null","null","null","null","[1,3]","537.4488371878535","132.22813763547109","494.11206468534516"
"","canvas-keyboard-response","220","278356","0.0-6.0-4.30","526","","","","","clear_screen","null","null","","","critical","t","c","d","240","164","164","240","240","164","spektor","0","w","240","164","164","240","240","164","39360","39360","39360","td","null","null","null","null","null","null","[1,3]","537.4488371878535","132.22813763547109","494.11206468534516"
"","canvas-keyboard-response","221","279064","0.0-6.0-5.30","526","","","","","make choice","701","1","","","critical","t","c","d","240","164","164","240","240","164","spektor","0","w","240","164","164","240","240","164","39360","39360","39360","td","null","null","null","null","null","null","[1,3]","","",""
"","canvas-keyboard-response","222","279084","0.0-6.0-6.30","526","","","","","clear_screen","null","null","","","critical","t","c","d","240","164","164","240","240","164","spektor","0","w","240","164","164","240","240","164","39360","39360","39360","td","null","null","null","null","null","null","[1,3]","","",""
"","canvas-keyboard-response","223","279286","0.0-6.0-0.31","526","","","","","pre trial waiting period","null","null","","","critical","t","d","c","240","164","227.1683","158.0083","164","240","trueblood","0.09","w","240","164","164","240","227.1683","158.0083","39360","39360","35894.4834","tc","null","null","null","null","null","null","[1,3]","513.2949497020073","501.2464871321388","441.589378510937"
"","canvas-keyboard-response","224","279305","0.0-6.0-1.31","526","","","","","clear_screen","null","null","","","critical","t","d","c","240","164","227.1683","158.0083","164","240","trueblood","0.09","w","240","164","164","240","227.1683","158.0083","39360","39360","35894.4834","tc","null","null","null","null","null","null","[1,3]","513.2949497020073","501.2464871321388","441.589378510937"
"","canvas-keyboard-response","225","279815","0.0-6.0-2.31","526","","","","","rectangles no change","null","null","","","critical","t","d","c","240","164","227.1683","158.0083","164","240","trueblood","0.09","w","240","164","164","240","227.1683","158.0083","39360","39360","35894.4834","tc","null","null","null","null","null","null","[1,3]","513.2949497020073","501.2464871321388","441.589378510937"
"","canvas-keyboard-response","226","281149","0.0-6.0-3.31","526","","","","","rectangles with change","null","null","","","critical","t","d","c","240","164","227.1683","158.0083","164","240","trueblood","0.09","w","240","164","164","240","227.1683","158.0083","39360","39360","35894.4834","tc","null","null","null","null","null","null","[1,3]","513.2949497020073","501.2464871321388","441.589378510937"
"","canvas-keyboard-response","227","281171","0.0-6.0-4.31","526","","","","","clear_screen","null","null","","","critical","t","d","c","240","164","227.1683","158.0083","164","240","trueblood","0.09","w","240","164","164","240","227.1683","158.0083","39360","39360","35894.4834","tc","null","null","null","null","null","null","[1,3]","513.2949497020073","501.2464871321388","441.589378510937"
"","canvas-keyboard-response","228","282936","0.0-6.0-5.31","526","","","","","make choice","1756","1","","","critical","t","d","c","240","164","227.1683","158.0083","164","240","trueblood","0.09","w","240","164","164","240","227.1683","158.0083","39360","39360","35894.4834","tc","null","null","null","null","null","null","[1,3]","","",""
"","canvas-keyboard-response","229","282956","0.0-6.0-6.31","526","","","","","clear_screen","null","null","","","critical","t","d","c","240","164","227.1683","158.0083","164","240","trueblood","0.09","w","240","164","164","240","227.1683","158.0083","39360","39360","35894.4834","tc","null","null","null","null","null","null","[1,3]","","",""
"","canvas-keyboard-response","230","283157","0.0-6.0-0.32","526","","","","","pre trial waiting period","null","null","","","catch","sh","sw","l","192","207","176","185","162","238","trueblood","null","null","null","null","null","null","null","null","null","null","null","","180","200","260","200","36000","52000","[2,3]","440.6773714723272","504.660165254886","438.3817443960535"
"","canvas-keyboard-response","231","283177","0.0-6.0-1.32","526","","","","","clear_screen","null","null","","","catch","sh","sw","l","192","207","176","185","162","238","trueblood","null","null","null","null","null","null","null","null","null","null","null","","180","200","260","200","36000","52000","[2,3]","440.6773714723272","504.660165254886","438.3817443960535"
"","canvas-keyboard-response","232","283692","0.0-6.0-2.32","526","","","","","rectangles no change","null","null","","","catch","sh","sw","l","192","207","176","185","162","238","trueblood","null","null","null","null","null","null","null","null","null","null","null","","180","200","260","200","36000","52000","[2,3]","440.6773714723272","504.660165254886","438.3817443960535"
"","canvas-keyboard-response","233","285029","0.0-6.0-3.32","526","","","","","rectangles with change","null","null","","","catch","sh","sw","l","192","207","176","185","162","238","trueblood","null","null","null","null","null","null","null","null","null","null","null","","180","200","260","200","36000","52000","[2,3]","440.6773714723272","504.660165254886","438.3817443960535"
"","canvas-keyboard-response","234","285047","0.0-6.0-4.32","526","","","","","clear_screen","null","null","","","catch","sh","sw","l","192","207","176","185","162","238","trueblood","null","null","null","null","null","null","null","null","null","null","null","","180","200","260","200","36000","52000","[2,3]","440.6773714723272","504.660165254886","438.3817443960535"
"","canvas-keyboard-response","235","299056","0.0-6.0-5.32","526","","","","","make choice","14000","3","","","catch","sh","sw","l","192","207","176","185","162","238","trueblood","null","null","null","null","null","null","null","null","null","null","null","","180","200","260","200","36000","52000","[2,3]","","",""
"","canvas-keyboard-response","236","299075","0.0-6.0-6.32","526","","","","","clear_screen","null","null","","","catch","sh","sw","l","192","207","176","185","162","238","trueblood","null","null","null","null","null","null","null","null","null","null","null","","180","200","260","200","36000","52000","[2,3]","","",""
"","canvas-keyboard-response","237","299277","0.0-6.0-0.33","526","","","","","pre trial waiting period","null","null","","","catch","sw","l","sh","180","200","207","238","170","184","trueblood","null","null","null","null","null","null","null","null","null","null","null","","180","200","260","200","36000","52000","[1,2]","468.8835289738229","433.7923618440358","495.65134943343423"
"","canvas-keyboard-response","238","299300","0.0-6.0-1.33","526","","","","","clear_screen","null","null","","","catch","sw","l","sh","180","200","207","238","170","184","trueblood","null","null","null","null","null","null","null","null","null","null","null","","180","200","260","200","36000","52000","[1,2]","468.8835289738229","433.7923618440358","495.65134943343423"
"","canvas-keyboard-response","239","299818","0.0-6.0-2.33","526","","","","","rectangles no change","null","null","","","catch","sw","l","sh","180","200","207","238","170","184","trueblood","null","null","null","null","null","null","null","null","null","null","null","","180","200","260","200","36000","52000","[1,2]","468.8835289738229","433.7923618440358","495.65134943343423"
"","canvas-keyboard-response","240","301154","0.0-6.0-3.33","526","","","","","rectangles with change","null","null","","","catch","sw","l","sh","180","200","207","238","170","184","trueblood","null","null","null","null","null","null","null","null","null","null","null","","180","200","260","200","36000","52000","[1,2]","468.8835289738229","433.7923618440358","495.65134943343423"
"","canvas-keyboard-response","241","301173","0.0-6.0-4.33","526","","","","","clear_screen","null","null","","","catch","sw","l","sh","180","200","207","238","170","184","trueblood","null","null","null","null","null","null","null","null","null","null","null","","180","200","260","200","36000","52000","[1,2]","468.8835289738229","433.7923618440358","495.65134943343423"
"","canvas-keyboard-response","242","302335","0.0-6.0-5.33","526","","","","","make choice","1155","2","","","catch","sw","l","sh","180","200","207","238","170","184","trueblood","null","null","null","null","null","null","null","null","null","null","null","","180","200","260","200","36000","52000","[1,2]","","",""
"","canvas-keyboard-response","243","302354","0.0-6.0-6.33","526","","","","","clear_screen","null","null","","","catch","sw","l","sh","180","200","207","238","170","184","trueblood","null","null","null","null","null","null","null","null","null","null","null","","180","200","260","200","36000","52000","[1,2]","","",""
"","canvas-keyboard-response","244","302555","0.0-6.0-0.34","526","","","","","pre trial waiting period","null","null","","","critical","c","t","d","164","240","240","164","227.1683","158.0083","trueblood","0.09","w","240","164","164","240","227.1683","158.0083","39360","39360","35894.4834","dc","null","null","null","null","null","null","[3,1]","422.1599020781954","477.55416792108105","473.99585156209366"
"","canvas-keyboard-response","245","302576","0.0-6.0-1.34","526","","","","","clear_screen","null","null","","","critical","c","t","d","164","240","240","164","227.1683","158.0083","trueblood","0.09","w","240","164","164","240","227.1683","158.0083","39360","39360","35894.4834","dc","null","null","null","null","null","null","[3,1]","422.1599020781954","477.55416792108105","473.99585156209366"
"","canvas-keyboard-response","246","303086","0.0-6.0-2.34","526","","","","","rectangles no change","null","null","","","critical","c","t","d","164","240","240","164","227.1683","158.0083","trueblood","0.09","w","240","164","164","240","227.1683","158.0083","39360","39360","35894.4834","dc","null","null","null","null","null","null","[3,1]","422.1599020781954","477.55416792108105","473.99585156209366"
"","canvas-keyboard-response","247","304421","0.0-6.0-3.34","526","","","","","rectangles with change","null","null","","","critical","c","t","d","164","240","240","164","227.1683","158.0083","trueblood","0.09","w","240","164","164","240","227.1683","158.0083","39360","39360","35894.4834","dc","null","null","null","null","null","null","[3,1]","422.1599020781954","477.55416792108105","473.99585156209366"
"","canvas-keyboard-response","248","304440","0.0-6.0-4.34","526","","","","","clear_screen","null","null","","","critical","c","t","d","164","240","240","164","227.1683","158.0083","trueblood","0.09","w","240","164","164","240","227.1683","158.0083","39360","39360","35894.4834","dc","null","null","null","null","null","null","[3,1]","422.1599020781954","477.55416792108105","473.99585156209366"
"","canvas-keyboard-response","249","305560","0.0-6.0-5.34","526","","","","","make choice","1113","1","","","critical","c","t","d","164","240","240","164","227.1683","158.0083","trueblood","0.09","w","240","164","164","240","227.1683","158.0083","39360","39360","35894.4834","dc","null","null","null","null","null","null","[3,1]","","",""
"","canvas-keyboard-response","250","305579","0.0-6.0-6.34","526","","","","","clear_screen","null","null","","","critical","c","t","d","164","240","240","164","227.1683","158.0083","trueblood","0.09","w","240","164","164","240","227.1683","158.0083","39360","39360","35894.4834","dc","null","null","null","null","null","null","[3,1]","","",""
"","canvas-keyboard-response","251","305780","0.0-6.0-0.35","526","","","","","pre trial waiting period","null","null","","","catch","sh","sw","l","215","183","182","188","204","298","trueblood","null","null","null","null","null","null","null","null","null","null","null","","180","200","260","200","36000","52000","[1,3]","502.34431480951537","460.5105694028306","428.77858794175415"
"","canvas-keyboard-response","252","305803","0.0-6.0-1.35","526","","","","","clear_screen","null","null","","","catch","sh","sw","l","215","183","182","188","204","298","trueblood","null","null","null","null","null","null","null","null","null","null","null","","180","200","260","200","36000","52000","[1,3]","502.34431480951537","460.5105694028306","428.77858794175415"
"","canvas-keyboard-response","253","306314","0.0-6.0-2.35","526","","","","","rectangles no change","null","null","","","catch","sh","sw","l","215","183","182","188","204","298","trueblood","null","null","null","null","null","null","null","null","null","null","null","","180","200","260","200","36000","52000","[1,3]","502.34431480951537","460.5105694028306","428.77858794175415"
"","canvas-keyboard-response","254","307649","0.0-6.0-3.35","526","","","","","rectangles with change","null","null","","","catch","sh","sw","l","215","183","182","188","204","298","trueblood","null","null","null","null","null","null","null","null","null","null","null","","180","200","260","200","36000","52000","[1,3]","502.34431480951537","460.5105694028306","428.77858794175415"
"","canvas-keyboard-response","255","307667","0.0-6.0-4.35","526","","","","","clear_screen","null","null","","","catch","sh","sw","l","215","183","182","188","204","298","trueblood","null","null","null","null","null","null","null","null","null","null","null","","180","200","260","200","36000","52000","[1,3]","502.34431480951537","460.5105694028306","428.77858794175415"
"","canvas-keyboard-response","256","308583","0.0-6.0-5.35","526","","","","","make choice","909","3","","","catch","sh","sw","l","215","183","182","188","204","298","trueblood","null","null","null","null","null","null","null","null","null","null","null","","180","200","260","200","36000","52000","[1,3]","","",""
"","canvas-keyboard-response","257","308602","0.0-6.0-6.35","526","","","","","clear_screen","null","null","","","catch","sh","sw","l","215","183","182","188","204","298","trueblood","null","null","null","null","null","null","null","null","null","null","null","","180","200","260","200","36000","52000","[1,3]","","",""
"","canvas-keyboard-response","258","308803","0.0-6.0-0.36","526","","","","","pre trial waiting period","null","null","","","catch","sh","sw","l","177","140","190","164","163","244","spektor","null","null","null","null","null","null","null","null","null","null","null","","180","200","260","200","36000","52000","[1,3]","515.9355091666829","220.9658944073567","496.69610120479877"
"","canvas-keyboard-response","259","308824","0.0-6.0-1.36","526","","","","","clear_screen","null","null","","","catch","sh","sw","l","177","140","190","164","163","244","spektor","null","null","null","null","null","null","null","null","null","null","null","","180","200","260","200","36000","52000","[1,3]","515.9355091666829","220.9658944073567","496.69610120479877"
"","canvas-keyboard-response","260","309336","0.0-6.0-2.36","526","","","","","rectangles no change","null","null","","","catch","sh","sw","l","177","140","190","164","163","244","spektor","null","null","null","null","null","null","null","null","null","null","null","","180","200","260","200","36000","52000","[1,3]","515.9355091666829","220.9658944073567","496.69610120479877"
"","canvas-keyboard-response","261","310670","0.0-6.0-3.36","526","","","","","rectangles with change","null","null","","","catch","sh","sw","l","177","140","190","164","163","244","spektor","null","null","null","null","null","null","null","null","null","null","null","","180","200","260","200","36000","52000","[1,3]","515.9355091666829","220.9658944073567","496.69610120479877"
"","canvas-keyboard-response","262","310693","0.0-6.0-4.36","526","","","","","clear_screen","null","null","","","catch","sh","sw","l","177","140","190","164","163","244","spektor","null","null","null","null","null","null","null","null","null","null","null","","180","200","260","200","36000","52000","[1,3]","515.9355091666829","220.9658944073567","496.69610120479877"
"","canvas-keyboard-response","263","311463","0.0-6.0-5.36","526","","","","","make choice","762","3","","","catch","sh","sw","l","177","140","190","164","163","244","spektor","null","null","null","null","null","null","null","null","null","null","null","","180","200","260","200","36000","52000","[1,3]","","",""
"","canvas-keyboard-response","264","311483","0.0-6.0-6.36","526","","","","","clear_screen","null","null","","","catch","sh","sw","l","177","140","190","164","163","244","spektor","null","null","null","null","null","null","null","null","null","null","null","","180","200","260","200","36000","52000","[1,3]","","",""
"","canvas-keyboard-response","265","311685","0.0-6.0-0.37","526","","","","","pre trial waiting period","null","null","","","critical","c","t","d","240","164","164","240","154.6796","220.0396","spektor","0.14","h","164","240","240","164","154.6796","220.0396","39360","39360","34035.6388","dc","null","null","null","null","null","null","[3,1]","522.5041860510013","123.19171575877631","485.7317221228762"
"","canvas-keyboard-response","266","311704","0.0-6.0-1.37","526","","","","","clear_screen","null","null","","","critical","c","t","d","240","164","164","240","154.6796","220.0396","spektor","0.14","h","164","240","240","164","154.6796","220.0396","39360","39360","34035.6388","dc","null","null","null","null","null","null","[3,1]","522.5041860510013","123.19171575877631","485.7317221228762"
