"success","trial_type","trial_index","time_elapsed","internal_node_id","sub_n","timeout","failed_images","failed_audio","failed_video","screen_id","rt","response","stimulus","view_history","trial","r1","r2","r3","w1","h1","w2","h2","w3","h3","display","tdd","tdo","tw","th","cw","ch","dw","dh","ta","ca","da","probe","csls","csss","clls","clss","sa","la","probe_rects","r1yloc","r2yloc","r3yloc"
"true","fullscreen","0","4326","0.0-0.0","510","","","","","","","","","","","","","","","","","","","","","","","","","","","","","","","","","","","","","","","","","",""
"true","preload","1","4410","0.0-1.0","510","false","[]","[]","[]","img preload","","","","","","","","","","","","","","","","","","","","","","","","","","","","","","","","","","","","",""
"","survey-html-form","2","7856","0.0-2.0","510","","","","","enter-sub-number","3436","{""response"":""510""}","","","","","","","","","","","","","","","","","","","","","","","","","","","","","","","","","","",""
"","image-button-response","3","14390","0.0-3.0","510","","","","","","6467","0","consent.png","","","","","","","","","","","","","","","","","","","","","","","","","","","","","","","","","",""
"","html-button-response","4","20628","0.0-4.0","510","","","","","intro mssg","6232","0","<div style= ""font-size:25px;"" <p> <strong> Welcome! </strong><br> <p style=""color:#8B0000; font-size:25px;""><strong> Please do NOT exit full screen until you are done with the experiment. </strong> </p><p style=""font-size:25px;color:#8B0000;""> <strong> Your data will be lost <br> if you try to go back or refresh the page after the experiment starts. Feel free to click ""previous"" during the instructions, however.</strong> </p><br><p> <strong> Thanks in advance for your contribution to our research! </strong></p>","","","","","","","","","","","","","","","","","","","","","","","","","","","","","","","","","",""
"","instructions","5","58004","0.0-5.0","510","","","","","instructions","37372","","","[{""page_index"":0,""viewing_time"":7804},{""page_index"":1,""viewing_time"":8127},{""page_index"":2,""viewing_time"":2906},{""page_index"":3,""viewing_time"":8438},{""page_index"":4,""viewing_time"":6058},{""page_index"":5,""viewing_time"":1623},{""page_index"":6,""viewing_time"":1687},{""page_index"":7,""viewing_time"":729}]","","","","","","","","","","","","","","","","","","","","","","","","","","","","","","","","",""
"","canvas-keyboard-response","6","58208","0.0-6.0-0.0","510","","","","","pre trial waiting period","null","null","","","critical","c","t","d","240","164","164","240","164","240","spektor","0","h","164","240","240","164","164","240","39360","39360","39360","dc","null","null","null","null","null","null","[3,1]","508.87809354793444","101.59340127735817","500.47627068773227"
"","canvas-keyboard-response","7","58233","0.0-6.0-1.0","510","","","","","clear_screen","null","null","","","critical","c","t","d","240","164","164","240","164","240","spektor","0","h","164","240","240","164","164","240","39360","39360","39360","dc","null","null","null","null","null","null","[3,1]","508.87809354793444","101.59340127735817","500.47627068773227"
"","canvas-keyboard-response","8","58745","0.0-6.0-2.0","510","","","","","rectangles no change","null","null","","","critical","c","t","d","240","164","164","240","164","240","spektor","0","h","164","240","240","164","164","240","39360","39360","39360","dc","null","null","null","null","null","null","[3,1]","508.87809354793444","101.59340127735817","500.47627068773227"
"","canvas-keyboard-response","9","60076","0.0-6.0-3.0","510","","","","","rectangles with change","null","null","","","critical","c","t","d","240","164","164","240","164","240","spektor","0","h","164","240","240","164","164","240","39360","39360","39360","dc","null","null","null","null","null","null","[3,1]","508.87809354793444","101.59340127735817","500.47627068773227"
"","canvas-keyboard-response","10","60096","0.0-6.0-4.0","510","","","","","clear_screen","null","null","","","critical","c","t","d","240","164","164","240","164","240","spektor","0","h","164","240","240","164","164","240","39360","39360","39360","dc","null","null","null","null","null","null","[3,1]","508.87809354793444","101.59340127735817","500.47627068773227"
"","canvas-keyboard-response","11","62612","0.0-6.0-5.0","510","","","","","make choice","2508","3","","","critical","c","t","d","240","164","164","240","164","240","spektor","0","h","164","240","240","164","164","240","39360","39360","39360","dc","null","null","null","null","null","null","[3,1]","","",""
"","canvas-keyboard-response","12","62633","0.0-6.0-6.0","510","","","","","clear_screen","null","null","","","critical","c","t","d","240","164","164","240","164","240","spektor","0","h","164","240","240","164","164","240","39360","39360","39360","dc","null","null","null","null","null","null","[3,1]","","",""
"","canvas-keyboard-response","13","62834","0.0-6.0-0.1","510","","","","","pre trial waiting period","null","null","","","critical","t","d","c","240","164","240","164","164","240","trueblood","0","w","240","164","164","240","240","164","39360","39360","39360","dc","null","null","null","null","null","null","[2,3]","502.26023114529437","495.18679231323995","427.06582763226584"
"","canvas-keyboard-response","14","62853","0.0-6.0-1.1","510","","","","","clear_screen","null","null","","","critical","t","d","c","240","164","240","164","164","240","trueblood","0","w","240","164","164","240","240","164","39360","39360","39360","dc","null","null","null","null","null","null","[2,3]","502.26023114529437","495.18679231323995","427.06582763226584"
"","canvas-keyboard-response","15","63363","0.0-6.0-2.1","510","","","","","rectangles no change","null","null","","","critical","t","d","c","240","164","240","164","164","240","trueblood","0","w","240","164","164","240","240","164","39360","39360","39360","dc","null","null","null","null","null","null","[2,3]","502.26023114529437","495.18679231323995","427.06582763226584"
"","canvas-keyboard-response","16","64700","0.0-6.0-3.1","510","","","","","rectangles with change","null","null","","","critical","t","d","c","240","164","240","164","164","240","trueblood","0","w","240","164","164","240","240","164","39360","39360","39360","dc","null","null","null","null","null","null","[2,3]","502.26023114529437","495.18679231323995","427.06582763226584"
"","canvas-keyboard-response","17","64719","0.0-6.0-4.1","510","","","","","clear_screen","null","null","","","critical","t","d","c","240","164","240","164","164","240","trueblood","0","w","240","164","164","240","240","164","39360","39360","39360","dc","null","null","null","null","null","null","[2,3]","502.26023114529437","495.18679231323995","427.06582763226584"
"","canvas-keyboard-response","18","66356","0.0-6.0-5.1","510","","","","","make choice","1623","3","","","critical","t","d","c","240","164","240","164","164","240","trueblood","0","w","240","164","164","240","240","164","39360","39360","39360","dc","null","null","null","null","null","null","[2,3]","","",""
"","canvas-keyboard-response","19","66377","0.0-6.0-6.1","510","","","","","clear_screen","null","null","","","critical","t","d","c","240","164","240","164","164","240","trueblood","0","w","240","164","164","240","240","164","39360","39360","39360","dc","null","null","null","null","null","null","[2,3]","","",""
"","canvas-keyboard-response","20","66578","0.0-6.0-0.2","510","","","","","pre trial waiting period","null","null","","","catch","l","sh","sw","276","235","184","209","160","226","spektor","null","null","null","null","null","null","null","null","null","null","null","","180","200","260","200","36000","52000","[1,2]","475.2205869771547","127.73709385576909","486.8345461333944"
"","canvas-keyboard-response","21","66598","0.0-6.0-1.2","510","","","","","clear_screen","null","null","","","catch","l","sh","sw","276","235","184","209","160","226","spektor","null","null","null","null","null","null","null","null","null","null","null","","180","200","260","200","36000","52000","[1,2]","475.2205869771547","127.73709385576909","486.8345461333944"
"","canvas-keyboard-response","22","67105","0.0-6.0-2.2","510","","","","","rectangles no change","null","null","","","catch","l","sh","sw","276","235","184","209","160","226","spektor","null","null","null","null","null","null","null","null","null","null","null","","180","200","260","200","36000","52000","[1,2]","475.2205869771547","127.73709385576909","486.8345461333944"
"","canvas-keyboard-response","23","68435","0.0-6.0-3.2","510","","","","","rectangles with change","null","null","","","catch","l","sh","sw","276","235","184","209","160","226","spektor","null","null","null","null","null","null","null","null","null","null","null","","180","200","260","200","36000","52000","[1,2]","475.2205869771547","127.73709385576909","486.8345461333944"
"","canvas-keyboard-response","24","68454","0.0-6.0-4.2","510","","","","","clear_screen","null","null","","","catch","l","sh","sw","276","235","184","209","160","226","spektor","null","null","null","null","null","null","null","null","null","null","null","","180","200","260","200","36000","52000","[1,2]","475.2205869771547","127.73709385576909","486.8345461333944"
"","canvas-keyboard-response","25","69316","0.0-6.0-5.2","510","","","","","make choice","857","1","","","catch","l","sh","sw","276","235","184","209","160","226","spektor","null","null","null","null","null","null","null","null","null","null","null","","180","200","260","200","36000","52000","[1,2]","","",""
"","canvas-keyboard-response","26","69335","0.0-6.0-6.2","510","","","","","clear_screen","null","null","","","catch","l","sh","sw","276","235","184","209","160","226","spektor","null","null","null","null","null","null","null","null","null","null","null","","180","200","260","200","36000","52000","[1,2]","","",""
"","canvas-keyboard-response","27","69536","0.0-6.0-0.3","510","","","","","pre trial waiting period","null","null","","","critical","t","d","c","240","164","227.1683","158.0083","164","240","trueblood","0.09","w","240","164","164","240","227.1683","158.0083","39360","39360","35894.4834","tc","null","null","null","null","null","null","[1,3]","495.1346013801","478.3235083023754","431.6038222381696"
"","canvas-keyboard-response","28","69559","0.0-6.0-1.3","510","","","","","clear_screen","null","null","","","critical","t","d","c","240","164","227.1683","158.0083","164","240","trueblood","0.09","w","240","164","164","240","227.1683","158.0083","39360","39360","35894.4834","tc","null","null","null","null","null","null","[1,3]","495.1346013801","478.3235083023754","431.6038222381696"
"","canvas-keyboard-response","29","70067","0.0-6.0-2.3","510","","","","","rectangles no change","null","null","","","critical","t","d","c","240","164","227.1683","158.0083","164","240","trueblood","0.09","w","240","164","164","240","227.1683","158.0083","39360","39360","35894.4834","tc","null","null","null","null","null","null","[1,3]","495.1346013801","478.3235083023754","431.6038222381696"
"","canvas-keyboard-response","30","71403","0.0-6.0-3.3","510","","","","","rectangles with change","null","null","","","critical","t","d","c","240","164","227.1683","158.0083","164","240","trueblood","0.09","w","240","164","164","240","227.1683","158.0083","39360","39360","35894.4834","tc","null","null","null","null","null","null","[1,3]","495.1346013801","478.3235083023754","431.6038222381696"
"","canvas-keyboard-response","31","71424","0.0-6.0-4.3","510","","","","","clear_screen","null","null","","","critical","t","d","c","240","164","227.1683","158.0083","164","240","trueblood","0.09","w","240","164","164","240","227.1683","158.0083","39360","39360","35894.4834","tc","null","null","null","null","null","null","[1,3]","495.1346013801","478.3235083023754","431.6038222381696"
"","canvas-keyboard-response","32","73242","0.0-6.0-5.3","510","","","","","make choice","1816","3","","","critical","t","d","c","240","164","227.1683","158.0083","164","240","trueblood","0.09","w","240","164","164","240","227.1683","158.0083","39360","39360","35894.4834","tc","null","null","null","null","null","null","[1,3]","","",""
"","canvas-keyboard-response","33","73259","0.0-6.0-6.3","510","","","","","clear_screen","null","null","","","critical","t","d","c","240","164","227.1683","158.0083","164","240","trueblood","0.09","w","240","164","164","240","227.1683","158.0083","39360","39360","35894.4834","tc","null","null","null","null","null","null","[1,3]","","",""
"","canvas-keyboard-response","34","73461","0.0-6.0-0.4","510","","","","","pre trial waiting period","null","null","","","catch","l","sh","sw","226","217","173","201","217","233","spektor","null","null","null","null","null","null","null","null","null","null","null","","180","200","260","200","36000","52000","[1,3]","475.57594375519517","127.87053980005449","500.8300726153909"
"","canvas-keyboard-response","35","73480","0.0-6.0-1.4","510","","","","","clear_screen","null","null","","","catch","l","sh","sw","226","217","173","201","217","233","spektor","null","null","null","null","null","null","null","null","null","null","null","","180","200","260","200","36000","52000","[1,3]","475.57594375519517","127.87053980005449","500.8300726153909"
"","canvas-keyboard-response","36","73990","0.0-6.0-2.4","510","","","","","rectangles no change","null","null","","","catch","l","sh","sw","226","217","173","201","217","233","spektor","null","null","null","null","null","null","null","null","null","null","null","","180","200","260","200","36000","52000","[1,3]","475.57594375519517","127.87053980005449","500.8300726153909"
"","canvas-keyboard-response","37","75326","0.0-6.0-3.4","510","","","","","rectangles with change","null","null","","","catch","l","sh","sw","226","217","173","201","217","233","spektor","null","null","null","null","null","null","null","null","null","null","null","","180","200","260","200","36000","52000","[1,3]","475.57594375519517","127.87053980005449","500.8300726153909"
"","canvas-keyboard-response","38","75349","0.0-6.0-4.4","510","","","","","clear_screen","null","null","","","catch","l","sh","sw","226","217","173","201","217","233","spektor","null","null","null","null","null","null","null","null","null","null","null","","180","200","260","200","36000","52000","[1,3]","475.57594375519517","127.87053980005449","500.8300726153909"
"","canvas-keyboard-response","39","76677","0.0-6.0-5.4","510","","","","","make choice","1323","1","","","catch","l","sh","sw","226","217","173","201","217","233","spektor","null","null","null","null","null","null","null","null","null","null","null","","180","200","260","200","36000","52000","[1,3]","","",""
"","canvas-keyboard-response","40","76697","0.0-6.0-6.4","510","","","","","clear_screen","null","null","","","catch","l","sh","sw","226","217","173","201","217","233","spektor","null","null","null","null","null","null","null","null","null","null","null","","180","200","260","200","36000","52000","[1,3]","","",""
"","canvas-keyboard-response","41","76898","0.0-6.0-0.5","510","","","","","pre trial waiting period","null","null","","","critical","t","d","c","164","240","160.6713","232.8713","240","164","trueblood","0.05","h","164","240","240","164","160.6713","232.8713","39360","39360","37415.7294","tc","null","null","null","null","null","null","[1,3]","452.3716227851112","450.97705271842693","510.6407452975865"
"","canvas-keyboard-response","42","76919","0.0-6.0-1.5","510","","","","","clear_screen","null","null","","","critical","t","d","c","164","240","160.6713","232.8713","240","164","trueblood","0.05","h","164","240","240","164","160.6713","232.8713","39360","39360","37415.7294","tc","null","null","null","null","null","null","[1,3]","452.3716227851112","450.97705271842693","510.6407452975865"
"","canvas-keyboard-response","43","77425","0.0-6.0-2.5","510","","","","","rectangles no change","null","null","","","critical","t","d","c","164","240","160.6713","232.8713","240","164","trueblood","0.05","h","164","240","240","164","160.6713","232.8713","39360","39360","37415.7294","tc","null","null","null","null","null","null","[1,3]","452.3716227851112","450.97705271842693","510.6407452975865"
"","canvas-keyboard-response","44","78762","0.0-6.0-3.5","510","","","","","rectangles with change","null","null","","","critical","t","d","c","164","240","160.6713","232.8713","240","164","trueblood","0.05","h","164","240","240","164","160.6713","232.8713","39360","39360","37415.7294","tc","null","null","null","null","null","null","[1,3]","452.3716227851112","450.97705271842693","510.6407452975865"
"","canvas-keyboard-response","45","78785","0.0-6.0-4.5","510","","","","","clear_screen","null","null","","","critical","t","d","c","164","240","160.6713","232.8713","240","164","trueblood","0.05","h","164","240","240","164","160.6713","232.8713","39360","39360","37415.7294","tc","null","null","null","null","null","null","[1,3]","452.3716227851112","450.97705271842693","510.6407452975865"
"","canvas-keyboard-response","46","79538","0.0-6.0-5.5","510","","","","","make choice","745","3","","","critical","t","d","c","164","240","160.6713","232.8713","240","164","trueblood","0.05","h","164","240","240","164","160.6713","232.8713","39360","39360","37415.7294","tc","null","null","null","null","null","null","[1,3]","","",""
"","canvas-keyboard-response","47","79559","0.0-6.0-6.5","510","","","","","clear_screen","null","null","","","critical","t","d","c","164","240","160.6713","232.8713","240","164","trueblood","0.05","h","164","240","240","164","160.6713","232.8713","39360","39360","37415.7294","tc","null","null","null","null","null","null","[1,3]","","",""
"","canvas-keyboard-response","48","79760","0.0-6.0-0.6","510","","","","","pre trial waiting period","null","null","","","catch","sw","l","sh","180","200","228","183","183","211","trueblood","null","null","null","null","null","null","null","null","null","null","null","","180","200","260","200","36000","52000","[2,3]","459.0794123183005","472.5545546947934","473.5933765387341"
"","canvas-keyboard-response","49","79783","0.0-6.0-1.6","510","","","","","clear_screen","null","null","","","catch","sw","l","sh","180","200","228","183","183","211","trueblood","null","null","null","null","null","null","null","null","null","null","null","","180","200","260","200","36000","52000","[2,3]","459.0794123183005","472.5545546947934","473.5933765387341"
"","canvas-keyboard-response","50","80290","0.0-6.0-2.6","510","","","","","rectangles no change","null","null","","","catch","sw","l","sh","180","200","228","183","183","211","trueblood","null","null","null","null","null","null","null","null","null","null","null","","180","200","260","200","36000","52000","[2,3]","459.0794123183005","472.5545546947934","473.5933765387341"
"","canvas-keyboard-response","51","81625","0.0-6.0-3.6","510","","","","","rectangles with change","null","null","","","catch","sw","l","sh","180","200","228","183","183","211","trueblood","null","null","null","null","null","null","null","null","null","null","null","","180","200","260","200","36000","52000","[2,3]","459.0794123183005","472.5545546947934","473.5933765387341"
"","canvas-keyboard-response","52","81647","0.0-6.0-4.6","510","","","","","clear_screen","null","null","","","catch","sw","l","sh","180","200","228","183","183","211","trueblood","null","null","null","null","null","null","null","null","null","null","null","","180","200","260","200","36000","52000","[2,3]","459.0794123183005","472.5545546947934","473.5933765387341"
"","canvas-keyboard-response","53","83124","0.0-6.0-5.6","510","","","","","make choice","1470","3","","","catch","sw","l","sh","180","200","228","183","183","211","trueblood","null","null","null","null","null","null","null","null","null","null","null","","180","200","260","200","36000","52000","[2,3]","","",""
"","canvas-keyboard-response","54","83142","0.0-6.0-6.6","510","","","","","clear_screen","null","null","","","catch","sw","l","sh","180","200","228","183","183","211","trueblood","null","null","null","null","null","null","null","null","null","null","null","","180","200","260","200","36000","52000","[2,3]","","",""
"","canvas-keyboard-response","55","83343","0.0-6.0-0.7","510","","","","","pre trial waiting period","null","null","","","critical","d","t","c","232.8713","160.6713","240","164","164","240","spektor","0.05","w","240","164","164","240","232.8713","160.6713","39360","39360","37415.7294","dc","null","null","null","null","null","null","[1,3]","519.7025394644036","202.96687393659826","499.41946305212855"
"","canvas-keyboard-response","56","83362","0.0-6.0-1.7","510","","","","","clear_screen","null","null","","","critical","d","t","c","232.8713","160.6713","240","164","164","240","spektor","0.05","w","240","164","164","240","232.8713","160.6713","39360","39360","37415.7294","dc","null","null","null","null","null","null","[1,3]","519.7025394644036","202.96687393659826","499.41946305212855"
"","canvas-keyboard-response","57","83873","0.0-6.0-2.7","510","","","","","rectangles no change","null","null","","","critical","d","t","c","232.8713","160.6713","240","164","164","240","spektor","0.05","w","240","164","164","240","232.8713","160.6713","39360","39360","37415.7294","dc","null","null","null","null","null","null","[1,3]","519.7025394644036","202.96687393659826","499.41946305212855"
"","canvas-keyboard-response","58","85212","0.0-6.0-3.7","510","","","","","rectangles with change","null","null","","","critical","d","t","c","232.8713","160.6713","240","164","164","240","spektor","0.05","w","240","164","164","240","232.8713","160.6713","39360","39360","37415.7294","dc","null","null","null","null","null","null","[1,3]","519.7025394644036","202.96687393659826","499.41946305212855"
"","canvas-keyboard-response","59","85231","0.0-6.0-4.7","510","","","","","clear_screen","null","null","","","critical","d","t","c","232.8713","160.6713","240","164","164","240","spektor","0.05","w","240","164","164","240","232.8713","160.6713","39360","39360","37415.7294","dc","null","null","null","null","null","null","[1,3]","519.7025394644036","202.96687393659826","499.41946305212855"
"","canvas-keyboard-response","60","86668","0.0-6.0-5.7","510","","","","","make choice","1429","1","","","critical","d","t","c","232.8713","160.6713","240","164","164","240","spektor","0.05","w","240","164","164","240","232.8713","160.6713","39360","39360","37415.7294","dc","null","null","null","null","null","null","[1,3]","","",""
"","canvas-keyboard-response","61","86687","0.0-6.0-6.7","510","","","","","clear_screen","null","null","","","critical","d","t","c","232.8713","160.6713","240","164","164","240","spektor","0.05","w","240","164","164","240","232.8713","160.6713","39360","39360","37415.7294","dc","null","null","null","null","null","null","[1,3]","","",""
"","canvas-keyboard-response","62","86889","0.0-6.0-0.8","510","","","","","pre trial waiting period","null","null","","","critical","d","c","t","158.0083","227.1683","240","164","164","240","trueblood","0.09","h","164","240","240","164","158.0083","227.1683","39360","39360","35894.4834","tc","null","null","null","null","null","null","[3,2]","445.9895741801185","517.1692126271737","452.0384271994443"
"","canvas-keyboard-response","63","86907","0.0-6.0-1.8","510","","","","","clear_screen","null","null","","","critical","d","c","t","158.0083","227.1683","240","164","164","240","trueblood","0.09","h","164","240","240","164","158.0083","227.1683","39360","39360","35894.4834","tc","null","null","null","null","null","null","[3,2]","445.9895741801185","517.1692126271737","452.0384271994443"
"","canvas-keyboard-response","64","87412","0.0-6.0-2.8","510","","","","","rectangles no change","null","null","","","critical","d","c","t","158.0083","227.1683","240","164","164","240","trueblood","0.09","h","164","240","240","164","158.0083","227.1683","39360","39360","35894.4834","tc","null","null","null","null","null","null","[3,2]","445.9895741801185","517.1692126271737","452.0384271994443"
"","canvas-keyboard-response","65","88748","0.0-6.0-3.8","510","","","","","rectangles with change","null","null","","","critical","d","c","t","158.0083","227.1683","240","164","164","240","trueblood","0.09","h","164","240","240","164","158.0083","227.1683","39360","39360","35894.4834","tc","null","null","null","null","null","null","[3,2]","445.9895741801185","517.1692126271737","452.0384271994443"
"","canvas-keyboard-response","66","88767","0.0-6.0-4.8","510","","","","","clear_screen","null","null","","","critical","d","c","t","158.0083","227.1683","240","164","164","240","trueblood","0.09","h","164","240","240","164","158.0083","227.1683","39360","39360","35894.4834","tc","null","null","null","null","null","null","[3,2]","445.9895741801185","517.1692126271737","452.0384271994443"
"","canvas-keyboard-response","67","89675","0.0-6.0-5.8","510","","","","","make choice","901","2","","","critical","d","c","t","158.0083","227.1683","240","164","164","240","trueblood","0.09","h","164","240","240","164","158.0083","227.1683","39360","39360","35894.4834","tc","null","null","null","null","null","null","[3,2]","","",""
"","canvas-keyboard-response","68","89695","0.0-6.0-6.8","510","","","","","clear_screen","null","null","","","critical","d","c","t","158.0083","227.1683","240","164","164","240","trueblood","0.09","h","164","240","240","164","158.0083","227.1683","39360","39360","35894.4834","tc","null","null","null","null","null","null","[3,2]","","",""
"","canvas-keyboard-response","69","89895","0.0-6.0-0.9","510","","","","","pre trial waiting period","null","null","","","critical","t","d","c","240","164","227.1683","158.0083","164","240","spektor","0.09","w","240","164","164","240","227.1683","158.0083","39360","39360","35894.4834","td","null","null","null","null","null","null","[1,2]","493.3248248231867","213.92806887815934","484.80268925333326"
"","canvas-keyboard-response","70","89916","0.0-6.0-1.9","510","","","","","clear_screen","null","null","","","critical","t","d","c","240","164","227.1683","158.0083","164","240","spektor","0.09","w","240","164","164","240","227.1683","158.0083","39360","39360","35894.4834","td","null","null","null","null","null","null","[1,2]","493.3248248231867","213.92806887815934","484.80268925333326"
"","canvas-keyboard-response","71","90429","0.0-6.0-2.9","510","","","","","rectangles no change","null","null","","","critical","t","d","c","240","164","227.1683","158.0083","164","240","spektor","0.09","w","240","164","164","240","227.1683","158.0083","39360","39360","35894.4834","td","null","null","null","null","null","null","[1,2]","493.3248248231867","213.92806887815934","484.80268925333326"
"","canvas-keyboard-response","72","91764","0.0-6.0-3.9","510","","","","","rectangles with change","null","null","","","critical","t","d","c","240","164","227.1683","158.0083","164","240","spektor","0.09","w","240","164","164","240","227.1683","158.0083","39360","39360","35894.4834","td","null","null","null","null","null","null","[1,2]","493.3248248231867","213.92806887815934","484.80268925333326"
"","canvas-keyboard-response","73","91783","0.0-6.0-4.9","510","","","","","clear_screen","null","null","","","critical","t","d","c","240","164","227.1683","158.0083","164","240","spektor","0.09","w","240","164","164","240","227.1683","158.0083","39360","39360","35894.4834","td","null","null","null","null","null","null","[1,2]","493.3248248231867","213.92806887815934","484.80268925333326"
"","canvas-keyboard-response","74","92313","0.0-6.0-5.9","510","","","","","make choice","524","1","","","critical","t","d","c","240","164","227.1683","158.0083","164","240","spektor","0.09","w","240","164","164","240","227.1683","158.0083","39360","39360","35894.4834","td","null","null","null","null","null","null","[1,2]","","",""
"","canvas-keyboard-response","75","92328","0.0-6.0-6.9","510","","","","","clear_screen","null","null","","","critical","t","d","c","240","164","227.1683","158.0083","164","240","spektor","0.09","w","240","164","164","240","227.1683","158.0083","39360","39360","35894.4834","td","null","null","null","null","null","null","[1,2]","","",""
"","canvas-keyboard-response","76","92528","0.0-6.0-0.10","510","","","","","pre trial waiting period","null","null","","","catch","sw","sh","l","180","200","223","162","256","221","spektor","null","null","null","null","null","null","null","null","null","null","null","","180","200","260","200","36000","52000","[1,3]","514.9802044940792","199.94204408172624","487.9053772645288"
"","canvas-keyboard-response","77","92551","0.0-6.0-1.10","510","","","","","clear_screen","null","null","","","catch","sw","sh","l","180","200","223","162","256","221","spektor","null","null","null","null","null","null","null","null","null","null","null","","180","200","260","200","36000","52000","[1,3]","514.9802044940792","199.94204408172624","487.9053772645288"
"","canvas-keyboard-response","78","93062","0.0-6.0-2.10","510","","","","","rectangles no change","null","null","","","catch","sw","sh","l","180","200","223","162","256","221","spektor","null","null","null","null","null","null","null","null","null","null","null","","180","200","260","200","36000","52000","[1,3]","514.9802044940792","199.94204408172624","487.9053772645288"
"","canvas-keyboard-response","79","94399","0.0-6.0-3.10","510","","","","","rectangles with change","null","null","","","catch","sw","sh","l","180","200","223","162","256","221","spektor","null","null","null","null","null","null","null","null","null","null","null","","180","200","260","200","36000","52000","[1,3]","514.9802044940792","199.94204408172624","487.9053772645288"
"","canvas-keyboard-response","80","94416","0.0-6.0-4.10","510","","","","","clear_screen","null","null","","","catch","sw","sh","l","180","200","223","162","256","221","spektor","null","null","null","null","null","null","null","null","null","null","null","","180","200","260","200","36000","52000","[1,3]","514.9802044940792","199.94204408172624","487.9053772645288"
"","canvas-keyboard-response","81","95060","0.0-6.0-5.10","510","","","","","make choice","638","3","","","catch","sw","sh","l","180","200","223","162","256","221","spektor","null","null","null","null","null","null","null","null","null","null","null","","180","200","260","200","36000","52000","[1,3]","","",""
"","canvas-keyboard-response","82","95078","0.0-6.0-6.10","510","","","","","clear_screen","null","null","","","catch","sw","sh","l","180","200","223","162","256","221","spektor","null","null","null","null","null","null","null","null","null","null","null","","180","200","260","200","36000","52000","[1,3]","","",""
"","canvas-keyboard-response","83","95279","0.0-6.0-0.11","510","","","","","pre trial waiting period","null","null","","","critical","d","c","t","240","164","164","240","240","164","spektor","0","w","240","164","164","240","240","164","39360","39360","39360","tc","null","null","null","null","null","null","[3,2]","505.11272974615906","132.06933612578857","504.8230545448105"
"","canvas-keyboard-response","84","95303","0.0-6.0-1.11","510","","","","","clear_screen","null","null","","","critical","d","c","t","240","164","164","240","240","164","spektor","0","w","240","164","164","240","240","164","39360","39360","39360","tc","null","null","null","null","null","null","[3,2]","505.11272974615906","132.06933612578857","504.8230545448105"
"","canvas-keyboard-response","85","95811","0.0-6.0-2.11","510","","","","","rectangles no change","null","null","","","critical","d","c","t","240","164","164","240","240","164","spektor","0","w","240","164","164","240","240","164","39360","39360","39360","tc","null","null","null","null","null","null","[3,2]","505.11272974615906","132.06933612578857","504.8230545448105"
"","canvas-keyboard-response","86","97150","0.0-6.0-3.11","510","","","","","rectangles with change","null","null","","","critical","d","c","t","240","164","164","240","240","164","spektor","0","w","240","164","164","240","240","164","39360","39360","39360","tc","null","null","null","null","null","null","[3,2]","505.11272974615906","132.06933612578857","504.8230545448105"
"","canvas-keyboard-response","87","97168","0.0-6.0-4.11","510","","","","","clear_screen","null","null","","","critical","d","c","t","240","164","164","240","240","164","spektor","0","w","240","164","164","240","240","164","39360","39360","39360","tc","null","null","null","null","null","null","[3,2]","505.11272974615906","132.06933612578857","504.8230545448105"
"","canvas-keyboard-response","88","97932","0.0-6.0-5.11","510","","","","","make choice","756","3","","","critical","d","c","t","240","164","164","240","240","164","spektor","0","w","240","164","164","240","240","164","39360","39360","39360","tc","null","null","null","null","null","null","[3,2]","","",""
"","canvas-keyboard-response","89","97951","0.0-6.0-6.11","510","","","","","clear_screen","null","null","","","critical","d","c","t","240","164","164","240","240","164","spektor","0","w","240","164","164","240","240","164","39360","39360","39360","tc","null","null","null","null","null","null","[3,2]","","",""
"","canvas-keyboard-response","90","98151","0.0-6.0-0.12","510","","","","","pre trial waiting period","null","null","","","critical","t","c","d","240","164","164","240","232.8713","160.6713","trueblood","0.05","w","240","164","164","240","232.8713","160.6713","39360","39360","37415.7294","tc","null","null","null","null","null","null","[1,2]","492.633099489482","443.4473965066104","475.3194006576462"
"","canvas-keyboard-response","91","98174","0.0-6.0-1.12","510","","","","","clear_screen","null","null","","","critical","t","c","d","240","164","164","240","232.8713","160.6713","trueblood","0.05","w","240","164","164","240","232.8713","160.6713","39360","39360","37415.7294","tc","null","null","null","null","null","null","[1,2]","492.633099489482","443.4473965066104","475.3194006576462"
"","canvas-keyboard-response","92","98682","0.0-6.0-2.12","510","","","","","rectangles no change","null","null","","","critical","t","c","d","240","164","164","240","232.8713","160.6713","trueblood","0.05","w","240","164","164","240","232.8713","160.6713","39360","39360","37415.7294","tc","null","null","null","null","null","null","[1,2]","492.633099489482","443.4473965066104","475.3194006576462"
"","canvas-keyboard-response","93","100020","0.0-6.0-3.12","510","","","","","rectangles with change","null","null","","","critical","t","c","d","240","164","164","240","232.8713","160.6713","trueblood","0.05","w","240","164","164","240","232.8713","160.6713","39360","39360","37415.7294","tc","null","null","null","null","null","null","[1,2]","492.633099489482","443.4473965066104","475.3194006576462"
"","canvas-keyboard-response","94","100040","0.0-6.0-4.12","510","","","","","clear_screen","null","null","","","critical","t","c","d","240","164","164","240","232.8713","160.6713","trueblood","0.05","w","240","164","164","240","232.8713","160.6713","39360","39360","37415.7294","tc","null","null","null","null","null","null","[1,2]","492.633099489482","443.4473965066104","475.3194006576462"
"","canvas-keyboard-response","95","100779","0.0-6.0-5.12","510","","","","","make choice","730","1","","","critical","t","c","d","240","164","164","240","232.8713","160.6713","trueblood","0.05","w","240","164","164","240","232.8713","160.6713","39360","39360","37415.7294","tc","null","null","null","null","null","null","[1,2]","","",""
"","canvas-keyboard-response","96","100797","0.0-6.0-6.12","510","","","","","clear_screen","null","null","","","critical","t","c","d","240","164","164","240","232.8713","160.6713","trueblood","0.05","w","240","164","164","240","232.8713","160.6713","39360","39360","37415.7294","tc","null","null","null","null","null","null","[1,2]","","",""
"","canvas-keyboard-response","97","100998","0.0-6.0-0.13","510","","","","","pre trial waiting period","null","null","","","critical","t","d","c","164","240","158.0083","227.1683","240","164","spektor","0.09","h","164","240","240","164","158.0083","227.1683","39360","39360","35894.4834","tc","null","null","null","null","null","null","[1,3]","504.77394501819686","127.45854177642553","514.2853731310254"
"","canvas-keyboard-response","98","101018","0.0-6.0-1.13","510","","","","","clear_screen","null","null","","","critical","t","d","c","164","240","158.0083","227.1683","240","164","spektor","0.09","h","164","240","240","164","158.0083","227.1683","39360","39360","35894.4834","tc","null","null","null","null","null","null","[1,3]","504.77394501819686","127.45854177642553","514.2853731310254"
"","canvas-keyboard-response","99","101525","0.0-6.0-2.13","510","","","","","rectangles no change","null","null","","","critical","t","d","c","164","240","158.0083","227.1683","240","164","spektor","0.09","h","164","240","240","164","158.0083","227.1683","39360","39360","35894.4834","tc","null","null","null","null","null","null","[1,3]","504.77394501819686","127.45854177642553","514.2853731310254"
"","canvas-keyboard-response","100","102859","0.0-6.0-3.13","510","","","","","rectangles with change","null","null","","","critical","t","d","c","164","240","158.0083","227.1683","240","164","spektor","0.09","h","164","240","240","164","158.0083","227.1683","39360","39360","35894.4834","tc","null","null","null","null","null","null","[1,3]","504.77394501819686","127.45854177642553","514.2853731310254"
"","canvas-keyboard-response","101","102877","0.0-6.0-4.13","510","","","","","clear_screen","null","null","","","critical","t","d","c","164","240","158.0083","227.1683","240","164","spektor","0.09","h","164","240","240","164","158.0083","227.1683","39360","39360","35894.4834","tc","null","null","null","null","null","null","[1,3]","504.77394501819686","127.45854177642553","514.2853731310254"
"","canvas-keyboard-response","102","102924","0.0-6.0-5.13","510","","","","","make choice","43","3","","","critical","t","d","c","164","240","158.0083","227.1683","240","164","spektor","0.09","h","164","240","240","164","158.0083","227.1683","39360","39360","35894.4834","tc","null","null","null","null","null","null","[1,3]","","",""
"","canvas-keyboard-response","103","102943","0.0-6.0-6.13","510","","","","","clear_screen","null","null","","","critical","t","d","c","164","240","158.0083","227.1683","240","164","spektor","0.09","h","164","240","240","164","158.0083","227.1683","39360","39360","35894.4834","tc","null","null","null","null","null","null","[1,3]","","",""
"","canvas-keyboard-response","104","103144","0.0-6.0-0.14","510","","","","","pre trial waiting period","null","null","","","catch","sh","l","sw","239","170","177","292","189","236","trueblood","null","null","null","null","null","null","null","null","null","null","null","","180","200","260","200","36000","52000","[2,3]","498.3022605260103","412.45004969881376","422.2609119646319"
"","canvas-keyboard-response","105","103166","0.0-6.0-1.14","510","","","","","clear_screen","null","null","","","catch","sh","l","sw","239","170","177","292","189","236","trueblood","null","null","null","null","null","null","null","null","null","null","null","","180","200","260","200","36000","52000","[2,3]","498.3022605260103","412.45004969881376","422.2609119646319"
"","canvas-keyboard-response","106","103673","0.0-6.0-2.14","510","","","","","rectangles no change","null","null","","","catch","sh","l","sw","239","170","177","292","189","236","trueblood","null","null","null","null","null","null","null","null","null","null","null","","180","200","260","200","36000","52000","[2,3]","498.3022605260103","412.45004969881376","422.2609119646319"
"","canvas-keyboard-response","107","105011","0.0-6.0-3.14","510","","","","","rectangles with change","null","null","","","catch","sh","l","sw","239","170","177","292","189","236","trueblood","null","null","null","null","null","null","null","null","null","null","null","","180","200","260","200","36000","52000","[2,3]","498.3022605260103","412.45004969881376","422.2609119646319"
"","canvas-keyboard-response","108","105031","0.0-6.0-4.14","510","","","","","clear_screen","null","null","","","catch","sh","l","sw","239","170","177","292","189","236","trueblood","null","null","null","null","null","null","null","null","null","null","null","","180","200","260","200","36000","52000","[2,3]","498.3022605260103","412.45004969881376","422.2609119646319"
"","canvas-keyboard-response","109","105804","0.0-6.0-5.14","510","","","","","make choice","768","2","","","catch","sh","l","sw","239","170","177","292","189","236","trueblood","null","null","null","null","null","null","null","null","null","null","null","","180","200","260","200","36000","52000","[2,3]","","",""
"","canvas-keyboard-response","110","105824","0.0-6.0-6.14","510","","","","","clear_screen","null","null","","","catch","sh","l","sw","239","170","177","292","189","236","trueblood","null","null","null","null","null","null","null","null","null","null","null","","180","200","260","200","36000","52000","[2,3]","","",""
"","canvas-keyboard-response","111","106025","0.0-6.0-0.15","510","","","","","pre trial waiting period","null","null","","","catch","sw","l","sh","180","200","247","210","176","162","trueblood","null","null","null","null","null","null","null","null","null","null","null","","180","200","260","200","36000","52000","[2,3]","490.48806902674534","441.14518062371866","491.0313953282068"
"","canvas-keyboard-response","112","106048","0.0-6.0-1.15","510","","","","","clear_screen","null","null","","","catch","sw","l","sh","180","200","247","210","176","162","trueblood","null","null","null","null","null","null","null","null","null","null","null","","180","200","260","200","36000","52000","[2,3]","490.48806902674534","441.14518062371866","491.0313953282068"
"","canvas-keyboard-response","113","106553","0.0-6.0-2.15","510","","","","","rectangles no change","null","null","","","catch","sw","l","sh","180","200","247","210","176","162","trueblood","null","null","null","null","null","null","null","null","null","null","null","","180","200","260","200","36000","52000","[2,3]","490.48806902674534","441.14518062371866","491.0313953282068"
"","canvas-keyboard-response","114","107888","0.0-6.0-3.15","510","","","","","rectangles with change","null","null","","","catch","sw","l","sh","180","200","247","210","176","162","trueblood","null","null","null","null","null","null","null","null","null","null","null","","180","200","260","200","36000","52000","[2,3]","490.48806902674534","441.14518062371866","491.0313953282068"
"","canvas-keyboard-response","115","107910","0.0-6.0-4.15","510","","","","","clear_screen","null","null","","","catch","sw","l","sh","180","200","247","210","176","162","trueblood","null","null","null","null","null","null","null","null","null","null","null","","180","200","260","200","36000","52000","[2,3]","490.48806902674534","441.14518062371866","491.0313953282068"
"","canvas-keyboard-response","116","108388","0.0-6.0-5.15","510","","","","","make choice","473","2","","","catch","sw","l","sh","180","200","247","210","176","162","trueblood","null","null","null","null","null","null","null","null","null","null","null","","180","200","260","200","36000","52000","[2,3]","","",""
"","canvas-keyboard-response","117","108408","0.0-6.0-6.15","510","","","","","clear_screen","null","null","","","catch","sw","l","sh","180","200","247","210","176","162","trueblood","null","null","null","null","null","null","null","null","null","null","null","","180","200","260","200","36000","52000","[2,3]","","",""
"","canvas-keyboard-response","118","108609","0.0-6.0-0.16","510","","","","","pre trial waiting period","null","null","","","critical","t","d","c","240","164","232.8713","160.6713","164","240","trueblood","0.05","w","240","164","164","240","232.8713","160.6713","39360","39360","37415.7294","dc","null","null","null","null","null","null","[2,3]","477.98642676577134","485.2329793467481","459.61817633001624"
"","canvas-keyboard-response","119","108631","0.0-6.0-1.16","510","","","","","clear_screen","null","null","","","critical","t","d","c","240","164","232.8713","160.6713","164","240","trueblood","0.05","w","240","164","164","240","232.8713","160.6713","39360","39360","37415.7294","dc","null","null","null","null","null","null","[2,3]","477.98642676577134","485.2329793467481","459.61817633001624"
"","canvas-keyboard-response","120","109139","0.0-6.0-2.16","510","","","","","rectangles no change","null","null","","","critical","t","d","c","240","164","232.8713","160.6713","164","240","trueblood","0.05","w","240","164","164","240","232.8713","160.6713","39360","39360","37415.7294","dc","null","null","null","null","null","null","[2,3]","477.98642676577134","485.2329793467481","459.61817633001624"
"","canvas-keyboard-response","121","110475","0.0-6.0-3.16","510","","","","","rectangles with change","null","null","","","critical","t","d","c","240","164","232.8713","160.6713","164","240","trueblood","0.05","w","240","164","164","240","232.8713","160.6713","39360","39360","37415.7294","dc","null","null","null","null","null","null","[2,3]","477.98642676577134","485.2329793467481","459.61817633001624"
"","canvas-keyboard-response","122","110495","0.0-6.0-4.16","510","","","","","clear_screen","null","null","","","critical","t","d","c","240","164","232.8713","160.6713","164","240","trueblood","0.05","w","240","164","164","240","232.8713","160.6713","39360","39360","37415.7294","dc","null","null","null","null","null","null","[2,3]","477.98642676577134","485.2329793467481","459.61817633001624"
"","canvas-keyboard-response","123","110603","0.0-6.0-5.16","510","","","","","make choice","103","2","","","critical","t","d","c","240","164","232.8713","160.6713","164","240","trueblood","0.05","w","240","164","164","240","232.8713","160.6713","39360","39360","37415.7294","dc","null","null","null","null","null","null","[2,3]","","",""
"","canvas-keyboard-response","124","110623","0.0-6.0-6.16","510","","","","","clear_screen","null","null","","","critical","t","d","c","240","164","232.8713","160.6713","164","240","trueblood","0.05","w","240","164","164","240","232.8713","160.6713","39360","39360","37415.7294","dc","null","null","null","null","null","null","[2,3]","","",""
"","canvas-keyboard-response","125","110823","0.0-6.0-0.17","510","","","","","pre trial waiting period","null","null","","","critical","d","c","t","154.6796","220.0396","240","164","164","240","spektor","0.14","h","164","240","240","164","154.6796","220.0396","39360","39360","34035.6388","tc","null","null","null","null","null","null","[3,2]","482.79244784975725","193.5421647097492","477.340434762535"
"","canvas-keyboard-response","126","110843","0.0-6.0-1.17","510","","","","","clear_screen","null","null","","","critical","d","c","t","154.6796","220.0396","240","164","164","240","spektor","0.14","h","164","240","240","164","154.6796","220.0396","39360","39360","34035.6388","tc","null","null","null","null","null","null","[3,2]","482.79244784975725","193.5421647097492","477.340434762535"
"","canvas-keyboard-response","127","111351","0.0-6.0-2.17","510","","","","","rectangles no change","null","null","","","critical","d","c","t","154.6796","220.0396","240","164","164","240","spektor","0.14","h","164","240","240","164","154.6796","220.0396","39360","39360","34035.6388","tc","null","null","null","null","null","null","[3,2]","482.79244784975725","193.5421647097492","477.340434762535"
"","canvas-keyboard-response","128","112688","0.0-6.0-3.17","510","","","","","rectangles with change","null","null","","","critical","d","c","t","154.6796","220.0396","240","164","164","240","spektor","0.14","h","164","240","240","164","154.6796","220.0396","39360","39360","34035.6388","tc","null","null","null","null","null","null","[3,2]","482.79244784975725","193.5421647097492","477.340434762535"
"","canvas-keyboard-response","129","112710","0.0-6.0-4.17","510","","","","","clear_screen","null","null","","","critical","d","c","t","154.6796","220.0396","240","164","164","240","spektor","0.14","h","164","240","240","164","154.6796","220.0396","39360","39360","34035.6388","tc","null","null","null","null","null","null","[3,2]","482.79244784975725","193.5421647097492","477.340434762535"
"","canvas-keyboard-response","130","113228","0.0-6.0-5.17","510","","","","","make choice","512","3","","","critical","d","c","t","154.6796","220.0396","240","164","164","240","spektor","0.14","h","164","240","240","164","154.6796","220.0396","39360","39360","34035.6388","tc","null","null","null","null","null","null","[3,2]","","",""
"","canvas-keyboard-response","131","113248","0.0-6.0-6.17","510","","","","","clear_screen","null","null","","","critical","d","c","t","154.6796","220.0396","240","164","164","240","spektor","0.14","h","164","240","240","164","154.6796","220.0396","39360","39360","34035.6388","tc","null","null","null","null","null","null","[3,2]","","",""
"","canvas-keyboard-response","132","113449","0.0-6.0-0.18","510","","","","","pre trial waiting period","null","null","","","catch","sh","sw","l","236","148","208","231","167","292","trueblood","null","null","null","null","null","null","null","null","null","null","null","","180","200","260","200","36000","52000","[1,3]","496.520599798368","452.09624951005776","403.7811220953963"
"","canvas-keyboard-response","133","113469","0.0-6.0-1.18","510","","","","","clear_screen","null","null","","","catch","sh","sw","l","236","148","208","231","167","292","trueblood","null","null","null","null","null","null","null","null","null","null","null","","180","200","260","200","36000","52000","[1,3]","496.520599798368","452.09624951005776","403.7811220953963"
"","canvas-keyboard-response","134","113973","0.0-6.0-2.18","510","","","","","rectangles no change","null","null","","","catch","sh","sw","l","236","148","208","231","167","292","trueblood","null","null","null","null","null","null","null","null","null","null","null","","180","200","260","200","36000","52000","[1,3]","496.520599798368","452.09624951005776","403.7811220953963"
"","canvas-keyboard-response","135","115310","0.0-6.0-3.18","510","","","","","rectangles with change","null","null","","","catch","sh","sw","l","236","148","208","231","167","292","trueblood","null","null","null","null","null","null","null","null","null","null","null","","180","200","260","200","36000","52000","[1,3]","496.520599798368","452.09624951005776","403.7811220953963"
"","canvas-keyboard-response","136","115331","0.0-6.0-4.18","510","","","","","clear_screen","null","null","","","catch","sh","sw","l","236","148","208","231","167","292","trueblood","null","null","null","null","null","null","null","null","null","null","null","","180","200","260","200","36000","52000","[1,3]","496.520599798368","452.09624951005776","403.7811220953963"
"","canvas-keyboard-response","137","116164","0.0-6.0-5.18","510","","","","","make choice","829","3","","","catch","sh","sw","l","236","148","208","231","167","292","trueblood","null","null","null","null","null","null","null","null","null","null","null","","180","200","260","200","36000","52000","[1,3]","","",""
"","canvas-keyboard-response","138","116181","0.0-6.0-6.18","510","","","","","clear_screen","null","null","","","catch","sh","sw","l","236","148","208","231","167","292","trueblood","null","null","null","null","null","null","null","null","null","null","null","","180","200","260","200","36000","52000","[1,3]","","",""
"","canvas-keyboard-response","139","116381","0.0-6.0-0.19","510","","","","","pre trial waiting period","null","null","","","critical","c","d","t","240","164","162.6685","237.1485","164","240","spektor","0.02","h","164","240","240","164","162.6685","237.1485","39360","39360","38576.5967","dc","null","null","null","null","null","null","[2,1]","495.480703635694","129.2532374021041","465.1457604789432"
"","canvas-keyboard-response","140","116404","0.0-6.0-1.19","510","","","","","clear_screen","null","null","","","critical","c","d","t","240","164","162.6685","237.1485","164","240","spektor","0.02","h","164","240","240","164","162.6685","237.1485","39360","39360","38576.5967","dc","null","null","null","null","null","null","[2,1]","495.480703635694","129.2532374021041","465.1457604789432"
"","canvas-keyboard-response","141","116909","0.0-6.0-2.19","510","","","","","rectangles no change","null","null","","","critical","c","d","t","240","164","162.6685","237.1485","164","240","spektor","0.02","h","164","240","240","164","162.6685","237.1485","39360","39360","38576.5967","dc","null","null","null","null","null","null","[2,1]","495.480703635694","129.2532374021041","465.1457604789432"
"","canvas-keyboard-response","142","118246","0.0-6.0-3.19","510","","","","","rectangles with change","null","null","","","critical","c","d","t","240","164","162.6685","237.1485","164","240","spektor","0.02","h","164","240","240","164","162.6685","237.1485","39360","39360","38576.5967","dc","null","null","null","null","null","null","[2,1]","495.480703635694","129.2532374021041","465.1457604789432"
"","canvas-keyboard-response","143","118269","0.0-6.0-4.19","510","","","","","clear_screen","null","null","","","critical","c","d","t","240","164","162.6685","237.1485","164","240","spektor","0.02","h","164","240","240","164","162.6685","237.1485","39360","39360","38576.5967","dc","null","null","null","null","null","null","[2,1]","495.480703635694","129.2532374021041","465.1457604789432"
"","canvas-keyboard-response","144","119020","0.0-6.0-5.19","510","","","","","make choice","746","1","","","critical","c","d","t","240","164","162.6685","237.1485","164","240","spektor","0.02","h","164","240","240","164","162.6685","237.1485","39360","39360","38576.5967","dc","null","null","null","null","null","null","[2,1]","","",""
"","canvas-keyboard-response","145","119039","0.0-6.0-6.19","510","","","","","clear_screen","null","null","","","critical","c","d","t","240","164","162.6685","237.1485","164","240","spektor","0.02","h","164","240","240","164","162.6685","237.1485","39360","39360","38576.5967","dc","null","null","null","null","null","null","[2,1]","","",""
"","canvas-keyboard-response","146","119240","0.0-6.0-0.20","510","","","","","pre trial waiting period","null","null","","","critical","c","d","t","164","240","220.0396","154.6796","240","164","spektor","0.14","w","240","164","164","240","220.0396","154.6796","39360","39360","34035.6388","td","null","null","null","null","null","null","[3,2]","471.9690522006417","182.3330291997355","509.27548793343936"
"","canvas-keyboard-response","147","119261","0.0-6.0-1.20","510","","","","","clear_screen","null","null","","","critical","c","d","t","164","240","220.0396","154.6796","240","164","spektor","0.14","w","240","164","164","240","220.0396","154.6796","39360","39360","34035.6388","td","null","null","null","null","null","null","[3,2]","471.9690522006417","182.3330291997355","509.27548793343936"
"","canvas-keyboard-response","148","119769","0.0-6.0-2.20","510","","","","","rectangles no change","null","null","","","critical","c","d","t","164","240","220.0396","154.6796","240","164","spektor","0.14","w","240","164","164","240","220.0396","154.6796","39360","39360","34035.6388","td","null","null","null","null","null","null","[3,2]","471.9690522006417","182.3330291997355","509.27548793343936"
"","canvas-keyboard-response","149","121106","0.0-6.0-3.20","510","","","","","rectangles with change","null","null","","","critical","c","d","t","164","240","220.0396","154.6796","240","164","spektor","0.14","w","240","164","164","240","220.0396","154.6796","39360","39360","34035.6388","td","null","null","null","null","null","null","[3,2]","471.9690522006417","182.3330291997355","509.27548793343936"
"","canvas-keyboard-response","150","121126","0.0-6.0-4.20","510","","","","","clear_screen","null","null","","","critical","c","d","t","164","240","220.0396","154.6796","240","164","spektor","0.14","w","240","164","164","240","220.0396","154.6796","39360","39360","34035.6388","td","null","null","null","null","null","null","[3,2]","471.9690522006417","182.3330291997355","509.27548793343936"
"","canvas-keyboard-response","151","122428","0.0-6.0-5.20","510","","","","","make choice","1296","3","","","critical","c","d","t","164","240","220.0396","154.6796","240","164","spektor","0.14","w","240","164","164","240","220.0396","154.6796","39360","39360","34035.6388","td","null","null","null","null","null","null","[3,2]","","",""
"","canvas-keyboard-response","152","122447","0.0-6.0-6.20","510","","","","","clear_screen","null","null","","","critical","c","d","t","164","240","220.0396","154.6796","240","164","spektor","0.14","w","240","164","164","240","220.0396","154.6796","39360","39360","34035.6388","td","null","null","null","null","null","null","[3,2]","","",""
"","canvas-keyboard-response","153","122648","0.0-6.0-0.21","510","","","","","pre trial waiting period","null","null","","","critical","d","c","t","227.1683","158.0083","164","240","240","164","trueblood","0.09","w","240","164","164","240","227.1683","158.0083","39360","39360","35894.4834","dc","null","null","null","null","null","null","[1,2]","485.35710734445865","468.97387423987357","503.71815128158477"
"","canvas-keyboard-response","154","122666","0.0-6.0-1.21","510","","","","","clear_screen","null","null","","","critical","d","c","t","227.1683","158.0083","164","240","240","164","trueblood","0.09","w","240","164","164","240","227.1683","158.0083","39360","39360","35894.4834","dc","null","null","null","null","null","null","[1,2]","485.35710734445865","468.97387423987357","503.71815128158477"
"","canvas-keyboard-response","155","123173","0.0-6.0-2.21","510","","","","","rectangles no change","null","null","","","critical","d","c","t","227.1683","158.0083","164","240","240","164","trueblood","0.09","w","240","164","164","240","227.1683","158.0083","39360","39360","35894.4834","dc","null","null","null","null","null","null","[1,2]","485.35710734445865","468.97387423987357","503.71815128158477"
"","canvas-keyboard-response","156","124507","0.0-6.0-3.21","510","","","","","rectangles with change","null","null","","","critical","d","c","t","227.1683","158.0083","164","240","240","164","trueblood","0.09","w","240","164","164","240","227.1683","158.0083","39360","39360","35894.4834","dc","null","null","null","null","null","null","[1,2]","485.35710734445865","468.97387423987357","503.71815128158477"
"","canvas-keyboard-response","157","124521","0.0-6.0-4.21","510","","","","","clear_screen","null","null","","","critical","d","c","t","227.1683","158.0083","164","240","240","164","trueblood","0.09","w","240","164","164","240","227.1683","158.0083","39360","39360","35894.4834","dc","null","null","null","null","null","null","[1,2]","485.35710734445865","468.97387423987357","503.71815128158477"
"","canvas-keyboard-response","158","125514","0.0-6.0-5.21","510","","","","","make choice","988","1","","","critical","d","c","t","227.1683","158.0083","164","240","240","164","trueblood","0.09","w","240","164","164","240","227.1683","158.0083","39360","39360","35894.4834","dc","null","null","null","null","null","null","[1,2]","","",""
"","canvas-keyboard-response","159","125528","0.0-6.0-6.21","510","","","","","clear_screen","null","null","","","critical","d","c","t","227.1683","158.0083","164","240","240","164","trueblood","0.09","w","240","164","164","240","227.1683","158.0083","39360","39360","35894.4834","dc","null","null","null","null","null","null","[1,2]","","",""
"","canvas-keyboard-response","160","125729","0.0-6.0-0.22","510","","","","","pre trial waiting period","null","null","","","catch","l","sh","sw","226","214","206","189","152","168","spektor","null","null","null","null","null","null","null","null","null","null","null","","180","200","260","200","36000","52000","[1,3]","488.2206458274428","180.37839559048538","531.5041876153595"
"","canvas-keyboard-response","161","125751","0.0-6.0-1.22","510","","","","","clear_screen","null","null","","","catch","l","sh","sw","226","214","206","189","152","168","spektor","null","null","null","null","null","null","null","null","null","null","null","","180","200","260","200","36000","52000","[1,3]","488.2206458274428","180.37839559048538","531.5041876153595"
"","canvas-keyboard-response","162","126257","0.0-6.0-2.22","510","","","","","rectangles no change","null","null","","","catch","l","sh","sw","226","214","206","189","152","168","spektor","null","null","null","null","null","null","null","null","null","null","null","","180","200","260","200","36000","52000","[1,3]","488.2206458274428","180.37839559048538","531.5041876153595"
"","canvas-keyboard-response","163","127593","0.0-6.0-3.22","510","","","","","rectangles with change","null","null","","","catch","l","sh","sw","226","214","206","189","152","168","spektor","null","null","null","null","null","null","null","null","null","null","null","","180","200","260","200","36000","52000","[1,3]","488.2206458274428","180.37839559048538","531.5041876153595"
"","canvas-keyboard-response","164","127612","0.0-6.0-4.22","510","","","","","clear_screen","null","null","","","catch","l","sh","sw","226","214","206","189","152","168","spektor","null","null","null","null","null","null","null","null","null","null","null","","180","200","260","200","36000","52000","[1,3]","488.2206458274428","180.37839559048538","531.5041876153595"
"","canvas-keyboard-response","165","128092","0.0-6.0-5.22","510","","","","","make choice","474","1","","","catch","l","sh","sw","226","214","206","189","152","168","spektor","null","null","null","null","null","null","null","null","null","null","null","","180","200","260","200","36000","52000","[1,3]","","",""
"","canvas-keyboard-response","166","128111","0.0-6.0-6.22","510","","","","","clear_screen","null","null","","","catch","l","sh","sw","226","214","206","189","152","168","spektor","null","null","null","null","null","null","null","null","null","null","null","","180","200","260","200","36000","52000","[1,3]","","",""
"","canvas-keyboard-response","167","128312","0.0-6.0-0.23","510","","","","","pre trial waiting period","null","null","","","catch","l","sh","sw","198","235","221","179","212","233","spektor","null","null","null","null","null","null","null","null","null","null","null","","180","200","260","200","36000","52000","[1,3]","491.36023564744096","183.17789485268753","462.34689023144665"
"","canvas-keyboard-response","168","128333","0.0-6.0-1.23","510","","","","","clear_screen","null","null","","","catch","l","sh","sw","198","235","221","179","212","233","spektor","null","null","null","null","null","null","null","null","null","null","null","","180","200","260","200","36000","52000","[1,3]","491.36023564744096","183.17789485268753","462.34689023144665"
"","canvas-keyboard-response","169","128844","0.0-6.0-2.23","510","","","","","rectangles no change","null","null","","","catch","l","sh","sw","198","235","221","179","212","233","spektor","null","null","null","null","null","null","null","null","null","null","null","","180","200","260","200","36000","52000","[1,3]","491.36023564744096","183.17789485268753","462.34689023144665"
"","canvas-keyboard-response","170","130179","0.0-6.0-3.23","510","","","","","rectangles with change","null","null","","","catch","l","sh","sw","198","235","221","179","212","233","spektor","null","null","null","null","null","null","null","null","null","null","null","","180","200","260","200","36000","52000","[1,3]","491.36023564744096","183.17789485268753","462.34689023144665"
"","canvas-keyboard-response","171","130203","0.0-6.0-4.23","510","","","","","clear_screen","null","null","","","catch","l","sh","sw","198","235","221","179","212","233","spektor","null","null","null","null","null","null","null","null","null","null","null","","180","200","260","200","36000","52000","[1,3]","491.36023564744096","183.17789485268753","462.34689023144665"
"","canvas-keyboard-response","172","130578","0.0-6.0-5.23","510","","","","","make choice","372","3","","","catch","l","sh","sw","198","235","221","179","212","233","spektor","null","null","null","null","null","null","null","null","null","null","null","","180","200","260","200","36000","52000","[1,3]","","",""
"","canvas-keyboard-response","173","130595","0.0-6.0-6.23","510","","","","","clear_screen","null","null","","","catch","l","sh","sw","198","235","221","179","212","233","spektor","null","null","null","null","null","null","null","null","null","null","null","","180","200","260","200","36000","52000","[1,3]","","",""
"","canvas-keyboard-response","174","130796","0.0-6.0-0.24","510","","","","","pre trial waiting period","null","null","","","critical","t","d","c","164","240","160.6713","232.8713","240","164","spektor","0.05","h","164","240","240","164","160.6713","232.8713","39360","39360","37415.7294","tc","null","null","null","null","null","null","[1,3]","469.86022395827604","138.24758929325463","538.4371715342395"
"","canvas-keyboard-response","175","130816","0.0-6.0-1.24","510","","","","","clear_screen","null","null","","","critical","t","d","c","164","240","160.6713","232.8713","240","164","spektor","0.05","h","164","240","240","164","160.6713","232.8713","39360","39360","37415.7294","tc","null","null","null","null","null","null","[1,3]","469.86022395827604","138.24758929325463","538.4371715342395"
"","canvas-keyboard-response","176","131322","0.0-6.0-2.24","510","","","","","rectangles no change","null","null","","","critical","t","d","c","164","240","160.6713","232.8713","240","164","spektor","0.05","h","164","240","240","164","160.6713","232.8713","39360","39360","37415.7294","tc","null","null","null","null","null","null","[1,3]","469.86022395827604","138.24758929325463","538.4371715342395"
"","canvas-keyboard-response","177","132662","0.0-6.0-3.24","510","","","","","rectangles with change","null","null","","","critical","t","d","c","164","240","160.6713","232.8713","240","164","spektor","0.05","h","164","240","240","164","160.6713","232.8713","39360","39360","37415.7294","tc","null","null","null","null","null","null","[1,3]","469.86022395827604","138.24758929325463","538.4371715342395"
"","canvas-keyboard-response","178","132683","0.0-6.0-4.24","510","","","","","clear_screen","null","null","","","critical","t","d","c","164","240","160.6713","232.8713","240","164","spektor","0.05","h","164","240","240","164","160.6713","232.8713","39360","39360","37415.7294","tc","null","null","null","null","null","null","[1,3]","469.86022395827604","138.24758929325463","538.4371715342395"
"","canvas-keyboard-response","179","133372","0.0-6.0-5.24","510","","","","","make choice","683","1","","","critical","t","d","c","164","240","160.6713","232.8713","240","164","spektor","0.05","h","164","240","240","164","160.6713","232.8713","39360","39360","37415.7294","tc","null","null","null","null","null","null","[1,3]","","",""
"","canvas-keyboard-response","180","133390","0.0-6.0-6.24","510","","","","","clear_screen","null","null","","","critical","t","d","c","164","240","160.6713","232.8713","240","164","spektor","0.05","h","164","240","240","164","160.6713","232.8713","39360","39360","37415.7294","tc","null","null","null","null","null","null","[1,3]","","",""
"","canvas-keyboard-response","181","133590","0.0-6.0-0.25","510","","","","","pre trial waiting period","null","null","","","critical","t","c","d","240","164","164","240","232.8713","160.6713","trueblood","0.05","w","240","164","164","240","232.8713","160.6713","39360","39360","37415.7294","td","null","null","null","null","null","null","[1,3]","484.6824325388305","461.2986296980822","473.27111075969236"
"","canvas-keyboard-response","182","133606","0.0-6.0-1.25","510","","","","","clear_screen","null","null","","","critical","t","c","d","240","164","164","240","232.8713","160.6713","trueblood","0.05","w","240","164","164","240","232.8713","160.6713","39360","39360","37415.7294","td","null","null","null","null","null","null","[1,3]","484.6824325388305","461.2986296980822","473.27111075969236"
"","canvas-keyboard-response","183","134113","0.0-6.0-2.25","510","","","","","rectangles no change","null","null","","","critical","t","c","d","240","164","164","240","232.8713","160.6713","trueblood","0.05","w","240","164","164","240","232.8713","160.6713","39360","39360","37415.7294","td","null","null","null","null","null","null","[1,3]","484.6824325388305","461.2986296980822","473.27111075969236"
"","canvas-keyboard-response","184","135450","0.0-6.0-3.25","510","","","","","rectangles with change","null","null","","","critical","t","c","d","240","164","164","240","232.8713","160.6713","trueblood","0.05","w","240","164","164","240","232.8713","160.6713","39360","39360","37415.7294","td","null","null","null","null","null","null","[1,3]","484.6824325388305","461.2986296980822","473.27111075969236"
"","canvas-keyboard-response","185","135472","0.0-6.0-4.25","510","","","","","clear_screen","null","null","","","critical","t","c","d","240","164","164","240","232.8713","160.6713","trueblood","0.05","w","240","164","164","240","232.8713","160.6713","39360","39360","37415.7294","td","null","null","null","null","null","null","[1,3]","484.6824325388305","461.2986296980822","473.27111075969236"
"","canvas-keyboard-response","186","136235","0.0-6.0-5.25","510","","","","","make choice","758","1","","","critical","t","c","d","240","164","164","240","232.8713","160.6713","trueblood","0.05","w","240","164","164","240","232.8713","160.6713","39360","39360","37415.7294","td","null","null","null","null","null","null","[1,3]","","",""
"","canvas-keyboard-response","187","136253","0.0-6.0-6.25","510","","","","","clear_screen","null","null","","","critical","t","c","d","240","164","164","240","232.8713","160.6713","trueblood","0.05","w","240","164","164","240","232.8713","160.6713","39360","39360","37415.7294","td","null","null","null","null","null","null","[1,3]","","",""
"","canvas-keyboard-response","188","136455","0.0-6.0-0.26","510","","","","","pre trial waiting period","null","null","","","critical","d","t","c","220.0396","154.6796","240","164","164","240","trueblood","0.14","w","240","164","164","240","220.0396","154.6796","39360","39360","34035.6388","td","null","null","null","null","null","null","[2,1]","501.5984995985097","468.5723144694423","438.8279132996111"
"","canvas-keyboard-response","189","136475","0.0-6.0-1.26","510","","","","","clear_screen","null","null","","","critical","d","t","c","220.0396","154.6796","240","164","164","240","trueblood","0.14","w","240","164","164","240","220.0396","154.6796","39360","39360","34035.6388","td","null","null","null","null","null","null","[2,1]","501.5984995985097","468.5723144694423","438.8279132996111"
"","canvas-keyboard-response","190","136982","0.0-6.0-2.26","510","","","","","rectangles no change","null","null","","","critical","d","t","c","220.0396","154.6796","240","164","164","240","trueblood","0.14","w","240","164","164","240","220.0396","154.6796","39360","39360","34035.6388","td","null","null","null","null","null","null","[2,1]","501.5984995985097","468.5723144694423","438.8279132996111"
"","canvas-keyboard-response","191","138317","0.0-6.0-3.26","510","","","","","rectangles with change","null","null","","","critical","d","t","c","220.0396","154.6796","240","164","164","240","trueblood","0.14","w","240","164","164","240","220.0396","154.6796","39360","39360","34035.6388","td","null","null","null","null","null","null","[2,1]","501.5984995985097","468.5723144694423","438.8279132996111"
"","canvas-keyboard-response","192","138336","0.0-6.0-4.26","510","","","","","clear_screen","null","null","","","critical","d","t","c","220.0396","154.6796","240","164","164","240","trueblood","0.14","w","240","164","164","240","220.0396","154.6796","39360","39360","34035.6388","td","null","null","null","null","null","null","[2,1]","501.5984995985097","468.5723144694423","438.8279132996111"
"","canvas-keyboard-response","193","139157","0.0-6.0-5.26","510","","","","","make choice","811","2","","","critical","d","t","c","220.0396","154.6796","240","164","164","240","trueblood","0.14","w","240","164","164","240","220.0396","154.6796","39360","39360","34035.6388","td","null","null","null","null","null","null","[2,1]","","",""
"","canvas-keyboard-response","194","139176","0.0-6.0-6.26","510","","","","","clear_screen","null","null","","","critical","d","t","c","220.0396","154.6796","240","164","164","240","trueblood","0.14","w","240","164","164","240","220.0396","154.6796","39360","39360","34035.6388","td","null","null","null","null","null","null","[2,1]","","",""
"","canvas-keyboard-response","195","139377","0.0-6.0-0.27","510","","","","","pre trial waiting period","null","null","","","catch","sh","l","sw","229","158","236","224","195","236","spektor","null","null","null","null","null","null","null","null","null","null","null","","180","200","260","200","36000","52000","[1,2]","526.4537519435072","113.39861946154903","489.36661362225755"
"","canvas-keyboard-response","196","139398","0.0-6.0-1.27","510","","","","","clear_screen","null","null","","","catch","sh","l","sw","229","158","236","224","195","236","spektor","null","null","null","null","null","null","null","null","null","null","null","","180","200","260","200","36000","52000","[1,2]","526.4537519435072","113.39861946154903","489.36661362225755"
"","canvas-keyboard-response","197","139908","0.0-6.0-2.27","510","","","","","rectangles no change","null","null","","","catch","sh","l","sw","229","158","236","224","195","236","spektor","null","null","null","null","null","null","null","null","null","null","null","","180","200","260","200","36000","52000","[1,2]","526.4537519435072","113.39861946154903","489.36661362225755"
"","canvas-keyboard-response","198","141244","0.0-6.0-3.27","510","","","","","rectangles with change","null","null","","","catch","sh","l","sw","229","158","236","224","195","236","spektor","null","null","null","null","null","null","null","null","null","null","null","","180","200","260","200","36000","52000","[1,2]","526.4537519435072","113.39861946154903","489.36661362225755"
"","canvas-keyboard-response","199","141264","0.0-6.0-4.27","510","","","","","clear_screen","null","null","","","catch","sh","l","sw","229","158","236","224","195","236","spektor","null","null","null","null","null","null","null","null","null","null","null","","180","200","260","200","36000","52000","[1,2]","526.4537519435072","113.39861946154903","489.36661362225755"
"","canvas-keyboard-response","200","141773","0.0-6.0-5.27","510","","","","","make choice","503","2","","","catch","sh","l","sw","229","158","236","224","195","236","spektor","null","null","null","null","null","null","null","null","null","null","null","","180","200","260","200","36000","52000","[1,2]","","",""
"","canvas-keyboard-response","201","141794","0.0-6.0-6.27","510","","","","","clear_screen","null","null","","","catch","sh","l","sw","229","158","236","224","195","236","spektor","null","null","null","null","null","null","null","null","null","null","null","","180","200","260","200","36000","52000","[1,2]","","",""
"","canvas-keyboard-response","202","141995","0.0-6.0-0.28","510","","","","","pre trial waiting period","null","null","","","critical","t","d","c","240","164","220.0396","154.6796","164","240","spektor","0.14","w","240","164","164","240","220.0396","154.6796","39360","39360","34035.6388","dc","null","null","null","null","null","null","[2,3]","498.3086679758798","177.74813923130102","470.0327955017046"
"","canvas-keyboard-response","203","142014","0.0-6.0-1.28","510","","","","","clear_screen","null","null","","","critical","t","d","c","240","164","220.0396","154.6796","164","240","spektor","0.14","w","240","164","164","240","220.0396","154.6796","39360","39360","34035.6388","dc","null","null","null","null","null","null","[2,3]","498.3086679758798","177.74813923130102","470.0327955017046"
"","canvas-keyboard-response","204","142522","0.0-6.0-2.28","510","","","","","rectangles no change","null","null","","","critical","t","d","c","240","164","220.0396","154.6796","164","240","spektor","0.14","w","240","164","164","240","220.0396","154.6796","39360","39360","34035.6388","dc","null","null","null","null","null","null","[2,3]","498.3086679758798","177.74813923130102","470.0327955017046"
"","canvas-keyboard-response","205","143863","0.0-6.0-3.28","510","","","","","rectangles with change","null","null","","","critical","t","d","c","240","164","220.0396","154.6796","164","240","spektor","0.14","w","240","164","164","240","220.0396","154.6796","39360","39360","34035.6388","dc","null","null","null","null","null","null","[2,3]","498.3086679758798","177.74813923130102","470.0327955017046"
"","canvas-keyboard-response","206","143887","0.0-6.0-4.28","510","","","","","clear_screen","null","null","","","critical","t","d","c","240","164","220.0396","154.6796","164","240","spektor","0.14","w","240","164","164","240","220.0396","154.6796","39360","39360","34035.6388","dc","null","null","null","null","null","null","[2,3]","498.3086679758798","177.74813923130102","470.0327955017046"
"","canvas-keyboard-response","207","144188","0.0-6.0-5.28","510","","","","","make choice","290","3","","","critical","t","d","c","240","164","220.0396","154.6796","164","240","spektor","0.14","w","240","164","164","240","220.0396","154.6796","39360","39360","34035.6388","dc","null","null","null","null","null","null","[2,3]","","",""
"","canvas-keyboard-response","208","144207","0.0-6.0-6.28","510","","","","","clear_screen","null","null","","","critical","t","d","c","240","164","220.0396","154.6796","164","240","spektor","0.14","w","240","164","164","240","220.0396","154.6796","39360","39360","34035.6388","dc","null","null","null","null","null","null","[2,3]","","",""
"","canvas-keyboard-response","209","144408","0.0-6.0-0.29","510","","","","","pre trial waiting period","null","null","","","critical","c","d","t","240","164","162.6685","237.1485","164","240","trueblood","0.02","h","164","240","240","164","162.6685","237.1485","39360","39360","38576.5967","td","null","null","null","null","null","null","[3,2]","513.7292893365988","454.1992188401506","459.7722816484311"
"","canvas-keyboard-response","210","144429","0.0-6.0-1.29","510","","","","","clear_screen","null","null","","","critical","c","d","t","240","164","162.6685","237.1485","164","240","trueblood","0.02","h","164","240","240","164","162.6685","237.1485","39360","39360","38576.5967","td","null","null","null","null","null","null","[3,2]","513.7292893365988","454.1992188401506","459.7722816484311"
"","canvas-keyboard-response","211","144937","0.0-6.0-2.29","510","","","","","rectangles no change","null","null","","","critical","c","d","t","240","164","162.6685","237.1485","164","240","trueblood","0.02","h","164","240","240","164","162.6685","237.1485","39360","39360","38576.5967","td","null","null","null","null","null","null","[3,2]","513.7292893365988","454.1992188401506","459.7722816484311"
"","canvas-keyboard-response","212","146272","0.0-6.0-3.29","510","","","","","rectangles with change","null","null","","","critical","c","d","t","240","164","162.6685","237.1485","164","240","trueblood","0.02","h","164","240","240","164","162.6685","237.1485","39360","39360","38576.5967","td","null","null","null","null","null","null","[3,2]","513.7292893365988","454.1992188401506","459.7722816484311"
"","canvas-keyboard-response","213","146293","0.0-6.0-4.29","510","","","","","clear_screen","null","null","","","critical","c","d","t","240","164","162.6685","237.1485","164","240","trueblood","0.02","h","164","240","240","164","162.6685","237.1485","39360","39360","38576.5967","td","null","null","null","null","null","null","[3,2]","513.7292893365988","454.1992188401506","459.7722816484311"
"","canvas-keyboard-response","214","147107","0.0-6.0-5.29","510","","","","","make choice","811","2","","","critical","c","d","t","240","164","162.6685","237.1485","164","240","trueblood","0.02","h","164","240","240","164","162.6685","237.1485","39360","39360","38576.5967","td","null","null","null","null","null","null","[3,2]","","",""
"","canvas-keyboard-response","215","147125","0.0-6.0-6.29","510","","","","","clear_screen","null","null","","","critical","c","d","t","240","164","162.6685","237.1485","164","240","trueblood","0.02","h","164","240","240","164","162.6685","237.1485","39360","39360","38576.5967","td","null","null","null","null","null","null","[3,2]","","",""
"","canvas-keyboard-response","216","147326","0.0-6.0-0.30","510","","","","","pre trial waiting period","null","null","","","critical","t","c","d","164","240","240","164","162.6685","237.1485","trueblood","0.02","h","164","240","240","164","162.6685","237.1485","39360","39360","38576.5967","dc","null","null","null","null","null","null","[3,2]","439.48981443137086","471.35166384198914","461.22105892695265"
"","canvas-keyboard-response","217","147348","0.0-6.0-1.30","510","","","","","clear_screen","null","null","","","critical","t","c","d","164","240","240","164","162.6685","237.1485","trueblood","0.02","h","164","240","240","164","162.6685","237.1485","39360","39360","38576.5967","dc","null","null","null","null","null","null","[3,2]","439.48981443137086","471.35166384198914","461.22105892695265"
"","canvas-keyboard-response","218","147855","0.0-6.0-2.30","510","","","","","rectangles no change","null","null","","","critical","t","c","d","164","240","240","164","162.6685","237.1485","trueblood","0.02","h","164","240","240","164","162.6685","237.1485","39360","39360","38576.5967","dc","null","null","null","null","null","null","[3,2]","439.48981443137086","471.35166384198914","461.22105892695265"
"","canvas-keyboard-response","219","149190","0.0-6.0-3.30","510","","","","","rectangles with change","null","null","","","critical","t","c","d","164","240","240","164","162.6685","237.1485","trueblood","0.02","h","164","240","240","164","162.6685","237.1485","39360","39360","38576.5967","dc","null","null","null","null","null","null","[3,2]","439.48981443137086","471.35166384198914","461.22105892695265"
"","canvas-keyboard-response","220","149211","0.0-6.0-4.30","510","","","","","clear_screen","null","null","","","critical","t","c","d","164","240","240","164","162.6685","237.1485","trueblood","0.02","h","164","240","240","164","162.6685","237.1485","39360","39360","38576.5967","dc","null","null","null","null","null","null","[3,2]","439.48981443137086","471.35166384198914","461.22105892695265"
"","canvas-keyboard-response","221","149956","0.0-6.0-5.30","510","","","","","make choice","740","2","","","critical","t","c","d","164","240","240","164","162.6685","237.1485","trueblood","0.02","h","164","240","240","164","162.6685","237.1485","39360","39360","38576.5967","dc","null","null","null","null","null","null","[3,2]","","",""
"","canvas-keyboard-response","222","149975","0.0-6.0-6.30","510","","","","","clear_screen","null","null","","","critical","t","c","d","164","240","240","164","162.6685","237.1485","trueblood","0.02","h","164","240","240","164","162.6685","237.1485","39360","39360","38576.5967","dc","null","null","null","null","null","null","[3,2]","","",""
"","canvas-keyboard-response","223","150176","0.0-6.0-0.31","510","","","","","pre trial waiting period","null","null","","","critical","c","d","t","240","164","158.0083","227.1683","164","240","trueblood","0.09","h","164","240","240","164","158.0083","227.1683","39360","39360","35894.4834","dc","null","null","null","null","null","null","[2,1]","497.7344638847911","431.84168677564196","447.3777646107724"
"","canvas-keyboard-response","224","150196","0.0-6.0-1.31","510","","","","","clear_screen","null","null","","","critical","c","d","t","240","164","158.0083","227.1683","164","240","trueblood","0.09","h","164","240","240","164","158.0083","227.1683","39360","39360","35894.4834","dc","null","null","null","null","null","null","[2,1]","497.7344638847911","431.84168677564196","447.3777646107724"
"","canvas-keyboard-response","225","150700","0.0-6.0-2.31","510","","","","","rectangles no change","null","null","","","critical","c","d","t","240","164","158.0083","227.1683","164","240","trueblood","0.09","h","164","240","240","164","158.0083","227.1683","39360","39360","35894.4834","dc","null","null","null","null","null","null","[2,1]","497.7344638847911","431.84168677564196","447.3777646107724"
"","canvas-keyboard-response","226","152034","0.0-6.0-3.31","510","","","","","rectangles with change","null","null","","","critical","c","d","t","240","164","158.0083","227.1683","164","240","trueblood","0.09","h","164","240","240","164","158.0083","227.1683","39360","39360","35894.4834","dc","null","null","null","null","null","null","[2,1]","497.7344638847911","431.84168677564196","447.3777646107724"
"","canvas-keyboard-response","227","152055","0.0-6.0-4.31","510","","","","","clear_screen","null","null","","","critical","c","d","t","240","164","158.0083","227.1683","164","240","trueblood","0.09","h","164","240","240","164","158.0083","227.1683","39360","39360","35894.4834","dc","null","null","null","null","null","null","[2,1]","497.7344638847911","431.84168677564196","447.3777646107724"
"","canvas-keyboard-response","228","152548","0.0-6.0-5.31","510","","","","","make choice","487","1","","","critical","c","d","t","240","164","158.0083","227.1683","164","240","trueblood","0.09","h","164","240","240","164","158.0083","227.1683","39360","39360","35894.4834","dc","null","null","null","null","null","null","[2,1]","","",""
"","canvas-keyboard-response","229","152567","0.0-6.0-6.31","510","","","","","clear_screen","null","null","","","critical","c","d","t","240","164","158.0083","227.1683","164","240","trueblood","0.09","h","164","240","240","164","158.0083","227.1683","39360","39360","35894.4834","dc","null","null","null","null","null","null","[2,1]","","",""
"","canvas-keyboard-response","230","152769","0.0-6.0-0.32","510","","","","","pre trial waiting period","null","null","","","catch","sh","sw","l","193","166","184","166","292","184","spektor","null","null","null","null","null","null","null","null","null","null","null","","180","200","260","200","36000","52000","[1,3]","504.8814432234938","219.85608394496802","494.7027084472396"
"","canvas-keyboard-response","231","152788","0.0-6.0-1.32","510","","","","","clear_screen","null","null","","","catch","sh","sw","l","193","166","184","166","292","184","spektor","null","null","null","null","null","null","null","null","null","null","null","","180","200","260","200","36000","52000","[1,3]","504.8814432234938","219.85608394496802","494.7027084472396"
"","canvas-keyboard-response","232","153299","0.0-6.0-2.32","510","","","","","rectangles no change","null","null","","","catch","sh","sw","l","193","166","184","166","292","184","spektor","null","null","null","null","null","null","null","null","null","null","null","","180","200","260","200","36000","52000","[1,3]","504.8814432234938","219.85608394496802","494.7027084472396"
"","canvas-keyboard-response","233","154638","0.0-6.0-3.32","510","","","","","rectangles with change","null","null","","","catch","sh","sw","l","193","166","184","166","292","184","spektor","null","null","null","null","null","null","null","null","null","null","null","","180","200","260","200","36000","52000","[1,3]","504.8814432234938","219.85608394496802","494.7027084472396"
"","canvas-keyboard-response","234","154659","0.0-6.0-4.32","510","","","","","clear_screen","null","null","","","catch","sh","sw","l","193","166","184","166","292","184","spektor","null","null","null","null","null","null","null","null","null","null","null","","180","200","260","200","36000","52000","[1,3]","504.8814432234938","219.85608394496802","494.7027084472396"
"","canvas-keyboard-response","235","155172","0.0-6.0-5.32","510","","","","","make choice","509","3","","","catch","sh","sw","l","193","166","184","166","292","184","spektor","null","null","null","null","null","null","null","null","null","null","null","","180","200","260","200","36000","52000","[1,3]","","",""
"","canvas-keyboard-response","236","155191","0.0-6.0-6.32","510","","","","","clear_screen","null","null","","","catch","sh","sw","l","193","166","184","166","292","184","spektor","null","null","null","null","null","null","null","null","null","null","null","","180","200","260","200","36000","52000","[1,3]","","",""
"","canvas-keyboard-response","237","155392","0.0-6.0-0.33","510","","","","","pre trial waiting period","null","null","","","catch","l","sh","sw","234","226","180","200","174","237","spektor","null","null","null","null","null","null","null","null","null","null","null","","180","200","260","200","36000","52000","[1,3]","498.1676785906171","157.61175478567137","482.14837488757996"
"","canvas-keyboard-response","238","155415","0.0-6.0-1.33","510","","","","","clear_screen","null","null","","","catch","l","sh","sw","234","226","180","200","174","237","spektor","null","null","null","null","null","null","null","null","null","null","null","","180","200","260","200","36000","52000","[1,3]","498.1676785906171","157.61175478567137","482.14837488757996"
"","canvas-keyboard-response","239","155922","0.0-6.0-2.33","510","","","","","rectangles no change","null","null","","","catch","l","sh","sw","234","226","180","200","174","237","spektor","null","null","null","null","null","null","null","null","null","null","null","","180","200","260","200","36000","52000","[1,3]","498.1676785906171","157.61175478567137","482.14837488757996"
"","canvas-keyboard-response","240","157258","0.0-6.0-3.33","510","","","","","rectangles with change","null","null","","","catch","l","sh","sw","234","226","180","200","174","237","spektor","null","null","null","null","null","null","null","null","null","null","null","","180","200","260","200","36000","52000","[1,3]","498.1676785906171","157.61175478567137","482.14837488757996"
"","canvas-keyboard-response","241","157278","0.0-6.0-4.33","510","","","","","clear_screen","null","null","","","catch","l","sh","sw","234","226","180","200","174","237","spektor","null","null","null","null","null","null","null","null","null","null","null","","180","200","260","200","36000","52000","[1,3]","498.1676785906171","157.61175478567137","482.14837488757996"
"","canvas-keyboard-response","242","157778","0.0-6.0-5.33","510","","","","","make choice","496","1","","","catch","l","sh","sw","234","226","180","200","174","237","spektor","null","null","null","null","null","null","null","null","null","null","null","","180","200","260","200","36000","52000","[1,3]","","",""
"","canvas-keyboard-response","243","157793","0.0-6.0-6.33","510","","","","","clear_screen","null","null","","","catch","l","sh","sw","234","226","180","200","174","237","spektor","null","null","null","null","null","null","null","null","null","null","null","","180","200","260","200","36000","52000","[1,3]","","",""
"","canvas-keyboard-response","244","157995","0.0-6.0-0.34","510","","","","","pre trial waiting period","null","null","","","critical","d","c","t","227.1683","158.0083","164","240","240","164","spektor","0.09","w","240","164","164","240","227.1683","158.0083","39360","39360","35894.4834","tc","null","null","null","null","null","null","[3,2]","541.5968790348978","141.48593280182016","529.5216396714211"
"","canvas-keyboard-response","245","158014","0.0-6.0-1.34","510","","","","","clear_screen","null","null","","","critical","d","c","t","227.1683","158.0083","164","240","240","164","spektor","0.09","w","240","164","164","240","227.1683","158.0083","39360","39360","35894.4834","tc","null","null","null","null","null","null","[3,2]","541.5968790348978","141.48593280182016","529.5216396714211"
"","canvas-keyboard-response","246","158521","0.0-6.0-2.34","510","","","","","rectangles no change","null","null","","","critical","d","c","t","227.1683","158.0083","164","240","240","164","spektor","0.09","w","240","164","164","240","227.1683","158.0083","39360","39360","35894.4834","tc","null","null","null","null","null","null","[3,2]","541.5968790348978","141.48593280182016","529.5216396714211"
"","canvas-keyboard-response","247","159857","0.0-6.0-3.34","510","","","","","rectangles with change","null","null","","","critical","d","c","t","227.1683","158.0083","164","240","240","164","spektor","0.09","w","240","164","164","240","227.1683","158.0083","39360","39360","35894.4834","tc","null","null","null","null","null","null","[3,2]","541.5968790348978","141.48593280182016","529.5216396714211"
"","canvas-keyboard-response","248","159876","0.0-6.0-4.34","510","","","","","clear_screen","null","null","","","critical","d","c","t","227.1683","158.0083","164","240","240","164","spektor","0.09","w","240","164","164","240","227.1683","158.0083","39360","39360","35894.4834","tc","null","null","null","null","null","null","[3,2]","541.5968790348978","141.48593280182016","529.5216396714211"
"","canvas-keyboard-response","249","160580","0.0-6.0-5.34","510","","","","","make choice","699","3","","","critical","d","c","t","227.1683","158.0083","164","240","240","164","spektor","0.09","w","240","164","164","240","227.1683","158.0083","39360","39360","35894.4834","tc","null","null","null","null","null","null","[3,2]","","",""
"","canvas-keyboard-response","250","160601","0.0-6.0-6.34","510","","","","","clear_screen","null","null","","","critical","d","c","t","227.1683","158.0083","164","240","240","164","spektor","0.09","w","240","164","164","240","227.1683","158.0083","39360","39360","35894.4834","tc","null","null","null","null","null","null","[3,2]","","",""
"","canvas-keyboard-response","251","160801","0.0-6.0-0.35","510","","","","","pre trial waiting period","null","null","","","critical","d","t","c","232.8713","160.6713","240","164","164","240","spektor","0.05","w","240","164","164","240","232.8713","160.6713","39360","39360","37415.7294","tc","null","null","null","null","null","null","[2,3]","525.5830999821499","213.05332532524667","497.77705755821904"
"","canvas-keyboard-response","252","160820","0.0-6.0-1.35","510","","","","","clear_screen","null","null","","","critical","d","t","c","232.8713","160.6713","240","164","164","240","spektor","0.05","w","240","164","164","240","232.8713","160.6713","39360","39360","37415.7294","tc","null","null","null","null","null","null","[2,3]","525.5830999821499","213.05332532524667","497.77705755821904"
"","canvas-keyboard-response","253","161328","0.0-6.0-2.35","510","","","","","rectangles no change","null","null","","","critical","d","t","c","232.8713","160.6713","240","164","164","240","spektor","0.05","w","240","164","164","240","232.8713","160.6713","39360","39360","37415.7294","tc","null","null","null","null","null","null","[2,3]","525.5830999821499","213.05332532524667","497.77705755821904"
"","canvas-keyboard-response","254","162662","0.0-6.0-3.35","510","","","","","rectangles with change","null","null","","","critical","d","t","c","232.8713","160.6713","240","164","164","240","spektor","0.05","w","240","164","164","240","232.8713","160.6713","39360","39360","37415.7294","tc","null","null","null","null","null","null","[2,3]","525.5830999821499","213.05332532524667","497.77705755821904"
"","canvas-keyboard-response","255","162681","0.0-6.0-4.35","510","","","","","clear_screen","null","null","","","critical","d","t","c","232.8713","160.6713","240","164","164","240","spektor","0.05","w","240","164","164","240","232.8713","160.6713","39360","39360","37415.7294","tc","null","null","null","null","null","null","[2,3]","525.5830999821499","213.05332532524667","497.77705755821904"
"","canvas-keyboard-response","256","163468","0.0-6.0-5.35","510","","","","","make choice","779","2","","","critical","d","t","c","232.8713","160.6713","240","164","164","240","spektor","0.05","w","240","164","164","240","232.8713","160.6713","39360","39360","37415.7294","tc","null","null","null","null","null","null","[2,3]","","",""
"","canvas-keyboard-response","257","163487","0.0-6.0-6.35","510","","","","","clear_screen","null","null","","","critical","d","t","c","232.8713","160.6713","240","164","164","240","spektor","0.05","w","240","164","164","240","232.8713","160.6713","39360","39360","37415.7294","tc","null","null","null","null","null","null","[2,3]","","",""
"","canvas-keyboard-response","258","163688","0.0-6.0-0.36","510","","","","","pre trial waiting period","null","null","","","critical","d","t","c","154.6796","220.0396","164","240","240","164","trueblood","0.14","h","164","240","240","164","154.6796","220.0396","39360","39360","34035.6388","dc","null","null","null","null","null","null","[1,3]","437.7068053432042","452.9673879179696","483.4429413002637"
"","canvas-keyboard-response","259","163710","0.0-6.0-1.36","510","","","","","clear_screen","null","null","","","critical","d","t","c","154.6796","220.0396","164","240","240","164","trueblood","0.14","h","164","240","240","164","154.6796","220.0396","39360","39360","34035.6388","dc","null","null","null","null","null","null","[1,3]","437.7068053432042","452.9673879179696","483.4429413002637"
"","canvas-keyboard-response","260","164218","0.0-6.0-2.36","510","","","","","rectangles no change","null","null","","","critical","d","t","c","154.6796","220.0396","164","240","240","164","trueblood","0.14","h","164","240","240","164","154.6796","220.0396","39360","39360","34035.6388","dc","null","null","null","null","null","null","[1,3]","437.7068053432042","452.9673879179696","483.4429413002637"
"","canvas-keyboard-response","261","165556","0.0-6.0-3.36","510","","","","","rectangles with change","null","null","","","critical","d","t","c","154.6796","220.0396","164","240","240","164","trueblood","0.14","h","164","240","240","164","154.6796","220.0396","39360","39360","34035.6388","dc","null","null","null","null","null","null","[1,3]","437.7068053432042","452.9673879179696","483.4429413002637"
"","canvas-keyboard-response","262","165576","0.0-6.0-4.36","510","","","","","clear_screen","null","null","","","critical","d","t","c","154.6796","220.0396","164","240","240","164","trueblood","0.14","h","164","240","240","164","154.6796","220.0396","39360","39360","34035.6388","dc","null","null","null","null","null","null","[1,3]","437.7068053432042","452.9673879179696","483.4429413002637"
"","canvas-keyboard-response","263","165956","0.0-6.0-5.36","510","","","","","make choice","375","3","","","critical","d","t","c","154.6796","220.0396","164","240","240","164","trueblood","0.14","h","164","240","240","164","154.6796","220.0396","39360","39360","34035.6388","dc","null","null","null","null","null","null","[1,3]","","",""
"","canvas-keyboard-response","264","165972","0.0-6.0-6.36","510","","","","","clear_screen","null","null","","","critical","d","t","c","154.6796","220.0396","164","240","240","164","trueblood","0.14","h","164","240","240","164","154.6796","220.0396","39360","39360","34035.6388","dc","null","null","null","null","null","null","[1,3]","","",""
"","canvas-keyboard-response","265","166174","0.0-6.0-0.37","510","","","","","pre trial waiting period","null","null","","","catch","sh","l","sw","187","167","258","204","186","182","spektor","null","null","null","null","null","null","null","null","null","null","null","","180","200","260","200","36000","52000","[2,3]","492.1674398050345","181.07333919464452","526.9316444097717"
"","canvas-keyboard-response","266","166196","0.0-6.0-1.37","510","","","","","clear_screen","null","null","","","catch","sh","l","sw","187","167","258","204","186","182","spektor","null","null","null","null","null","null","null","null","null","null","null","","180","200","260","200","36000","52000","[2,3]","492.1674398050345","181.07333919464452","526.9316444097717"
