"success","trial_type","trial_index","time_elapsed","internal_node_id","sub_n","timeout","failed_images","failed_audio","failed_video","screen_id","rt","response","stimulus","view_history","trial","r1","r2","r3","w1","h1","w2","h2","w3","h3","display","tdd","tdo","tw","th","cw","ch","dw","dh","ta","ca","da","probe","csls","csss","clls","clss","sa","la","probe_rects","r1yloc","r2yloc","r3yloc"
"true","fullscreen","0","3044","0.0-0.0","516","","","","","","","","","","","","","","","","","","","","","","","","","","","","","","","","","","","","","","","","","",""
"true","preload","1","3096","0.0-1.0","516","false","[]","[]","[]","img preload","","","","","","","","","","","","","","","","","","","","","","","","","","","","","","","","","","","","",""
"","survey-html-form","2","9261","0.0-2.0","516","","","","","enter-sub-number","6156","{""response"":""516""}","","","","","","","","","","","","","","","","","","","","","","","","","","","","","","","","","","",""
"","image-button-response","3","22624","0.0-3.0","516","","","","","","13293","0","consent.png","","","","","","","","","","","","","","","","","","","","","","","","","","","","","","","","","",""
"","html-button-response","4","27239","0.0-4.0","516","","","","","intro mssg","4609","0","<div style= ""font-size:25px;"" <p> <strong> Welcome! </strong><br> <p style=""color:#8B0000; font-size:25px;""><strong> Please do NOT exit full screen until you are done with the experiment. </strong> </p><p style=""font-size:25px;color:#8B0000;""> <strong> Your data will be lost <br> if you try to go back or refresh the page after the experiment starts. Feel free to click ""previous"" during the instructions, however.</strong> </p><br><p> <strong> Thanks in advance for your contribution to our research! </strong></p>","","","","","","","","","","","","","","","","","","","","","","","","","","","","","","","","","",""
"","instructions","5","97281","0.0-5.0","516","","","","","instructions","70034","","","[{""page_index"":0,""viewing_time"":19456},{""page_index"":1,""viewing_time"":9817},{""page_index"":2,""viewing_time"":2678},{""page_index"":3,""viewing_time"":20474},{""page_index"":4,""viewing_time"":9448},{""page_index"":5,""viewing_time"":3199},{""page_index"":6,""viewing_time"":2657},{""page_index"":7,""viewing_time"":2304}]","","","","","","","","","","","","","","","","","","","","","","","","","","","","","","","","",""
"","canvas-keyboard-response","6","97487","0.0-6.0-0.0","516","","","","","pre trial waiting period","null","null","","","critical","d","c","t","240","164","164","240","240","164","spektor","0","w","240","164","164","240","240","164","39360","39360","39360","dc","null","null","null","null","null","null","[1,2]","517.5912776569984","158.1840850925516","535.2613739389334"
"","canvas-keyboard-response","7","97510","0.0-6.0-1.0","516","","","","","clear_screen","null","null","","","critical","d","c","t","240","164","164","240","240","164","spektor","0","w","240","164","164","240","240","164","39360","39360","39360","dc","null","null","null","null","null","null","[1,2]","517.5912776569984","158.1840850925516","535.2613739389334"
"","canvas-keyboard-response","8","98021","0.0-6.0-2.0","516","","","","","rectangles no change","null","null","","","critical","d","c","t","240","164","164","240","240","164","spektor","0","w","240","164","164","240","240","164","39360","39360","39360","dc","null","null","null","null","null","null","[1,2]","517.5912776569984","158.1840850925516","535.2613739389334"
"","canvas-keyboard-response","9","99357","0.0-6.0-3.0","516","","","","","rectangles with change","null","null","","","critical","d","c","t","240","164","164","240","240","164","spektor","0","w","240","164","164","240","240","164","39360","39360","39360","dc","null","null","null","null","null","null","[1,2]","517.5912776569984","158.1840850925516","535.2613739389334"
"","canvas-keyboard-response","10","99377","0.0-6.0-4.0","516","","","","","clear_screen","null","null","","","critical","d","c","t","240","164","164","240","240","164","spektor","0","w","240","164","164","240","240","164","39360","39360","39360","dc","null","null","null","null","null","null","[1,2]","517.5912776569984","158.1840850925516","535.2613739389334"
"","canvas-keyboard-response","11","104471","0.0-6.0-5.0","516","","","","","make choice","5084","1","","","critical","d","c","t","240","164","164","240","240","164","spektor","0","w","240","164","164","240","240","164","39360","39360","39360","dc","null","null","null","null","null","null","[1,2]","","",""
"","canvas-keyboard-response","12","104492","0.0-6.0-6.0","516","","","","","clear_screen","null","null","","","critical","d","c","t","240","164","164","240","240","164","spektor","0","w","240","164","164","240","240","164","39360","39360","39360","dc","null","null","null","null","null","null","[1,2]","","",""
"","canvas-keyboard-response","13","104694","0.0-6.0-0.1","516","","","","","pre trial waiting period","null","null","","","critical","t","d","c","240","164","220.0396","154.6796","164","240","spektor","0.14","w","240","164","164","240","220.0396","154.6796","39360","39360","34035.6388","dc","null","null","null","null","null","null","[2,3]","498.4023001878685","180.28757278745545","455.9980833954186"
"","canvas-keyboard-response","14","104715","0.0-6.0-1.1","516","","","","","clear_screen","null","null","","","critical","t","d","c","240","164","220.0396","154.6796","164","240","spektor","0.14","w","240","164","164","240","220.0396","154.6796","39360","39360","34035.6388","dc","null","null","null","null","null","null","[2,3]","498.4023001878685","180.28757278745545","455.9980833954186"
"","canvas-keyboard-response","15","105223","0.0-6.0-2.1","516","","","","","rectangles no change","null","null","","","critical","t","d","c","240","164","220.0396","154.6796","164","240","spektor","0.14","w","240","164","164","240","220.0396","154.6796","39360","39360","34035.6388","dc","null","null","null","null","null","null","[2,3]","498.4023001878685","180.28757278745545","455.9980833954186"
"","canvas-keyboard-response","16","106563","0.0-6.0-3.1","516","","","","","rectangles with change","null","null","","","critical","t","d","c","240","164","220.0396","154.6796","164","240","spektor","0.14","w","240","164","164","240","220.0396","154.6796","39360","39360","34035.6388","dc","null","null","null","null","null","null","[2,3]","498.4023001878685","180.28757278745545","455.9980833954186"
"","canvas-keyboard-response","17","106583","0.0-6.0-4.1","516","","","","","clear_screen","null","null","","","critical","t","d","c","240","164","220.0396","154.6796","164","240","spektor","0.14","w","240","164","164","240","220.0396","154.6796","39360","39360","34035.6388","dc","null","null","null","null","null","null","[2,3]","498.4023001878685","180.28757278745545","455.9980833954186"
"","canvas-keyboard-response","18","108343","0.0-6.0-5.1","516","","","","","make choice","1751","3","","","critical","t","d","c","240","164","220.0396","154.6796","164","240","spektor","0.14","w","240","164","164","240","220.0396","154.6796","39360","39360","34035.6388","dc","null","null","null","null","null","null","[2,3]","","",""
"","canvas-keyboard-response","19","108363","0.0-6.0-6.1","516","","","","","clear_screen","null","null","","","critical","t","d","c","240","164","220.0396","154.6796","164","240","spektor","0.14","w","240","164","164","240","220.0396","154.6796","39360","39360","34035.6388","dc","null","null","null","null","null","null","[2,3]","","",""
"","canvas-keyboard-response","20","108565","0.0-6.0-0.2","516","","","","","pre trial waiting period","null","null","","","critical","c","t","d","164","240","240","164","240","164","trueblood","0","w","240","164","164","240","240","164","39360","39360","39360","td","null","null","null","null","null","null","[2,3]","466.40284094352256","498.6879019082323","496.7971243870111"
"","canvas-keyboard-response","21","108585","0.0-6.0-1.2","516","","","","","clear_screen","null","null","","","critical","c","t","d","164","240","240","164","240","164","trueblood","0","w","240","164","164","240","240","164","39360","39360","39360","td","null","null","null","null","null","null","[2,3]","466.40284094352256","498.6879019082323","496.7971243870111"
"","canvas-keyboard-response","22","109094","0.0-6.0-2.2","516","","","","","rectangles no change","null","null","","","critical","c","t","d","164","240","240","164","240","164","trueblood","0","w","240","164","164","240","240","164","39360","39360","39360","td","null","null","null","null","null","null","[2,3]","466.40284094352256","498.6879019082323","496.7971243870111"
"","canvas-keyboard-response","23","110433","0.0-6.0-3.2","516","","","","","rectangles with change","null","null","","","critical","c","t","d","164","240","240","164","240","164","trueblood","0","w","240","164","164","240","240","164","39360","39360","39360","td","null","null","null","null","null","null","[2,3]","466.40284094352256","498.6879019082323","496.7971243870111"
"","canvas-keyboard-response","24","110455","0.0-6.0-4.2","516","","","","","clear_screen","null","null","","","critical","c","t","d","164","240","240","164","240","164","trueblood","0","w","240","164","164","240","240","164","39360","39360","39360","td","null","null","null","null","null","null","[2,3]","466.40284094352256","498.6879019082323","496.7971243870111"
"","canvas-keyboard-response","25","112047","0.0-6.0-5.2","516","","","","","make choice","1586","3","","","critical","c","t","d","164","240","240","164","240","164","trueblood","0","w","240","164","164","240","240","164","39360","39360","39360","td","null","null","null","null","null","null","[2,3]","","",""
"","canvas-keyboard-response","26","112066","0.0-6.0-6.2","516","","","","","clear_screen","null","null","","","critical","c","t","d","164","240","240","164","240","164","trueblood","0","w","240","164","164","240","240","164","39360","39360","39360","td","null","null","null","null","null","null","[2,3]","","",""
"","canvas-keyboard-response","27","112267","0.0-6.0-0.3","516","","","","","pre trial waiting period","null","null","","","critical","t","d","c","240","164","237.1485","162.6685","164","240","trueblood","0.02","w","240","164","164","240","237.1485","162.6685","39360","39360","38576.5967","td","null","null","null","null","null","null","[1,2]","482.3880890152242","493.2889884903049","467.9580132630045"
"","canvas-keyboard-response","28","112291","0.0-6.0-1.3","516","","","","","clear_screen","null","null","","","critical","t","d","c","240","164","237.1485","162.6685","164","240","trueblood","0.02","w","240","164","164","240","237.1485","162.6685","39360","39360","38576.5967","td","null","null","null","null","null","null","[1,2]","482.3880890152242","493.2889884903049","467.9580132630045"
"","canvas-keyboard-response","29","112799","0.0-6.0-2.3","516","","","","","rectangles no change","null","null","","","critical","t","d","c","240","164","237.1485","162.6685","164","240","trueblood","0.02","w","240","164","164","240","237.1485","162.6685","39360","39360","38576.5967","td","null","null","null","null","null","null","[1,2]","482.3880890152242","493.2889884903049","467.9580132630045"
"","canvas-keyboard-response","30","114136","0.0-6.0-3.3","516","","","","","rectangles with change","null","null","","","critical","t","d","c","240","164","237.1485","162.6685","164","240","trueblood","0.02","w","240","164","164","240","237.1485","162.6685","39360","39360","38576.5967","td","null","null","null","null","null","null","[1,2]","482.3880890152242","493.2889884903049","467.9580132630045"
"","canvas-keyboard-response","31","114157","0.0-6.0-4.3","516","","","","","clear_screen","null","null","","","critical","t","d","c","240","164","237.1485","162.6685","164","240","trueblood","0.02","w","240","164","164","240","237.1485","162.6685","39360","39360","38576.5967","td","null","null","null","null","null","null","[1,2]","482.3880890152242","493.2889884903049","467.9580132630045"
"","canvas-keyboard-response","32","115768","0.0-6.0-5.3","516","","","","","make choice","1603","1","","","critical","t","d","c","240","164","237.1485","162.6685","164","240","trueblood","0.02","w","240","164","164","240","237.1485","162.6685","39360","39360","38576.5967","td","null","null","null","null","null","null","[1,2]","","",""
"","canvas-keyboard-response","33","115789","0.0-6.0-6.3","516","","","","","clear_screen","null","null","","","critical","t","d","c","240","164","237.1485","162.6685","164","240","trueblood","0.02","w","240","164","164","240","237.1485","162.6685","39360","39360","38576.5967","td","null","null","null","null","null","null","[1,2]","","",""
"","canvas-keyboard-response","34","115990","0.0-6.0-0.4","516","","","","","pre trial waiting period","null","null","","","critical","c","d","t","240","164","160.6713","232.8713","164","240","spektor","0.05","h","164","240","240","164","160.6713","232.8713","39360","39360","37415.7294","td","null","null","null","null","null","null","[3,2]","513.8025614621915","108.3362264126497","457.7109745275663"
"","canvas-keyboard-response","35","116013","0.0-6.0-1.4","516","","","","","clear_screen","null","null","","","critical","c","d","t","240","164","160.6713","232.8713","164","240","spektor","0.05","h","164","240","240","164","160.6713","232.8713","39360","39360","37415.7294","td","null","null","null","null","null","null","[3,2]","513.8025614621915","108.3362264126497","457.7109745275663"
"","canvas-keyboard-response","36","116522","0.0-6.0-2.4","516","","","","","rectangles no change","null","null","","","critical","c","d","t","240","164","160.6713","232.8713","164","240","spektor","0.05","h","164","240","240","164","160.6713","232.8713","39360","39360","37415.7294","td","null","null","null","null","null","null","[3,2]","513.8025614621915","108.3362264126497","457.7109745275663"
"","canvas-keyboard-response","37","117857","0.0-6.0-3.4","516","","","","","rectangles with change","null","null","","","critical","c","d","t","240","164","160.6713","232.8713","164","240","spektor","0.05","h","164","240","240","164","160.6713","232.8713","39360","39360","37415.7294","td","null","null","null","null","null","null","[3,2]","513.8025614621915","108.3362264126497","457.7109745275663"
"","canvas-keyboard-response","38","117877","0.0-6.0-4.4","516","","","","","clear_screen","null","null","","","critical","c","d","t","240","164","160.6713","232.8713","164","240","spektor","0.05","h","164","240","240","164","160.6713","232.8713","39360","39360","37415.7294","td","null","null","null","null","null","null","[3,2]","513.8025614621915","108.3362264126497","457.7109745275663"
"","canvas-keyboard-response","39","119463","0.0-6.0-5.4","516","","","","","make choice","1578","3","","","critical","c","d","t","240","164","160.6713","232.8713","164","240","spektor","0.05","h","164","240","240","164","160.6713","232.8713","39360","39360","37415.7294","td","null","null","null","null","null","null","[3,2]","","",""
"","canvas-keyboard-response","40","119482","0.0-6.0-6.4","516","","","","","clear_screen","null","null","","","critical","c","d","t","240","164","160.6713","232.8713","164","240","spektor","0.05","h","164","240","240","164","160.6713","232.8713","39360","39360","37415.7294","td","null","null","null","null","null","null","[3,2]","","",""
"","canvas-keyboard-response","41","119684","0.0-6.0-0.5","516","","","","","pre trial waiting period","null","null","","","critical","c","t","d","164","240","240","164","232.8713","160.6713","trueblood","0.05","w","240","164","164","240","232.8713","160.6713","39360","39360","37415.7294","dc","null","null","null","null","null","null","[3,1]","453.7797806742888","489.60529913267726","474.0267996841769"
"","canvas-keyboard-response","42","119706","0.0-6.0-1.5","516","","","","","clear_screen","null","null","","","critical","c","t","d","164","240","240","164","232.8713","160.6713","trueblood","0.05","w","240","164","164","240","232.8713","160.6713","39360","39360","37415.7294","dc","null","null","null","null","null","null","[3,1]","453.7797806742888","489.60529913267726","474.0267996841769"
"","canvas-keyboard-response","43","120214","0.0-6.0-2.5","516","","","","","rectangles no change","null","null","","","critical","c","t","d","164","240","240","164","232.8713","160.6713","trueblood","0.05","w","240","164","164","240","232.8713","160.6713","39360","39360","37415.7294","dc","null","null","null","null","null","null","[3,1]","453.7797806742888","489.60529913267726","474.0267996841769"
"","canvas-keyboard-response","44","121550","0.0-6.0-3.5","516","","","","","rectangles with change","null","null","","","critical","c","t","d","164","240","240","164","232.8713","160.6713","trueblood","0.05","w","240","164","164","240","232.8713","160.6713","39360","39360","37415.7294","dc","null","null","null","null","null","null","[3,1]","453.7797806742888","489.60529913267726","474.0267996841769"
"","canvas-keyboard-response","45","121573","0.0-6.0-4.5","516","","","","","clear_screen","null","null","","","critical","c","t","d","164","240","240","164","232.8713","160.6713","trueblood","0.05","w","240","164","164","240","232.8713","160.6713","39360","39360","37415.7294","dc","null","null","null","null","null","null","[3,1]","453.7797806742888","489.60529913267726","474.0267996841769"
"","canvas-keyboard-response","46","125200","0.0-6.0-5.5","516","","","","","make choice","3620","3","","","critical","c","t","d","164","240","240","164","232.8713","160.6713","trueblood","0.05","w","240","164","164","240","232.8713","160.6713","39360","39360","37415.7294","dc","null","null","null","null","null","null","[3,1]","","",""
"","canvas-keyboard-response","47","125219","0.0-6.0-6.5","516","","","","","clear_screen","null","null","","","critical","c","t","d","164","240","240","164","232.8713","160.6713","trueblood","0.05","w","240","164","164","240","232.8713","160.6713","39360","39360","37415.7294","dc","null","null","null","null","null","null","[3,1]","","",""
"","canvas-keyboard-response","48","125419","0.0-6.0-0.6","516","","","","","pre trial waiting period","null","null","","","critical","t","d","c","164","240","160.6713","232.8713","240","164","trueblood","0.05","h","164","240","240","164","160.6713","232.8713","39360","39360","37415.7294","dc","null","null","null","null","null","null","[2,3]","421.5483936730871","448.405341112847","507.5502858326993"
"","canvas-keyboard-response","49","125438","0.0-6.0-1.6","516","","","","","clear_screen","null","null","","","critical","t","d","c","164","240","160.6713","232.8713","240","164","trueblood","0.05","h","164","240","240","164","160.6713","232.8713","39360","39360","37415.7294","dc","null","null","null","null","null","null","[2,3]","421.5483936730871","448.405341112847","507.5502858326993"
"","canvas-keyboard-response","50","125944","0.0-6.0-2.6","516","","","","","rectangles no change","null","null","","","critical","t","d","c","164","240","160.6713","232.8713","240","164","trueblood","0.05","h","164","240","240","164","160.6713","232.8713","39360","39360","37415.7294","dc","null","null","null","null","null","null","[2,3]","421.5483936730871","448.405341112847","507.5502858326993"
"","canvas-keyboard-response","51","127278","0.0-6.0-3.6","516","","","","","rectangles with change","null","null","","","critical","t","d","c","164","240","160.6713","232.8713","240","164","trueblood","0.05","h","164","240","240","164","160.6713","232.8713","39360","39360","37415.7294","dc","null","null","null","null","null","null","[2,3]","421.5483936730871","448.405341112847","507.5502858326993"
"","canvas-keyboard-response","52","127297","0.0-6.0-4.6","516","","","","","clear_screen","null","null","","","critical","t","d","c","164","240","160.6713","232.8713","240","164","trueblood","0.05","h","164","240","240","164","160.6713","232.8713","39360","39360","37415.7294","dc","null","null","null","null","null","null","[2,3]","421.5483936730871","448.405341112847","507.5502858326993"
"","canvas-keyboard-response","53","129511","0.0-6.0-5.6","516","","","","","make choice","2206","2","","","critical","t","d","c","164","240","160.6713","232.8713","240","164","trueblood","0.05","h","164","240","240","164","160.6713","232.8713","39360","39360","37415.7294","dc","null","null","null","null","null","null","[2,3]","","",""
"","canvas-keyboard-response","54","129533","0.0-6.0-6.6","516","","","","","clear_screen","null","null","","","critical","t","d","c","164","240","160.6713","232.8713","240","164","trueblood","0.05","h","164","240","240","164","160.6713","232.8713","39360","39360","37415.7294","dc","null","null","null","null","null","null","[2,3]","","",""
"","canvas-keyboard-response","55","129734","0.0-6.0-0.7","516","","","","","pre trial waiting period","null","null","","","critical","t","c","d","164","240","240","164","162.6685","237.1485","trueblood","0.02","h","164","240","240","164","162.6685","237.1485","39360","39360","38576.5967","tc","null","null","null","null","null","null","[1,2]","433.21298161794925","498.60761248753005","449.0059716607529"
"","canvas-keyboard-response","56","129753","0.0-6.0-1.7","516","","","","","clear_screen","null","null","","","critical","t","c","d","164","240","240","164","162.6685","237.1485","trueblood","0.02","h","164","240","240","164","162.6685","237.1485","39360","39360","38576.5967","tc","null","null","null","null","null","null","[1,2]","433.21298161794925","498.60761248753005","449.0059716607529"
"","canvas-keyboard-response","57","130264","0.0-6.0-2.7","516","","","","","rectangles no change","null","null","","","critical","t","c","d","164","240","240","164","162.6685","237.1485","trueblood","0.02","h","164","240","240","164","162.6685","237.1485","39360","39360","38576.5967","tc","null","null","null","null","null","null","[1,2]","433.21298161794925","498.60761248753005","449.0059716607529"
"","canvas-keyboard-response","58","131602","0.0-6.0-3.7","516","","","","","rectangles with change","null","null","","","critical","t","c","d","164","240","240","164","162.6685","237.1485","trueblood","0.02","h","164","240","240","164","162.6685","237.1485","39360","39360","38576.5967","tc","null","null","null","null","null","null","[1,2]","433.21298161794925","498.60761248753005","449.0059716607529"
"","canvas-keyboard-response","59","131626","0.0-6.0-4.7","516","","","","","clear_screen","null","null","","","critical","t","c","d","164","240","240","164","162.6685","237.1485","trueblood","0.02","h","164","240","240","164","162.6685","237.1485","39360","39360","38576.5967","tc","null","null","null","null","null","null","[1,2]","433.21298161794925","498.60761248753005","449.0059716607529"
"","canvas-keyboard-response","60","134094","0.0-6.0-5.7","516","","","","","make choice","2463","1","","","critical","t","c","d","164","240","240","164","162.6685","237.1485","trueblood","0.02","h","164","240","240","164","162.6685","237.1485","39360","39360","38576.5967","tc","null","null","null","null","null","null","[1,2]","","",""
"","canvas-keyboard-response","61","134114","0.0-6.0-6.7","516","","","","","clear_screen","null","null","","","critical","t","c","d","164","240","240","164","162.6685","237.1485","trueblood","0.02","h","164","240","240","164","162.6685","237.1485","39360","39360","38576.5967","tc","null","null","null","null","null","null","[1,2]","","",""
"","canvas-keyboard-response","62","134316","0.0-6.0-0.8","516","","","","","pre trial waiting period","null","null","","","catch","sh","l","sw","231","152","233","187","163","165","trueblood","null","null","null","null","null","null","null","null","null","null","null","","180","200","260","200","36000","52000","[2,3]","493.23119935577597","459.50334873468853","485.2290047964219"
"","canvas-keyboard-response","63","134339","0.0-6.0-1.8","516","","","","","clear_screen","null","null","","","catch","sh","l","sw","231","152","233","187","163","165","trueblood","null","null","null","null","null","null","null","null","null","null","null","","180","200","260","200","36000","52000","[2,3]","493.23119935577597","459.50334873468853","485.2290047964219"
"","canvas-keyboard-response","64","134845","0.0-6.0-2.8","516","","","","","rectangles no change","null","null","","","catch","sh","l","sw","231","152","233","187","163","165","trueblood","null","null","null","null","null","null","null","null","null","null","null","","180","200","260","200","36000","52000","[2,3]","493.23119935577597","459.50334873468853","485.2290047964219"
"","canvas-keyboard-response","65","136181","0.0-6.0-3.8","516","","","","","rectangles with change","null","null","","","catch","sh","l","sw","231","152","233","187","163","165","trueblood","null","null","null","null","null","null","null","null","null","null","null","","180","200","260","200","36000","52000","[2,3]","493.23119935577597","459.50334873468853","485.2290047964219"
"","canvas-keyboard-response","66","136206","0.0-6.0-4.8","516","","","","","clear_screen","null","null","","","catch","sh","l","sw","231","152","233","187","163","165","trueblood","null","null","null","null","null","null","null","null","null","null","null","","180","200","260","200","36000","52000","[2,3]","493.23119935577597","459.50334873468853","485.2290047964219"
"","canvas-keyboard-response","67","137111","0.0-6.0-5.8","516","","","","","make choice","899","2","","","catch","sh","l","sw","231","152","233","187","163","165","trueblood","null","null","null","null","null","null","null","null","null","null","null","","180","200","260","200","36000","52000","[2,3]","","",""
"","canvas-keyboard-response","68","137130","0.0-6.0-6.8","516","","","","","clear_screen","null","null","","","catch","sh","l","sw","231","152","233","187","163","165","trueblood","null","null","null","null","null","null","null","null","null","null","null","","180","200","260","200","36000","52000","[2,3]","","",""
"","canvas-keyboard-response","69","137333","0.0-6.0-0.9","516","","","","","pre trial waiting period","null","null","","","critical","c","d","t","240","164","162.6685","237.1485","164","240","spektor","0.02","h","164","240","240","164","162.6685","237.1485","39360","39360","38576.5967","dc","null","null","null","null","null","null","[2,1]","496.4385549555336","136.56133602548692","499.93969318579343"
"","canvas-keyboard-response","70","137354","0.0-6.0-1.9","516","","","","","clear_screen","null","null","","","critical","c","d","t","240","164","162.6685","237.1485","164","240","spektor","0.02","h","164","240","240","164","162.6685","237.1485","39360","39360","38576.5967","dc","null","null","null","null","null","null","[2,1]","496.4385549555336","136.56133602548692","499.93969318579343"
"","canvas-keyboard-response","71","137861","0.0-6.0-2.9","516","","","","","rectangles no change","null","null","","","critical","c","d","t","240","164","162.6685","237.1485","164","240","spektor","0.02","h","164","240","240","164","162.6685","237.1485","39360","39360","38576.5967","dc","null","null","null","null","null","null","[2,1]","496.4385549555336","136.56133602548692","499.93969318579343"
"","canvas-keyboard-response","72","139198","0.0-6.0-3.9","516","","","","","rectangles with change","null","null","","","critical","c","d","t","240","164","162.6685","237.1485","164","240","spektor","0.02","h","164","240","240","164","162.6685","237.1485","39360","39360","38576.5967","dc","null","null","null","null","null","null","[2,1]","496.4385549555336","136.56133602548692","499.93969318579343"
"","canvas-keyboard-response","73","139217","0.0-6.0-4.9","516","","","","","clear_screen","null","null","","","critical","c","d","t","240","164","162.6685","237.1485","164","240","spektor","0.02","h","164","240","240","164","162.6685","237.1485","39360","39360","38576.5967","dc","null","null","null","null","null","null","[2,1]","496.4385549555336","136.56133602548692","499.93969318579343"
"","canvas-keyboard-response","74","140502","0.0-6.0-5.9","516","","","","","make choice","1279","1","","","critical","c","d","t","240","164","162.6685","237.1485","164","240","spektor","0.02","h","164","240","240","164","162.6685","237.1485","39360","39360","38576.5967","dc","null","null","null","null","null","null","[2,1]","","",""
"","canvas-keyboard-response","75","140520","0.0-6.0-6.9","516","","","","","clear_screen","null","null","","","critical","c","d","t","240","164","162.6685","237.1485","164","240","spektor","0.02","h","164","240","240","164","162.6685","237.1485","39360","39360","38576.5967","dc","null","null","null","null","null","null","[2,1]","","",""
"","canvas-keyboard-response","76","140721","0.0-6.0-0.10","516","","","","","pre trial waiting period","null","null","","","critical","d","t","c","220.0396","154.6796","240","164","164","240","trueblood","0.14","w","240","164","164","240","220.0396","154.6796","39360","39360","34035.6388","dc","null","null","null","null","null","null","[1,3]","513.1997014260843","513.4120178567132","451.10447779557626"
"","canvas-keyboard-response","77","140741","0.0-6.0-1.10","516","","","","","clear_screen","null","null","","","critical","d","t","c","220.0396","154.6796","240","164","164","240","trueblood","0.14","w","240","164","164","240","220.0396","154.6796","39360","39360","34035.6388","dc","null","null","null","null","null","null","[1,3]","513.1997014260843","513.4120178567132","451.10447779557626"
"","canvas-keyboard-response","78","141249","0.0-6.0-2.10","516","","","","","rectangles no change","null","null","","","critical","d","t","c","220.0396","154.6796","240","164","164","240","trueblood","0.14","w","240","164","164","240","220.0396","154.6796","39360","39360","34035.6388","dc","null","null","null","null","null","null","[1,3]","513.1997014260843","513.4120178567132","451.10447779557626"
"","canvas-keyboard-response","79","142586","0.0-6.0-3.10","516","","","","","rectangles with change","null","null","","","critical","d","t","c","220.0396","154.6796","240","164","164","240","trueblood","0.14","w","240","164","164","240","220.0396","154.6796","39360","39360","34035.6388","dc","null","null","null","null","null","null","[1,3]","513.1997014260843","513.4120178567132","451.10447779557626"
"","canvas-keyboard-response","80","142609","0.0-6.0-4.10","516","","","","","clear_screen","null","null","","","critical","d","t","c","220.0396","154.6796","240","164","164","240","trueblood","0.14","w","240","164","164","240","220.0396","154.6796","39360","39360","34035.6388","dc","null","null","null","null","null","null","[1,3]","513.1997014260843","513.4120178567132","451.10447779557626"
"","canvas-keyboard-response","81","144439","0.0-6.0-5.10","516","","","","","make choice","1822","3","","","critical","d","t","c","220.0396","154.6796","240","164","164","240","trueblood","0.14","w","240","164","164","240","220.0396","154.6796","39360","39360","34035.6388","dc","null","null","null","null","null","null","[1,3]","","",""
"","canvas-keyboard-response","82","144459","0.0-6.0-6.10","516","","","","","clear_screen","null","null","","","critical","d","t","c","220.0396","154.6796","240","164","164","240","trueblood","0.14","w","240","164","164","240","220.0396","154.6796","39360","39360","34035.6388","dc","null","null","null","null","null","null","[1,3]","","",""
"","canvas-keyboard-response","83","144660","0.0-6.0-0.11","516","","","","","pre trial waiting period","null","null","","","critical","t","c","d","240","164","164","240","227.1683","158.0083","spektor","0.09","w","240","164","164","240","227.1683","158.0083","39360","39360","35894.4834","dc","null","null","null","null","null","null","[3,2]","531.4915261443197","131.57460566708036","500.8277316215865"
"","canvas-keyboard-response","84","144685","0.0-6.0-1.11","516","","","","","clear_screen","null","null","","","critical","t","c","d","240","164","164","240","227.1683","158.0083","spektor","0.09","w","240","164","164","240","227.1683","158.0083","39360","39360","35894.4834","dc","null","null","null","null","null","null","[3,2]","531.4915261443197","131.57460566708036","500.8277316215865"
"","canvas-keyboard-response","85","145194","0.0-6.0-2.11","516","","","","","rectangles no change","null","null","","","critical","t","c","d","240","164","164","240","227.1683","158.0083","spektor","0.09","w","240","164","164","240","227.1683","158.0083","39360","39360","35894.4834","dc","null","null","null","null","null","null","[3,2]","531.4915261443197","131.57460566708036","500.8277316215865"
"","canvas-keyboard-response","86","146533","0.0-6.0-3.11","516","","","","","rectangles with change","null","null","","","critical","t","c","d","240","164","164","240","227.1683","158.0083","spektor","0.09","w","240","164","164","240","227.1683","158.0083","39360","39360","35894.4834","dc","null","null","null","null","null","null","[3,2]","531.4915261443197","131.57460566708036","500.8277316215865"
"","canvas-keyboard-response","87","146555","0.0-6.0-4.11","516","","","","","clear_screen","null","null","","","critical","t","c","d","240","164","164","240","227.1683","158.0083","spektor","0.09","w","240","164","164","240","227.1683","158.0083","39360","39360","35894.4834","dc","null","null","null","null","null","null","[3,2]","531.4915261443197","131.57460566708036","500.8277316215865"
"","canvas-keyboard-response","88","147446","0.0-6.0-5.11","516","","","","","make choice","885","3","","","critical","t","c","d","240","164","164","240","227.1683","158.0083","spektor","0.09","w","240","164","164","240","227.1683","158.0083","39360","39360","35894.4834","dc","null","null","null","null","null","null","[3,2]","","",""
"","canvas-keyboard-response","89","147467","0.0-6.0-6.11","516","","","","","clear_screen","null","null","","","critical","t","c","d","240","164","164","240","227.1683","158.0083","spektor","0.09","w","240","164","164","240","227.1683","158.0083","39360","39360","35894.4834","dc","null","null","null","null","null","null","[3,2]","","",""
"","canvas-keyboard-response","90","147668","0.0-6.0-0.12","516","","","","","pre trial waiting period","null","null","","","critical","d","c","t","227.1683","158.0083","164","240","240","164","trueblood","0.09","w","240","164","164","240","227.1683","158.0083","39360","39360","35894.4834","td","null","null","null","null","null","null","[3,1]","489.1814668132182","426.87064515776774","516.1282916988345"
"","canvas-keyboard-response","91","147693","0.0-6.0-1.12","516","","","","","clear_screen","null","null","","","critical","d","c","t","227.1683","158.0083","164","240","240","164","trueblood","0.09","w","240","164","164","240","227.1683","158.0083","39360","39360","35894.4834","td","null","null","null","null","null","null","[3,1]","489.1814668132182","426.87064515776774","516.1282916988345"
"","canvas-keyboard-response","92","148200","0.0-6.0-2.12","516","","","","","rectangles no change","null","null","","","critical","d","c","t","227.1683","158.0083","164","240","240","164","trueblood","0.09","w","240","164","164","240","227.1683","158.0083","39360","39360","35894.4834","td","null","null","null","null","null","null","[3,1]","489.1814668132182","426.87064515776774","516.1282916988345"
"","canvas-keyboard-response","93","149535","0.0-6.0-3.12","516","","","","","rectangles with change","null","null","","","critical","d","c","t","227.1683","158.0083","164","240","240","164","trueblood","0.09","w","240","164","164","240","227.1683","158.0083","39360","39360","35894.4834","td","null","null","null","null","null","null","[3,1]","489.1814668132182","426.87064515776774","516.1282916988345"
"","canvas-keyboard-response","94","149554","0.0-6.0-4.12","516","","","","","clear_screen","null","null","","","critical","d","c","t","227.1683","158.0083","164","240","240","164","trueblood","0.09","w","240","164","164","240","227.1683","158.0083","39360","39360","35894.4834","td","null","null","null","null","null","null","[3,1]","489.1814668132182","426.87064515776774","516.1282916988345"
"","canvas-keyboard-response","95","150255","0.0-6.0-5.12","516","","","","","make choice","693","1","","","critical","d","c","t","227.1683","158.0083","164","240","240","164","trueblood","0.09","w","240","164","164","240","227.1683","158.0083","39360","39360","35894.4834","td","null","null","null","null","null","null","[3,1]","","",""
"","canvas-keyboard-response","96","150274","0.0-6.0-6.12","516","","","","","clear_screen","null","null","","","critical","d","c","t","227.1683","158.0083","164","240","240","164","trueblood","0.09","w","240","164","164","240","227.1683","158.0083","39360","39360","35894.4834","td","null","null","null","null","null","null","[3,1]","","",""
"","canvas-keyboard-response","97","150475","0.0-6.0-0.13","516","","","","","pre trial waiting period","null","null","","","critical","c","d","t","164","240","227.1683","158.0083","240","164","spektor","0.09","w","240","164","164","240","227.1683","158.0083","39360","39360","35894.4834","tc","null","null","null","null","null","null","[3,1]","457.2442638803657","209.32372860075841","536.1477134674032"
"","canvas-keyboard-response","98","150499","0.0-6.0-1.13","516","","","","","clear_screen","null","null","","","critical","c","d","t","164","240","227.1683","158.0083","240","164","spektor","0.09","w","240","164","164","240","227.1683","158.0083","39360","39360","35894.4834","tc","null","null","null","null","null","null","[3,1]","457.2442638803657","209.32372860075841","536.1477134674032"
"","canvas-keyboard-response","99","151008","0.0-6.0-2.13","516","","","","","rectangles no change","null","null","","","critical","c","d","t","164","240","227.1683","158.0083","240","164","spektor","0.09","w","240","164","164","240","227.1683","158.0083","39360","39360","35894.4834","tc","null","null","null","null","null","null","[3,1]","457.2442638803657","209.32372860075841","536.1477134674032"
"","canvas-keyboard-response","100","152346","0.0-6.0-3.13","516","","","","","rectangles with change","null","null","","","critical","c","d","t","164","240","227.1683","158.0083","240","164","spektor","0.09","w","240","164","164","240","227.1683","158.0083","39360","39360","35894.4834","tc","null","null","null","null","null","null","[3,1]","457.2442638803657","209.32372860075841","536.1477134674032"
"","canvas-keyboard-response","101","152366","0.0-6.0-4.13","516","","","","","clear_screen","null","null","","","critical","c","d","t","164","240","227.1683","158.0083","240","164","spektor","0.09","w","240","164","164","240","227.1683","158.0083","39360","39360","35894.4834","tc","null","null","null","null","null","null","[3,1]","457.2442638803657","209.32372860075841","536.1477134674032"
"","canvas-keyboard-response","102","153247","0.0-6.0-5.13","516","","","","","make choice","875","1","","","critical","c","d","t","164","240","227.1683","158.0083","240","164","spektor","0.09","w","240","164","164","240","227.1683","158.0083","39360","39360","35894.4834","tc","null","null","null","null","null","null","[3,1]","","",""
"","canvas-keyboard-response","103","153269","0.0-6.0-6.13","516","","","","","clear_screen","null","null","","","critical","c","d","t","164","240","227.1683","158.0083","240","164","spektor","0.09","w","240","164","164","240","227.1683","158.0083","39360","39360","35894.4834","tc","null","null","null","null","null","null","[3,1]","","",""
"","canvas-keyboard-response","104","153469","0.0-6.0-0.14","516","","","","","pre trial waiting period","null","null","","","critical","d","c","t","158.0083","227.1683","240","164","164","240","trueblood","0.09","h","164","240","240","164","158.0083","227.1683","39360","39360","35894.4834","tc","null","null","null","null","null","null","[3,2]","462.9761859700972","497.9531725215754","454.8788264003189"
"","canvas-keyboard-response","105","153491","0.0-6.0-1.14","516","","","","","clear_screen","null","null","","","critical","d","c","t","158.0083","227.1683","240","164","164","240","trueblood","0.09","h","164","240","240","164","158.0083","227.1683","39360","39360","35894.4834","tc","null","null","null","null","null","null","[3,2]","462.9761859700972","497.9531725215754","454.8788264003189"
"","canvas-keyboard-response","106","153999","0.0-6.0-2.14","516","","","","","rectangles no change","null","null","","","critical","d","c","t","158.0083","227.1683","240","164","164","240","trueblood","0.09","h","164","240","240","164","158.0083","227.1683","39360","39360","35894.4834","tc","null","null","null","null","null","null","[3,2]","462.9761859700972","497.9531725215754","454.8788264003189"
"","canvas-keyboard-response","107","155335","0.0-6.0-3.14","516","","","","","rectangles with change","null","null","","","critical","d","c","t","158.0083","227.1683","240","164","164","240","trueblood","0.09","h","164","240","240","164","158.0083","227.1683","39360","39360","35894.4834","tc","null","null","null","null","null","null","[3,2]","462.9761859700972","497.9531725215754","454.8788264003189"
"","canvas-keyboard-response","108","155358","0.0-6.0-4.14","516","","","","","clear_screen","null","null","","","critical","d","c","t","158.0083","227.1683","240","164","164","240","trueblood","0.09","h","164","240","240","164","158.0083","227.1683","39360","39360","35894.4834","tc","null","null","null","null","null","null","[3,2]","462.9761859700972","497.9531725215754","454.8788264003189"
"","canvas-keyboard-response","109","156542","0.0-6.0-5.14","516","","","","","make choice","1177","3","","","critical","d","c","t","158.0083","227.1683","240","164","164","240","trueblood","0.09","h","164","240","240","164","158.0083","227.1683","39360","39360","35894.4834","tc","null","null","null","null","null","null","[3,2]","","",""
"","canvas-keyboard-response","110","156562","0.0-6.0-6.14","516","","","","","clear_screen","null","null","","","critical","d","c","t","158.0083","227.1683","240","164","164","240","trueblood","0.09","h","164","240","240","164","158.0083","227.1683","39360","39360","35894.4834","tc","null","null","null","null","null","null","[3,2]","","",""
"","canvas-keyboard-response","111","156763","0.0-6.0-0.15","516","","","","","pre trial waiting period","null","null","","","critical","c","t","d","164","240","240","164","237.1485","162.6685","spektor","0.02","w","240","164","164","240","237.1485","162.6685","39360","39360","38576.5967","tc","null","null","null","null","null","null","[2,1]","496.70732640353197","185.0205348025779","521.6207278494494"
"","canvas-keyboard-response","112","156783","0.0-6.0-1.15","516","","","","","clear_screen","null","null","","","critical","c","t","d","164","240","240","164","237.1485","162.6685","spektor","0.02","w","240","164","164","240","237.1485","162.6685","39360","39360","38576.5967","tc","null","null","null","null","null","null","[2,1]","496.70732640353197","185.0205348025779","521.6207278494494"
"","canvas-keyboard-response","113","157292","0.0-6.0-2.15","516","","","","","rectangles no change","null","null","","","critical","c","t","d","164","240","240","164","237.1485","162.6685","spektor","0.02","w","240","164","164","240","237.1485","162.6685","39360","39360","38576.5967","tc","null","null","null","null","null","null","[2,1]","496.70732640353197","185.0205348025779","521.6207278494494"
"","canvas-keyboard-response","114","158631","0.0-6.0-3.15","516","","","","","rectangles with change","null","null","","","critical","c","t","d","164","240","240","164","237.1485","162.6685","spektor","0.02","w","240","164","164","240","237.1485","162.6685","39360","39360","38576.5967","tc","null","null","null","null","null","null","[2,1]","496.70732640353197","185.0205348025779","521.6207278494494"
"","canvas-keyboard-response","115","158649","0.0-6.0-4.15","516","","","","","clear_screen","null","null","","","critical","c","t","d","164","240","240","164","237.1485","162.6685","spektor","0.02","w","240","164","164","240","237.1485","162.6685","39360","39360","38576.5967","tc","null","null","null","null","null","null","[2,1]","496.70732640353197","185.0205348025779","521.6207278494494"
"","canvas-keyboard-response","116","160351","0.0-6.0-5.15","516","","","","","make choice","1696","1","","","critical","c","t","d","164","240","240","164","237.1485","162.6685","spektor","0.02","w","240","164","164","240","237.1485","162.6685","39360","39360","38576.5967","tc","null","null","null","null","null","null","[2,1]","","",""
"","canvas-keyboard-response","117","160371","0.0-6.0-6.15","516","","","","","clear_screen","null","null","","","critical","c","t","d","164","240","240","164","237.1485","162.6685","spektor","0.02","w","240","164","164","240","237.1485","162.6685","39360","39360","38576.5967","tc","null","null","null","null","null","null","[2,1]","","",""
"","canvas-keyboard-response","118","160571","0.0-6.0-0.16","516","","","","","pre trial waiting period","null","null","","","critical","t","d","c","240","164","220.0396","154.6796","164","240","spektor","0.14","w","240","164","164","240","220.0396","154.6796","39360","39360","34035.6388","td","null","null","null","null","null","null","[1,2]","505.0168323109881","206.89939057930982","499.2922268492956"
"","canvas-keyboard-response","119","160592","0.0-6.0-1.16","516","","","","","clear_screen","null","null","","","critical","t","d","c","240","164","220.0396","154.6796","164","240","spektor","0.14","w","240","164","164","240","220.0396","154.6796","39360","39360","34035.6388","td","null","null","null","null","null","null","[1,2]","505.0168323109881","206.89939057930982","499.2922268492956"
"","canvas-keyboard-response","120","161100","0.0-6.0-2.16","516","","","","","rectangles no change","null","null","","","critical","t","d","c","240","164","220.0396","154.6796","164","240","spektor","0.14","w","240","164","164","240","220.0396","154.6796","39360","39360","34035.6388","td","null","null","null","null","null","null","[1,2]","505.0168323109881","206.89939057930982","499.2922268492956"
"","canvas-keyboard-response","121","162437","0.0-6.0-3.16","516","","","","","rectangles with change","null","null","","","critical","t","d","c","240","164","220.0396","154.6796","164","240","spektor","0.14","w","240","164","164","240","220.0396","154.6796","39360","39360","34035.6388","td","null","null","null","null","null","null","[1,2]","505.0168323109881","206.89939057930982","499.2922268492956"
"","canvas-keyboard-response","122","162459","0.0-6.0-4.16","516","","","","","clear_screen","null","null","","","critical","t","d","c","240","164","220.0396","154.6796","164","240","spektor","0.14","w","240","164","164","240","220.0396","154.6796","39360","39360","34035.6388","td","null","null","null","null","null","null","[1,2]","505.0168323109881","206.89939057930982","499.2922268492956"
"","canvas-keyboard-response","123","162466","0.0-6.0-5.16","516","","","","","make choice","1","1","","","critical","t","d","c","240","164","220.0396","154.6796","164","240","spektor","0.14","w","240","164","164","240","220.0396","154.6796","39360","39360","34035.6388","td","null","null","null","null","null","null","[1,2]","","",""
"","canvas-keyboard-response","124","162482","0.0-6.0-6.16","516","","","","","clear_screen","null","null","","","critical","t","d","c","240","164","220.0396","154.6796","164","240","spektor","0.14","w","240","164","164","240","220.0396","154.6796","39360","39360","34035.6388","td","null","null","null","null","null","null","[1,2]","","",""
"","canvas-keyboard-response","125","162683","0.0-6.0-0.17","516","","","","","pre trial waiting period","null","null","","","catch","sh","sw","l","217","181","213","233","245","174","spektor","null","null","null","null","null","null","null","null","null","null","null","","180","200","260","200","36000","52000","[1,3]","526.9693389044348","153.8735818960067","528.6339933420711"
"","canvas-keyboard-response","126","162702","0.0-6.0-1.17","516","","","","","clear_screen","null","null","","","catch","sh","sw","l","217","181","213","233","245","174","spektor","null","null","null","null","null","null","null","null","null","null","null","","180","200","260","200","36000","52000","[1,3]","526.9693389044348","153.8735818960067","528.6339933420711"
"","canvas-keyboard-response","127","163210","0.0-6.0-2.17","516","","","","","rectangles no change","null","null","","","catch","sh","sw","l","217","181","213","233","245","174","spektor","null","null","null","null","null","null","null","null","null","null","null","","180","200","260","200","36000","52000","[1,3]","526.9693389044348","153.8735818960067","528.6339933420711"
"","canvas-keyboard-response","128","164547","0.0-6.0-3.17","516","","","","","rectangles with change","null","null","","","catch","sh","sw","l","217","181","213","233","245","174","spektor","null","null","null","null","null","null","null","null","null","null","null","","180","200","260","200","36000","52000","[1,3]","526.9693389044348","153.8735818960067","528.6339933420711"
"","canvas-keyboard-response","129","164567","0.0-6.0-4.17","516","","","","","clear_screen","null","null","","","catch","sh","sw","l","217","181","213","233","245","174","spektor","null","null","null","null","null","null","null","null","null","null","null","","180","200","260","200","36000","52000","[1,3]","526.9693389044348","153.8735818960067","528.6339933420711"
"","canvas-keyboard-response","130","166785","0.0-6.0-5.17","516","","","","","make choice","2211","3","","","catch","sh","sw","l","217","181","213","233","245","174","spektor","null","null","null","null","null","null","null","null","null","null","null","","180","200","260","200","36000","52000","[1,3]","","",""
"","canvas-keyboard-response","131","166805","0.0-6.0-6.17","516","","","","","clear_screen","null","null","","","catch","sh","sw","l","217","181","213","233","245","174","spektor","null","null","null","null","null","null","null","null","null","null","null","","180","200","260","200","36000","52000","[1,3]","","",""
"","canvas-keyboard-response","132","167006","0.0-6.0-0.18","516","","","","","pre trial waiting period","null","null","","","critical","c","t","d","240","164","164","240","154.6796","220.0396","trueblood","0.14","h","164","240","240","164","154.6796","220.0396","39360","39360","34035.6388","tc","null","null","null","null","null","null","[2,1]","470.08782145351677","429.02162746366247","456.3657612663642"
"","canvas-keyboard-response","133","167031","0.0-6.0-1.18","516","","","","","clear_screen","null","null","","","critical","c","t","d","240","164","164","240","154.6796","220.0396","trueblood","0.14","h","164","240","240","164","154.6796","220.0396","39360","39360","34035.6388","tc","null","null","null","null","null","null","[2,1]","470.08782145351677","429.02162746366247","456.3657612663642"
"","canvas-keyboard-response","134","167540","0.0-6.0-2.18","516","","","","","rectangles no change","null","null","","","critical","c","t","d","240","164","164","240","154.6796","220.0396","trueblood","0.14","h","164","240","240","164","154.6796","220.0396","39360","39360","34035.6388","tc","null","null","null","null","null","null","[2,1]","470.08782145351677","429.02162746366247","456.3657612663642"
"","canvas-keyboard-response","135","168879","0.0-6.0-3.18","516","","","","","rectangles with change","null","null","","","critical","c","t","d","240","164","164","240","154.6796","220.0396","trueblood","0.14","h","164","240","240","164","154.6796","220.0396","39360","39360","34035.6388","tc","null","null","null","null","null","null","[2,1]","470.08782145351677","429.02162746366247","456.3657612663642"
"","canvas-keyboard-response","136","168899","0.0-6.0-4.18","516","","","","","clear_screen","null","null","","","critical","c","t","d","240","164","164","240","154.6796","220.0396","trueblood","0.14","h","164","240","240","164","154.6796","220.0396","39360","39360","34035.6388","tc","null","null","null","null","null","null","[2,1]","470.08782145351677","429.02162746366247","456.3657612663642"
"","canvas-keyboard-response","137","170392","0.0-6.0-5.18","516","","","","","make choice","1484","2","","","critical","c","t","d","240","164","164","240","154.6796","220.0396","trueblood","0.14","h","164","240","240","164","154.6796","220.0396","39360","39360","34035.6388","tc","null","null","null","null","null","null","[2,1]","","",""
"","canvas-keyboard-response","138","170411","0.0-6.0-6.18","516","","","","","clear_screen","null","null","","","critical","c","t","d","240","164","164","240","154.6796","220.0396","trueblood","0.14","h","164","240","240","164","154.6796","220.0396","39360","39360","34035.6388","tc","null","null","null","null","null","null","[2,1]","","",""
"","canvas-keyboard-response","139","170612","0.0-6.0-0.19","516","","","","","pre trial waiting period","null","null","","","catch","l","sw","sh","235","176","144","202","217","170","trueblood","null","null","null","null","null","null","null","null","null","null","null","","180","200","260","200","36000","52000","[1,3]","501.5307893576313","473.25235052643086","477.0181315472475"
"","canvas-keyboard-response","140","170633","0.0-6.0-1.19","516","","","","","clear_screen","null","null","","","catch","l","sw","sh","235","176","144","202","217","170","trueblood","null","null","null","null","null","null","null","null","null","null","null","","180","200","260","200","36000","52000","[1,3]","501.5307893576313","473.25235052643086","477.0181315472475"
"","canvas-keyboard-response","141","171140","0.0-6.0-2.19","516","","","","","rectangles no change","null","null","","","catch","l","sw","sh","235","176","144","202","217","170","trueblood","null","null","null","null","null","null","null","null","null","null","null","","180","200","260","200","36000","52000","[1,3]","501.5307893576313","473.25235052643086","477.0181315472475"
"","canvas-keyboard-response","142","172475","0.0-6.0-3.19","516","","","","","rectangles with change","null","null","","","catch","l","sw","sh","235","176","144","202","217","170","trueblood","null","null","null","null","null","null","null","null","null","null","null","","180","200","260","200","36000","52000","[1,3]","501.5307893576313","473.25235052643086","477.0181315472475"
"","canvas-keyboard-response","143","172494","0.0-6.0-4.19","516","","","","","clear_screen","null","null","","","catch","l","sw","sh","235","176","144","202","217","170","trueblood","null","null","null","null","null","null","null","null","null","null","null","","180","200","260","200","36000","52000","[1,3]","501.5307893576313","473.25235052643086","477.0181315472475"
"","canvas-keyboard-response","144","173423","0.0-6.0-5.19","516","","","","","make choice","916","1","","","catch","l","sw","sh","235","176","144","202","217","170","trueblood","null","null","null","null","null","null","null","null","null","null","null","","180","200","260","200","36000","52000","[1,3]","","",""
"","canvas-keyboard-response","145","173443","0.0-6.0-6.19","516","","","","","clear_screen","null","null","","","catch","l","sw","sh","235","176","144","202","217","170","trueblood","null","null","null","null","null","null","null","null","null","null","null","","180","200","260","200","36000","52000","[1,3]","","",""
"","canvas-keyboard-response","146","173644","0.0-6.0-0.20","516","","","","","pre trial waiting period","null","null","","","catch","sw","sh","l","180","200","187","188","201","286","spektor","null","null","null","null","null","null","null","null","null","null","null","","180","200","260","200","36000","52000","[2,3]","496.9299592561535","155.8708313054397","439.9706685636418"
"","canvas-keyboard-response","147","173666","0.0-6.0-1.20","516","","","","","clear_screen","null","null","","","catch","sw","sh","l","180","200","187","188","201","286","spektor","null","null","null","null","null","null","null","null","null","null","null","","180","200","260","200","36000","52000","[2,3]","496.9299592561535","155.8708313054397","439.9706685636418"
"","canvas-keyboard-response","148","174173","0.0-6.0-2.20","516","","","","","rectangles no change","null","null","","","catch","sw","sh","l","180","200","187","188","201","286","spektor","null","null","null","null","null","null","null","null","null","null","null","","180","200","260","200","36000","52000","[2,3]","496.9299592561535","155.8708313054397","439.9706685636418"
"","canvas-keyboard-response","149","175512","0.0-6.0-3.20","516","","","","","rectangles with change","null","null","","","catch","sw","sh","l","180","200","187","188","201","286","spektor","null","null","null","null","null","null","null","null","null","null","null","","180","200","260","200","36000","52000","[2,3]","496.9299592561535","155.8708313054397","439.9706685636418"
"","canvas-keyboard-response","150","175531","0.0-6.0-4.20","516","","","","","clear_screen","null","null","","","catch","sw","sh","l","180","200","187","188","201","286","spektor","null","null","null","null","null","null","null","null","null","null","null","","180","200","260","200","36000","52000","[2,3]","496.9299592561535","155.8708313054397","439.9706685636418"
"","canvas-keyboard-response","151","176174","0.0-6.0-5.20","516","","","","","make choice","636","3","","","catch","sw","sh","l","180","200","187","188","201","286","spektor","null","null","null","null","null","null","null","null","null","null","null","","180","200","260","200","36000","52000","[2,3]","","",""
"","canvas-keyboard-response","152","176195","0.0-6.0-6.20","516","","","","","clear_screen","null","null","","","catch","sw","sh","l","180","200","187","188","201","286","spektor","null","null","null","null","null","null","null","null","null","null","null","","180","200","260","200","36000","52000","[2,3]","","",""
"","canvas-keyboard-response","153","176396","0.0-6.0-0.21","516","","","","","pre trial waiting period","null","null","","","critical","t","d","c","240","164","237.1485","162.6685","164","240","trueblood","0.02","w","240","164","164","240","237.1485","162.6685","39360","39360","38576.5967","tc","null","null","null","null","null","null","[1,3]","497.2855168254135","508.4718559443421","425.1121305296081"
"","canvas-keyboard-response","154","176419","0.0-6.0-1.21","516","","","","","clear_screen","null","null","","","critical","t","d","c","240","164","237.1485","162.6685","164","240","trueblood","0.02","w","240","164","164","240","237.1485","162.6685","39360","39360","38576.5967","tc","null","null","null","null","null","null","[1,3]","497.2855168254135","508.4718559443421","425.1121305296081"
"","canvas-keyboard-response","155","176927","0.0-6.0-2.21","516","","","","","rectangles no change","null","null","","","critical","t","d","c","240","164","237.1485","162.6685","164","240","trueblood","0.02","w","240","164","164","240","237.1485","162.6685","39360","39360","38576.5967","tc","null","null","null","null","null","null","[1,3]","497.2855168254135","508.4718559443421","425.1121305296081"
"","canvas-keyboard-response","156","178263","0.0-6.0-3.21","516","","","","","rectangles with change","null","null","","","critical","t","d","c","240","164","237.1485","162.6685","164","240","trueblood","0.02","w","240","164","164","240","237.1485","162.6685","39360","39360","38576.5967","tc","null","null","null","null","null","null","[1,3]","497.2855168254135","508.4718559443421","425.1121305296081"
"","canvas-keyboard-response","157","178286","0.0-6.0-4.21","516","","","","","clear_screen","null","null","","","critical","t","d","c","240","164","237.1485","162.6685","164","240","trueblood","0.02","w","240","164","164","240","237.1485","162.6685","39360","39360","38576.5967","tc","null","null","null","null","null","null","[1,3]","497.2855168254135","508.4718559443421","425.1121305296081"
"","canvas-keyboard-response","158","179568","0.0-6.0-5.21","516","","","","","make choice","1274","1","","","critical","t","d","c","240","164","237.1485","162.6685","164","240","trueblood","0.02","w","240","164","164","240","237.1485","162.6685","39360","39360","38576.5967","tc","null","null","null","null","null","null","[1,3]","","",""
"","canvas-keyboard-response","159","179585","0.0-6.0-6.21","516","","","","","clear_screen","null","null","","","critical","t","d","c","240","164","237.1485","162.6685","164","240","trueblood","0.02","w","240","164","164","240","237.1485","162.6685","39360","39360","38576.5967","tc","null","null","null","null","null","null","[1,3]","","",""
"","canvas-keyboard-response","160","179786","0.0-6.0-0.22","516","","","","","pre trial waiting period","null","null","","","catch","sw","sh","l","180","200","226","171","246","206","trueblood","null","null","null","null","null","null","null","null","null","null","null","","180","200","260","200","36000","52000","[2,3]","462.14385340280256","506.02469676719045","460.787276565722"
"","canvas-keyboard-response","161","179806","0.0-6.0-1.22","516","","","","","clear_screen","null","null","","","catch","sw","sh","l","180","200","226","171","246","206","trueblood","null","null","null","null","null","null","null","null","null","null","null","","180","200","260","200","36000","52000","[2,3]","462.14385340280256","506.02469676719045","460.787276565722"
"","canvas-keyboard-response","162","180313","0.0-6.0-2.22","516","","","","","rectangles no change","null","null","","","catch","sw","sh","l","180","200","226","171","246","206","trueblood","null","null","null","null","null","null","null","null","null","null","null","","180","200","260","200","36000","52000","[2,3]","462.14385340280256","506.02469676719045","460.787276565722"
"","canvas-keyboard-response","163","181650","0.0-6.0-3.22","516","","","","","rectangles with change","null","null","","","catch","sw","sh","l","180","200","226","171","246","206","trueblood","null","null","null","null","null","null","null","null","null","null","null","","180","200","260","200","36000","52000","[2,3]","462.14385340280256","506.02469676719045","460.787276565722"
"","canvas-keyboard-response","164","181674","0.0-6.0-4.22","516","","","","","clear_screen","null","null","","","catch","sw","sh","l","180","200","226","171","246","206","trueblood","null","null","null","null","null","null","null","null","null","null","null","","180","200","260","200","36000","52000","[2,3]","462.14385340280256","506.02469676719045","460.787276565722"
"","canvas-keyboard-response","165","182479","0.0-6.0-5.22","516","","","","","make choice","799","3","","","catch","sw","sh","l","180","200","226","171","246","206","trueblood","null","null","null","null","null","null","null","null","null","null","null","","180","200","260","200","36000","52000","[2,3]","","",""
"","canvas-keyboard-response","166","182500","0.0-6.0-6.22","516","","","","","clear_screen","null","null","","","catch","sw","sh","l","180","200","226","171","246","206","trueblood","null","null","null","null","null","null","null","null","null","null","null","","180","200","260","200","36000","52000","[2,3]","","",""
"","canvas-keyboard-response","167","182700","0.0-6.0-0.23","516","","","","","pre trial waiting period","null","null","","","catch","sh","l","sw","168","186","284","185","202","196","spektor","null","null","null","null","null","null","null","null","null","null","null","","180","200","260","200","36000","52000","[2,3]","522.2398056823382","163.63002634679555","486.9881701478127"
"","canvas-keyboard-response","168","182720","0.0-6.0-1.23","516","","","","","clear_screen","null","null","","","catch","sh","l","sw","168","186","284","185","202","196","spektor","null","null","null","null","null","null","null","null","null","null","null","","180","200","260","200","36000","52000","[2,3]","522.2398056823382","163.63002634679555","486.9881701478127"
"","canvas-keyboard-response","169","183229","0.0-6.0-2.23","516","","","","","rectangles no change","null","null","","","catch","sh","l","sw","168","186","284","185","202","196","spektor","null","null","null","null","null","null","null","null","null","null","null","","180","200","260","200","36000","52000","[2,3]","522.2398056823382","163.63002634679555","486.9881701478127"
"","canvas-keyboard-response","170","184569","0.0-6.0-3.23","516","","","","","rectangles with change","null","null","","","catch","sh","l","sw","168","186","284","185","202","196","spektor","null","null","null","null","null","null","null","null","null","null","null","","180","200","260","200","36000","52000","[2,3]","522.2398056823382","163.63002634679555","486.9881701478127"
"","canvas-keyboard-response","171","184592","0.0-6.0-4.23","516","","","","","clear_screen","null","null","","","catch","sh","l","sw","168","186","284","185","202","196","spektor","null","null","null","null","null","null","null","null","null","null","null","","180","200","260","200","36000","52000","[2,3]","522.2398056823382","163.63002634679555","486.9881701478127"
"","canvas-keyboard-response","172","185367","0.0-6.0-5.23","516","","","","","make choice","769","2","","","catch","sh","l","sw","168","186","284","185","202","196","spektor","null","null","null","null","null","null","null","null","null","null","null","","180","200","260","200","36000","52000","[2,3]","","",""
"","canvas-keyboard-response","173","185390","0.0-6.0-6.23","516","","","","","clear_screen","null","null","","","catch","sh","l","sw","168","186","284","185","202","196","spektor","null","null","null","null","null","null","null","null","null","null","null","","180","200","260","200","36000","52000","[2,3]","","",""
"","canvas-keyboard-response","174","185591","0.0-6.0-0.24","516","","","","","pre trial waiting period","null","null","","","critical","d","t","c","158.0083","227.1683","164","240","240","164","trueblood","0.09","h","164","240","240","164","158.0083","227.1683","39360","39360","35894.4834","dc","null","null","null","null","null","null","[1,3]","435.58783393735575","452.20978376047543","474.6090562223017"
"","canvas-keyboard-response","175","185611","0.0-6.0-1.24","516","","","","","clear_screen","null","null","","","critical","d","t","c","158.0083","227.1683","164","240","240","164","trueblood","0.09","h","164","240","240","164","158.0083","227.1683","39360","39360","35894.4834","dc","null","null","null","null","null","null","[1,3]","435.58783393735575","452.20978376047543","474.6090562223017"
"","canvas-keyboard-response","176","186120","0.0-6.0-2.24","516","","","","","rectangles no change","null","null","","","critical","d","t","c","158.0083","227.1683","164","240","240","164","trueblood","0.09","h","164","240","240","164","158.0083","227.1683","39360","39360","35894.4834","dc","null","null","null","null","null","null","[1,3]","435.58783393735575","452.20978376047543","474.6090562223017"
"","canvas-keyboard-response","177","187458","0.0-6.0-3.24","516","","","","","rectangles with change","null","null","","","critical","d","t","c","158.0083","227.1683","164","240","240","164","trueblood","0.09","h","164","240","240","164","158.0083","227.1683","39360","39360","35894.4834","dc","null","null","null","null","null","null","[1,3]","435.58783393735575","452.20978376047543","474.6090562223017"
"","canvas-keyboard-response","178","187480","0.0-6.0-4.24","516","","","","","clear_screen","null","null","","","critical","d","t","c","158.0083","227.1683","164","240","240","164","trueblood","0.09","h","164","240","240","164","158.0083","227.1683","39360","39360","35894.4834","dc","null","null","null","null","null","null","[1,3]","435.58783393735575","452.20978376047543","474.6090562223017"
"","canvas-keyboard-response","179","189230","0.0-6.0-5.24","516","","","","","make choice","1744","3","","","critical","d","t","c","158.0083","227.1683","164","240","240","164","trueblood","0.09","h","164","240","240","164","158.0083","227.1683","39360","39360","35894.4834","dc","null","null","null","null","null","null","[1,3]","","",""
"","canvas-keyboard-response","180","189250","0.0-6.0-6.24","516","","","","","clear_screen","null","null","","","critical","d","t","c","158.0083","227.1683","164","240","240","164","trueblood","0.09","h","164","240","240","164","158.0083","227.1683","39360","39360","35894.4834","dc","null","null","null","null","null","null","[1,3]","","",""
"","canvas-keyboard-response","181","189452","0.0-6.0-0.25","516","","","","","pre trial waiting period","null","null","","","critical","t","d","c","240","164","227.1683","158.0083","164","240","spektor","0.09","w","240","164","164","240","227.1683","158.0083","39360","39360","35894.4834","td","null","null","null","null","null","null","[1,2]","538.8849181647888","189.63580305779237","474.667813735219"
"","canvas-keyboard-response","182","189472","0.0-6.0-1.25","516","","","","","clear_screen","null","null","","","critical","t","d","c","240","164","227.1683","158.0083","164","240","spektor","0.09","w","240","164","164","240","227.1683","158.0083","39360","39360","35894.4834","td","null","null","null","null","null","null","[1,2]","538.8849181647888","189.63580305779237","474.667813735219"
"","canvas-keyboard-response","183","189983","0.0-6.0-2.25","516","","","","","rectangles no change","null","null","","","critical","t","d","c","240","164","227.1683","158.0083","164","240","spektor","0.09","w","240","164","164","240","227.1683","158.0083","39360","39360","35894.4834","td","null","null","null","null","null","null","[1,2]","538.8849181647888","189.63580305779237","474.667813735219"
"","canvas-keyboard-response","184","191321","0.0-6.0-3.25","516","","","","","rectangles with change","null","null","","","critical","t","d","c","240","164","227.1683","158.0083","164","240","spektor","0.09","w","240","164","164","240","227.1683","158.0083","39360","39360","35894.4834","td","null","null","null","null","null","null","[1,2]","538.8849181647888","189.63580305779237","474.667813735219"
"","canvas-keyboard-response","185","191341","0.0-6.0-4.25","516","","","","","clear_screen","null","null","","","critical","t","d","c","240","164","227.1683","158.0083","164","240","spektor","0.09","w","240","164","164","240","227.1683","158.0083","39360","39360","35894.4834","td","null","null","null","null","null","null","[1,2]","538.8849181647888","189.63580305779237","474.667813735219"
"","canvas-keyboard-response","186","193214","0.0-6.0-5.25","516","","","","","make choice","1868","2","","","critical","t","d","c","240","164","227.1683","158.0083","164","240","spektor","0.09","w","240","164","164","240","227.1683","158.0083","39360","39360","35894.4834","td","null","null","null","null","null","null","[1,2]","","",""
"","canvas-keyboard-response","187","193233","0.0-6.0-6.25","516","","","","","clear_screen","null","null","","","critical","t","d","c","240","164","227.1683","158.0083","164","240","spektor","0.09","w","240","164","164","240","227.1683","158.0083","39360","39360","35894.4834","td","null","null","null","null","null","null","[1,2]","","",""
"","canvas-keyboard-response","188","193433","0.0-6.0-0.26","516","","","","","pre trial waiting period","null","null","","","critical","d","c","t","232.8713","160.6713","164","240","240","164","spektor","0.05","w","240","164","164","240","232.8713","160.6713","39360","39360","37415.7294","td","null","null","null","null","null","null","[3,1]","526.240059974101","111.49211309408862","526.5684426221916"
"","canvas-keyboard-response","189","193458","0.0-6.0-1.26","516","","","","","clear_screen","null","null","","","critical","d","c","t","232.8713","160.6713","164","240","240","164","spektor","0.05","w","240","164","164","240","232.8713","160.6713","39360","39360","37415.7294","td","null","null","null","null","null","null","[3,1]","526.240059974101","111.49211309408862","526.5684426221916"
"","canvas-keyboard-response","190","193965","0.0-6.0-2.26","516","","","","","rectangles no change","null","null","","","critical","d","c","t","232.8713","160.6713","164","240","240","164","spektor","0.05","w","240","164","164","240","232.8713","160.6713","39360","39360","37415.7294","td","null","null","null","null","null","null","[3,1]","526.240059974101","111.49211309408862","526.5684426221916"
"","canvas-keyboard-response","191","195306","0.0-6.0-3.26","516","","","","","rectangles with change","null","null","","","critical","d","c","t","232.8713","160.6713","164","240","240","164","spektor","0.05","w","240","164","164","240","232.8713","160.6713","39360","39360","37415.7294","td","null","null","null","null","null","null","[3,1]","526.240059974101","111.49211309408862","526.5684426221916"
"","canvas-keyboard-response","192","195329","0.0-6.0-4.26","516","","","","","clear_screen","null","null","","","critical","d","c","t","232.8713","160.6713","164","240","240","164","spektor","0.05","w","240","164","164","240","232.8713","160.6713","39360","39360","37415.7294","td","null","null","null","null","null","null","[3,1]","526.240059974101","111.49211309408862","526.5684426221916"
"","canvas-keyboard-response","193","196680","0.0-6.0-5.26","516","","","","","make choice","1344","1","","","critical","d","c","t","232.8713","160.6713","164","240","240","164","spektor","0.05","w","240","164","164","240","232.8713","160.6713","39360","39360","37415.7294","td","null","null","null","null","null","null","[3,1]","","",""
"","canvas-keyboard-response","194","196696","0.0-6.0-6.26","516","","","","","clear_screen","null","null","","","critical","d","c","t","232.8713","160.6713","164","240","240","164","spektor","0.05","w","240","164","164","240","232.8713","160.6713","39360","39360","37415.7294","td","null","null","null","null","null","null","[3,1]","","",""
"","canvas-keyboard-response","195","196897","0.0-6.0-0.27","516","","","","","pre trial waiting period","null","null","","","critical","t","d","c","240","164","237.1485","162.6685","164","240","trueblood","0.02","w","240","164","164","240","237.1485","162.6685","39360","39360","38576.5967","dc","null","null","null","null","null","null","[2,3]","470.4349825202932","493.78537756106226","452.4193071357543"
"","canvas-keyboard-response","196","196919","0.0-6.0-1.27","516","","","","","clear_screen","null","null","","","critical","t","d","c","240","164","237.1485","162.6685","164","240","trueblood","0.02","w","240","164","164","240","237.1485","162.6685","39360","39360","38576.5967","dc","null","null","null","null","null","null","[2,3]","470.4349825202932","493.78537756106226","452.4193071357543"
"","canvas-keyboard-response","197","197427","0.0-6.0-2.27","516","","","","","rectangles no change","null","null","","","critical","t","d","c","240","164","237.1485","162.6685","164","240","trueblood","0.02","w","240","164","164","240","237.1485","162.6685","39360","39360","38576.5967","dc","null","null","null","null","null","null","[2,3]","470.4349825202932","493.78537756106226","452.4193071357543"
"","canvas-keyboard-response","198","198766","0.0-6.0-3.27","516","","","","","rectangles with change","null","null","","","critical","t","d","c","240","164","237.1485","162.6685","164","240","trueblood","0.02","w","240","164","164","240","237.1485","162.6685","39360","39360","38576.5967","dc","null","null","null","null","null","null","[2,3]","470.4349825202932","493.78537756106226","452.4193071357543"
"","canvas-keyboard-response","199","198790","0.0-6.0-4.27","516","","","","","clear_screen","null","null","","","critical","t","d","c","240","164","237.1485","162.6685","164","240","trueblood","0.02","w","240","164","164","240","237.1485","162.6685","39360","39360","38576.5967","dc","null","null","null","null","null","null","[2,3]","470.4349825202932","493.78537756106226","452.4193071357543"
"","canvas-keyboard-response","200","199519","0.0-6.0-5.27","516","","","","","make choice","723","2","","","critical","t","d","c","240","164","237.1485","162.6685","164","240","trueblood","0.02","w","240","164","164","240","237.1485","162.6685","39360","39360","38576.5967","dc","null","null","null","null","null","null","[2,3]","","",""
"","canvas-keyboard-response","201","199539","0.0-6.0-6.27","516","","","","","clear_screen","null","null","","","critical","t","d","c","240","164","237.1485","162.6685","164","240","trueblood","0.02","w","240","164","164","240","237.1485","162.6685","39360","39360","38576.5967","dc","null","null","null","null","null","null","[2,3]","","",""
"","canvas-keyboard-response","202","199739","0.0-6.0-0.28","516","","","","","pre trial waiting period","null","null","","","catch","sw","l","sh","180","200","287","185","224","184","trueblood","null","null","null","null","null","null","null","null","null","null","null","","180","200","260","200","36000","52000","[1,2]","484.84665645625915","464.8415784221785","461.6545581469602"
"","canvas-keyboard-response","203","199759","0.0-6.0-1.28","516","","","","","clear_screen","null","null","","","catch","sw","l","sh","180","200","287","185","224","184","trueblood","null","null","null","null","null","null","null","null","null","null","null","","180","200","260","200","36000","52000","[1,2]","484.84665645625915","464.8415784221785","461.6545581469602"
"","canvas-keyboard-response","204","200266","0.0-6.0-2.28","516","","","","","rectangles no change","null","null","","","catch","sw","l","sh","180","200","287","185","224","184","trueblood","null","null","null","null","null","null","null","null","null","null","null","","180","200","260","200","36000","52000","[1,2]","484.84665645625915","464.8415784221785","461.6545581469602"
"","canvas-keyboard-response","205","201604","0.0-6.0-3.28","516","","","","","rectangles with change","null","null","","","catch","sw","l","sh","180","200","287","185","224","184","trueblood","null","null","null","null","null","null","null","null","null","null","null","","180","200","260","200","36000","52000","[1,2]","484.84665645625915","464.8415784221785","461.6545581469602"
"","canvas-keyboard-response","206","201626","0.0-6.0-4.28","516","","","","","clear_screen","null","null","","","catch","sw","l","sh","180","200","287","185","224","184","trueblood","null","null","null","null","null","null","null","null","null","null","null","","180","200","260","200","36000","52000","[1,2]","484.84665645625915","464.8415784221785","461.6545581469602"
"","canvas-keyboard-response","207","202294","0.0-6.0-5.28","516","","","","","make choice","661","2","","","catch","sw","l","sh","180","200","287","185","224","184","trueblood","null","null","null","null","null","null","null","null","null","null","null","","180","200","260","200","36000","52000","[1,2]","","",""
"","canvas-keyboard-response","208","202311","0.0-6.0-6.28","516","","","","","clear_screen","null","null","","","catch","sw","l","sh","180","200","287","185","224","184","trueblood","null","null","null","null","null","null","null","null","null","null","null","","180","200","260","200","36000","52000","[1,2]","","",""
"","canvas-keyboard-response","209","202513","0.0-6.0-0.29","516","","","","","pre trial waiting period","null","null","","","critical","t","c","d","164","240","240","164","158.0083","227.1683","spektor","0.09","h","164","240","240","164","158.0083","227.1683","39360","39360","35894.4834","dc","null","null","null","null","null","null","[3,2]","485.50443756041346","150.6016845854632","489.14200346101734"
"","canvas-keyboard-response","210","202533","0.0-6.0-1.29","516","","","","","clear_screen","null","null","","","critical","t","c","d","164","240","240","164","158.0083","227.1683","spektor","0.09","h","164","240","240","164","158.0083","227.1683","39360","39360","35894.4834","dc","null","null","null","null","null","null","[3,2]","485.50443756041346","150.6016845854632","489.14200346101734"
"","canvas-keyboard-response","211","203042","0.0-6.0-2.29","516","","","","","rectangles no change","null","null","","","critical","t","c","d","164","240","240","164","158.0083","227.1683","spektor","0.09","h","164","240","240","164","158.0083","227.1683","39360","39360","35894.4834","dc","null","null","null","null","null","null","[3,2]","485.50443756041346","150.6016845854632","489.14200346101734"
"","canvas-keyboard-response","212","204382","0.0-6.0-3.29","516","","","","","rectangles with change","null","null","","","critical","t","c","d","164","240","240","164","158.0083","227.1683","spektor","0.09","h","164","240","240","164","158.0083","227.1683","39360","39360","35894.4834","dc","null","null","null","null","null","null","[3,2]","485.50443756041346","150.6016845854632","489.14200346101734"
"","canvas-keyboard-response","213","204401","0.0-6.0-4.29","516","","","","","clear_screen","null","null","","","critical","t","c","d","164","240","240","164","158.0083","227.1683","spektor","0.09","h","164","240","240","164","158.0083","227.1683","39360","39360","35894.4834","dc","null","null","null","null","null","null","[3,2]","485.50443756041346","150.6016845854632","489.14200346101734"
"","canvas-keyboard-response","214","204806","0.0-6.0-5.29","516","","","","","make choice","400","2","","","critical","t","c","d","164","240","240","164","158.0083","227.1683","spektor","0.09","h","164","240","240","164","158.0083","227.1683","39360","39360","35894.4834","dc","null","null","null","null","null","null","[3,2]","","",""
"","canvas-keyboard-response","215","204829","0.0-6.0-6.29","516","","","","","clear_screen","null","null","","","critical","t","c","d","164","240","240","164","158.0083","227.1683","spektor","0.09","h","164","240","240","164","158.0083","227.1683","39360","39360","35894.4834","dc","null","null","null","null","null","null","[3,2]","","",""
"","canvas-keyboard-response","216","205031","0.0-6.0-0.30","516","","","","","pre trial waiting period","null","null","","","catch","sh","sw","l","222","154","219","208","250","183","trueblood","null","null","null","null","null","null","null","null","null","null","null","","180","200","260","200","36000","52000","[1,3]","504.8233463133914","444.868283524046","493.55598385531835"
"","canvas-keyboard-response","217","205050","0.0-6.0-1.30","516","","","","","clear_screen","null","null","","","catch","sh","sw","l","222","154","219","208","250","183","trueblood","null","null","null","null","null","null","null","null","null","null","null","","180","200","260","200","36000","52000","[1,3]","504.8233463133914","444.868283524046","493.55598385531835"
"","canvas-keyboard-response","218","205559","0.0-6.0-2.30","516","","","","","rectangles no change","null","null","","","catch","sh","sw","l","222","154","219","208","250","183","trueblood","null","null","null","null","null","null","null","null","null","null","null","","180","200","260","200","36000","52000","[1,3]","504.8233463133914","444.868283524046","493.55598385531835"
"","canvas-keyboard-response","219","206895","0.0-6.0-3.30","516","","","","","rectangles with change","null","null","","","catch","sh","sw","l","222","154","219","208","250","183","trueblood","null","null","null","null","null","null","null","null","null","null","null","","180","200","260","200","36000","52000","[1,3]","504.8233463133914","444.868283524046","493.55598385531835"
"","canvas-keyboard-response","220","206915","0.0-6.0-4.30","516","","","","","clear_screen","null","null","","","catch","sh","sw","l","222","154","219","208","250","183","trueblood","null","null","null","null","null","null","null","null","null","null","null","","180","200","260","200","36000","52000","[1,3]","504.8233463133914","444.868283524046","493.55598385531835"
"","canvas-keyboard-response","221","207631","0.0-6.0-5.30","516","","","","","make choice","706","3","","","catch","sh","sw","l","222","154","219","208","250","183","trueblood","null","null","null","null","null","null","null","null","null","null","null","","180","200","260","200","36000","52000","[1,3]","","",""
"","canvas-keyboard-response","222","207650","0.0-6.0-6.30","516","","","","","clear_screen","null","null","","","catch","sh","sw","l","222","154","219","208","250","183","trueblood","null","null","null","null","null","null","null","null","null","null","null","","180","200","260","200","36000","52000","[1,3]","","",""
"","canvas-keyboard-response","223","207851","0.0-6.0-0.31","516","","","","","pre trial waiting period","null","null","","","catch","sh","l","sw","231","181","183","223","166","217","spektor","null","null","null","null","null","null","null","null","null","null","null","","180","200","260","200","36000","52000","[2,3]","511.6091347625204","138.75869814912255","477.8572576831489"
"","canvas-keyboard-response","224","207874","0.0-6.0-1.31","516","","","","","clear_screen","null","null","","","catch","sh","l","sw","231","181","183","223","166","217","spektor","null","null","null","null","null","null","null","null","null","null","null","","180","200","260","200","36000","52000","[2,3]","511.6091347625204","138.75869814912255","477.8572576831489"
"","canvas-keyboard-response","225","208383","0.0-6.0-2.31","516","","","","","rectangles no change","null","null","","","catch","sh","l","sw","231","181","183","223","166","217","spektor","null","null","null","null","null","null","null","null","null","null","null","","180","200","260","200","36000","52000","[2,3]","511.6091347625204","138.75869814912255","477.8572576831489"
"","canvas-keyboard-response","226","209720","0.0-6.0-3.31","516","","","","","rectangles with change","null","null","","","catch","sh","l","sw","231","181","183","223","166","217","spektor","null","null","null","null","null","null","null","null","null","null","null","","180","200","260","200","36000","52000","[2,3]","511.6091347625204","138.75869814912255","477.8572576831489"
"","canvas-keyboard-response","227","209743","0.0-6.0-4.31","516","","","","","clear_screen","null","null","","","catch","sh","l","sw","231","181","183","223","166","217","spektor","null","null","null","null","null","null","null","null","null","null","null","","180","200","260","200","36000","52000","[2,3]","511.6091347625204","138.75869814912255","477.8572576831489"
"","canvas-keyboard-response","228","210791","0.0-6.0-5.31","516","","","","","make choice","1041","2","","","catch","sh","l","sw","231","181","183","223","166","217","spektor","null","null","null","null","null","null","null","null","null","null","null","","180","200","260","200","36000","52000","[2,3]","","",""
"","canvas-keyboard-response","229","210811","0.0-6.0-6.31","516","","","","","clear_screen","null","null","","","catch","sh","l","sw","231","181","183","223","166","217","spektor","null","null","null","null","null","null","null","null","null","null","null","","180","200","260","200","36000","52000","[2,3]","","",""
"","canvas-keyboard-response","230","211012","0.0-6.0-0.32","516","","","","","pre trial waiting period","null","null","","","catch","sw","l","sh","180","200","243","179","181","184","trueblood","null","null","null","null","null","null","null","null","null","null","null","","180","200","260","200","36000","52000","[2,3]","458.6880715333034","485.037415242919","497.2418477579573"
"","canvas-keyboard-response","231","211034","0.0-6.0-1.32","516","","","","","clear_screen","null","null","","","catch","sw","l","sh","180","200","243","179","181","184","trueblood","null","null","null","null","null","null","null","null","null","null","null","","180","200","260","200","36000","52000","[2,3]","458.6880715333034","485.037415242919","497.2418477579573"
"","canvas-keyboard-response","232","211542","0.0-6.0-2.32","516","","","","","rectangles no change","null","null","","","catch","sw","l","sh","180","200","243","179","181","184","trueblood","null","null","null","null","null","null","null","null","null","null","null","","180","200","260","200","36000","52000","[2,3]","458.6880715333034","485.037415242919","497.2418477579573"
"","canvas-keyboard-response","233","212881","0.0-6.0-3.32","516","","","","","rectangles with change","null","null","","","catch","sw","l","sh","180","200","243","179","181","184","trueblood","null","null","null","null","null","null","null","null","null","null","null","","180","200","260","200","36000","52000","[2,3]","458.6880715333034","485.037415242919","497.2418477579573"
"","canvas-keyboard-response","234","212905","0.0-6.0-4.32","516","","","","","clear_screen","null","null","","","catch","sw","l","sh","180","200","243","179","181","184","trueblood","null","null","null","null","null","null","null","null","null","null","null","","180","200","260","200","36000","52000","[2,3]","458.6880715333034","485.037415242919","497.2418477579573"
"","canvas-keyboard-response","235","213415","0.0-6.0-5.32","516","","","","","make choice","502","2","","","catch","sw","l","sh","180","200","243","179","181","184","trueblood","null","null","null","null","null","null","null","null","null","null","null","","180","200","260","200","36000","52000","[2,3]","","",""
"","canvas-keyboard-response","236","213438","0.0-6.0-6.32","516","","","","","clear_screen","null","null","","","catch","sw","l","sh","180","200","243","179","181","184","trueblood","null","null","null","null","null","null","null","null","null","null","null","","180","200","260","200","36000","52000","[2,3]","","",""
"","canvas-keyboard-response","237","213639","0.0-6.0-0.33","516","","","","","pre trial waiting period","null","null","","","critical","d","t","c","232.8713","160.6713","240","164","164","240","spektor","0.05","w","240","164","164","240","232.8713","160.6713","39360","39360","37415.7294","tc","null","null","null","null","null","null","[2,3]","539.0928313383707","202.96800090463995","493.33256730162543"
"","canvas-keyboard-response","238","213662","0.0-6.0-1.33","516","","","","","clear_screen","null","null","","","critical","d","t","c","232.8713","160.6713","240","164","164","240","spektor","0.05","w","240","164","164","240","232.8713","160.6713","39360","39360","37415.7294","tc","null","null","null","null","null","null","[2,3]","539.0928313383707","202.96800090463995","493.33256730162543"
"","canvas-keyboard-response","239","214170","0.0-6.0-2.33","516","","","","","rectangles no change","null","null","","","critical","d","t","c","232.8713","160.6713","240","164","164","240","spektor","0.05","w","240","164","164","240","232.8713","160.6713","39360","39360","37415.7294","tc","null","null","null","null","null","null","[2,3]","539.0928313383707","202.96800090463995","493.33256730162543"
"","canvas-keyboard-response","240","215510","0.0-6.0-3.33","516","","","","","rectangles with change","null","null","","","critical","d","t","c","232.8713","160.6713","240","164","164","240","spektor","0.05","w","240","164","164","240","232.8713","160.6713","39360","39360","37415.7294","tc","null","null","null","null","null","null","[2,3]","539.0928313383707","202.96800090463995","493.33256730162543"
"","canvas-keyboard-response","241","215533","0.0-6.0-4.33","516","","","","","clear_screen","null","null","","","critical","d","t","c","232.8713","160.6713","240","164","164","240","spektor","0.05","w","240","164","164","240","232.8713","160.6713","39360","39360","37415.7294","tc","null","null","null","null","null","null","[2,3]","539.0928313383707","202.96800090463995","493.33256730162543"
"","canvas-keyboard-response","242","216415","0.0-6.0-5.33","516","","","","","make choice","876","2","","","critical","d","t","c","232.8713","160.6713","240","164","164","240","spektor","0.05","w","240","164","164","240","232.8713","160.6713","39360","39360","37415.7294","tc","null","null","null","null","null","null","[2,3]","","",""
"","canvas-keyboard-response","243","216433","0.0-6.0-6.33","516","","","","","clear_screen","null","null","","","critical","d","t","c","232.8713","160.6713","240","164","164","240","spektor","0.05","w","240","164","164","240","232.8713","160.6713","39360","39360","37415.7294","tc","null","null","null","null","null","null","[2,3]","","",""
"","canvas-keyboard-response","244","216634","0.0-6.0-0.34","516","","","","","pre trial waiting period","null","null","","","catch","sw","l","sh","180","200","285","234","193","191","trueblood","null","null","null","null","null","null","null","null","null","null","null","","180","200","260","200","36000","52000","[2,3]","489.67731814174425","458.92844676907765","487.78984443488287"
"","canvas-keyboard-response","245","216655","0.0-6.0-1.34","516","","","","","clear_screen","null","null","","","catch","sw","l","sh","180","200","285","234","193","191","trueblood","null","null","null","null","null","null","null","null","null","null","null","","180","200","260","200","36000","52000","[2,3]","489.67731814174425","458.92844676907765","487.78984443488287"
"","canvas-keyboard-response","246","217163","0.0-6.0-2.34","516","","","","","rectangles no change","null","null","","","catch","sw","l","sh","180","200","285","234","193","191","trueblood","null","null","null","null","null","null","null","null","null","null","null","","180","200","260","200","36000","52000","[2,3]","489.67731814174425","458.92844676907765","487.78984443488287"
"","canvas-keyboard-response","247","218500","0.0-6.0-3.34","516","","","","","rectangles with change","null","null","","","catch","sw","l","sh","180","200","285","234","193","191","trueblood","null","null","null","null","null","null","null","null","null","null","null","","180","200","260","200","36000","52000","[2,3]","489.67731814174425","458.92844676907765","487.78984443488287"
"","canvas-keyboard-response","248","218518","0.0-6.0-4.34","516","","","","","clear_screen","null","null","","","catch","sw","l","sh","180","200","285","234","193","191","trueblood","null","null","null","null","null","null","null","null","null","null","null","","180","200","260","200","36000","52000","[2,3]","489.67731814174425","458.92844676907765","487.78984443488287"
"","canvas-keyboard-response","249","219047","0.0-6.0-5.34","516","","","","","make choice","523","2","","","catch","sw","l","sh","180","200","285","234","193","191","trueblood","null","null","null","null","null","null","null","null","null","null","null","","180","200","260","200","36000","52000","[2,3]","","",""
"","canvas-keyboard-response","250","219069","0.0-6.0-6.34","516","","","","","clear_screen","null","null","","","catch","sw","l","sh","180","200","285","234","193","191","trueblood","null","null","null","null","null","null","null","null","null","null","null","","180","200","260","200","36000","52000","[2,3]","","",""
"","canvas-keyboard-response","251","219270","0.0-6.0-0.35","516","","","","","pre trial waiting period","null","null","","","critical","c","t","d","164","240","240","164","240","164","spektor","0","w","240","164","164","240","240","164","39360","39360","39360","td","null","null","null","null","null","null","[2,3]","464.79196387073097","206.02072175939782","520.9981995280826"
"","canvas-keyboard-response","252","219291","0.0-6.0-1.35","516","","","","","clear_screen","null","null","","","critical","c","t","d","164","240","240","164","240","164","spektor","0","w","240","164","164","240","240","164","39360","39360","39360","td","null","null","null","null","null","null","[2,3]","464.79196387073097","206.02072175939782","520.9981995280826"
"","canvas-keyboard-response","253","219798","0.0-6.0-2.35","516","","","","","rectangles no change","null","null","","","critical","c","t","d","164","240","240","164","240","164","spektor","0","w","240","164","164","240","240","164","39360","39360","39360","td","null","null","null","null","null","null","[2,3]","464.79196387073097","206.02072175939782","520.9981995280826"
"","canvas-keyboard-response","254","221137","0.0-6.0-3.35","516","","","","","rectangles with change","null","null","","","critical","c","t","d","164","240","240","164","240","164","spektor","0","w","240","164","164","240","240","164","39360","39360","39360","td","null","null","null","null","null","null","[2,3]","464.79196387073097","206.02072175939782","520.9981995280826"
"","canvas-keyboard-response","255","221157","0.0-6.0-4.35","516","","","","","clear_screen","null","null","","","critical","c","t","d","164","240","240","164","240","164","spektor","0","w","240","164","164","240","240","164","39360","39360","39360","td","null","null","null","null","null","null","[2,3]","464.79196387073097","206.02072175939782","520.9981995280826"
"","canvas-keyboard-response","256","222279","0.0-6.0-5.35","516","","","","","make choice","1114","3","","","critical","c","t","d","164","240","240","164","240","164","spektor","0","w","240","164","164","240","240","164","39360","39360","39360","td","null","null","null","null","null","null","[2,3]","","",""
"","canvas-keyboard-response","257","222297","0.0-6.0-6.35","516","","","","","clear_screen","null","null","","","critical","c","t","d","164","240","240","164","240","164","spektor","0","w","240","164","164","240","240","164","39360","39360","39360","td","null","null","null","null","null","null","[2,3]","","",""
"","canvas-keyboard-response","258","222498","0.0-6.0-0.36","516","","","","","pre trial waiting period","null","null","","","critical","d","t","c","154.6796","220.0396","164","240","240","164","trueblood","0.14","h","164","240","240","164","154.6796","220.0396","39360","39360","34035.6388","dc","null","null","null","null","null","null","[1,3]","473.07041279662036","431.2339955362979","518.0625926018865"
"","canvas-keyboard-response","259","222519","0.0-6.0-1.36","516","","","","","clear_screen","null","null","","","critical","d","t","c","154.6796","220.0396","164","240","240","164","trueblood","0.14","h","164","240","240","164","154.6796","220.0396","39360","39360","34035.6388","dc","null","null","null","null","null","null","[1,3]","473.07041279662036","431.2339955362979","518.0625926018865"
"","canvas-keyboard-response","260","223027","0.0-6.0-2.36","516","","","","","rectangles no change","null","null","","","critical","d","t","c","154.6796","220.0396","164","240","240","164","trueblood","0.14","h","164","240","240","164","154.6796","220.0396","39360","39360","34035.6388","dc","null","null","null","null","null","null","[1,3]","473.07041279662036","431.2339955362979","518.0625926018865"
"","canvas-keyboard-response","261","224361","0.0-6.0-3.36","516","","","","","rectangles with change","null","null","","","critical","d","t","c","154.6796","220.0396","164","240","240","164","trueblood","0.14","h","164","240","240","164","154.6796","220.0396","39360","39360","34035.6388","dc","null","null","null","null","null","null","[1,3]","473.07041279662036","431.2339955362979","518.0625926018865"
"","canvas-keyboard-response","262","224379","0.0-6.0-4.36","516","","","","","clear_screen","null","null","","","critical","d","t","c","154.6796","220.0396","164","240","240","164","trueblood","0.14","h","164","240","240","164","154.6796","220.0396","39360","39360","34035.6388","dc","null","null","null","null","null","null","[1,3]","473.07041279662036","431.2339955362979","518.0625926018865"
"","canvas-keyboard-response","263","225151","0.0-6.0-5.36","516","","","","","make choice","765","3","","","critical","d","t","c","154.6796","220.0396","164","240","240","164","trueblood","0.14","h","164","240","240","164","154.6796","220.0396","39360","39360","34035.6388","dc","null","null","null","null","null","null","[1,3]","","",""
"","canvas-keyboard-response","264","225169","0.0-6.0-6.36","516","","","","","clear_screen","null","null","","","critical","d","t","c","154.6796","220.0396","164","240","240","164","trueblood","0.14","h","164","240","240","164","154.6796","220.0396","39360","39360","34035.6388","dc","null","null","null","null","null","null","[1,3]","","",""
"","canvas-keyboard-response","265","225370","0.0-6.0-0.37","516","","","","","pre trial waiting period","null","null","","","catch","sh","sw","l","185","155","162","224","212","293","trueblood","null","null","null","null","null","null","null","null","null","null","null","","180","200","260","200","36000","52000","[2,3]","480.4925560448846","465.05381595464263","417.7469536474126"
