"success","trial_type","trial_index","time_elapsed","internal_node_id","sub_n","timeout","failed_images","failed_audio","failed_video","screen_id","rt","response","stimulus","view_history","trial","r1","r2","r3","w1","h1","w2","h2","w3","h3","display","tdd","tdo","tw","th","cw","ch","dw","dh","ta","ca","da","probe","csls","csss","clls","clss","sa","la","probe_rects","r1yloc","r2yloc","r3yloc"
"true","fullscreen","0","2547","0.0-0.0","552","","","","","","","","","","","","","","","","","","","","","","","","","","","","","","","","","","","","","","","","","",""
"true","preload","1","2575","0.0-1.0","552","false","[]","[]","[]","img preload","","","","","","","","","","","","","","","","","","","","","","","","","","","","","","","","","","","","",""
"","survey-html-form","2","5829","0.0-2.0","552","","","","","enter-sub-number","3243","{""response"":""552""}","","","","","","","","","","","","","","","","","","","","","","","","","","","","","","","","","","",""
"","image-button-response","3","20714","0.0-3.0","552","","","","","","14779","0","consent.png","","","","","","","","","","","","","","","","","","","","","","","","","","","","","","","","","",""
"","html-button-response","4","28242","0.0-4.0","552","","","","","intro mssg","7524","0","<div style= ""font-size:25px;"" <p> <strong> Welcome! </strong><br> <p style=""color:#8B0000; font-size:25px;""><strong> Please do NOT exit full screen until you are done with the experiment. </strong> </p><p style=""font-size:25px;color:#8B0000;""> <strong> Your data will be lost <br> if you try to go back or refresh the page after the experiment starts. Feel free to click ""previous"" during the instructions, however.</strong> </p><br><p> <strong> Thanks in advance for your contribution to our research! </strong></p>","","","","","","","","","","","","","","","","","","","","","","","","","","","","","","","","","",""
"","instructions","5","75154","0.0-5.0","552","","","","","instructions","46907","","","[{""page_index"":0,""viewing_time"":6547},{""page_index"":1,""viewing_time"":8337},{""page_index"":2,""viewing_time"":2855},{""page_index"":3,""viewing_time"":13575},{""page_index"":4,""viewing_time"":7697},{""page_index"":5,""viewing_time"":3232},{""page_index"":6,""viewing_time"":2744},{""page_index"":7,""viewing_time"":1920}]","","","","","","","","","","","","","","","","","","","","","","","","","","","","","","","","",""
"","canvas-keyboard-response","6","75360","0.0-6.0-0.0","552","","","","","pre trial waiting period","null","null","","","critical","d","t","c","237.1485","162.6685","240","164","164","240","trueblood","0.02","w","240","164","164","240","237.1485","162.6685","39360","39360","38576.5967","dc","null","null","null","null","null","null","[1,3]","517.157922189558","502.4150899905295","465.0100866618674"
"","canvas-keyboard-response","7","75384","0.0-6.0-1.0","552","","","","","clear_screen","null","null","","","critical","d","t","c","237.1485","162.6685","240","164","164","240","trueblood","0.02","w","240","164","164","240","237.1485","162.6685","39360","39360","38576.5967","dc","null","null","null","null","null","null","[1,3]","517.157922189558","502.4150899905295","465.0100866618674"
"","canvas-keyboard-response","8","75899","0.0-6.0-2.0","552","","","","","rectangles no change","null","null","","","critical","d","t","c","237.1485","162.6685","240","164","164","240","trueblood","0.02","w","240","164","164","240","237.1485","162.6685","39360","39360","38576.5967","dc","null","null","null","null","null","null","[1,3]","517.157922189558","502.4150899905295","465.0100866618674"
"","canvas-keyboard-response","9","77235","0.0-6.0-3.0","552","","","","","rectangles with change","null","null","","","critical","d","t","c","237.1485","162.6685","240","164","164","240","trueblood","0.02","w","240","164","164","240","237.1485","162.6685","39360","39360","38576.5967","dc","null","null","null","null","null","null","[1,3]","517.157922189558","502.4150899905295","465.0100866618674"
"","canvas-keyboard-response","10","77255","0.0-6.0-4.0","552","","","","","clear_screen","null","null","","","critical","d","t","c","237.1485","162.6685","240","164","164","240","trueblood","0.02","w","240","164","164","240","237.1485","162.6685","39360","39360","38576.5967","dc","null","null","null","null","null","null","[1,3]","517.157922189558","502.4150899905295","465.0100866618674"
"","canvas-keyboard-response","11","79599","0.0-6.0-5.0","552","","","","","make choice","2332","3","","","critical","d","t","c","237.1485","162.6685","240","164","164","240","trueblood","0.02","w","240","164","164","240","237.1485","162.6685","39360","39360","38576.5967","dc","null","null","null","null","null","null","[1,3]","","",""
"","canvas-keyboard-response","12","79618","0.0-6.0-6.0","552","","","","","clear_screen","null","null","","","critical","d","t","c","237.1485","162.6685","240","164","164","240","trueblood","0.02","w","240","164","164","240","237.1485","162.6685","39360","39360","38576.5967","dc","null","null","null","null","null","null","[1,3]","","",""
"","canvas-keyboard-response","13","79820","0.0-6.0-0.1","552","","","","","pre trial waiting period","null","null","","","critical","t","d","c","240","164","240","164","164","240","spektor","0","w","240","164","164","240","240","164","39360","39360","39360","tc","null","null","null","null","null","null","[1,3]","528.3535575409147","183.08914310931758","485.4669303377225"
"","canvas-keyboard-response","14","79840","0.0-6.0-1.1","552","","","","","clear_screen","null","null","","","critical","t","d","c","240","164","240","164","164","240","spektor","0","w","240","164","164","240","240","164","39360","39360","39360","tc","null","null","null","null","null","null","[1,3]","528.3535575409147","183.08914310931758","485.4669303377225"
"","canvas-keyboard-response","15","80352","0.0-6.0-2.1","552","","","","","rectangles no change","null","null","","","critical","t","d","c","240","164","240","164","164","240","spektor","0","w","240","164","164","240","240","164","39360","39360","39360","tc","null","null","null","null","null","null","[1,3]","528.3535575409147","183.08914310931758","485.4669303377225"
"","canvas-keyboard-response","16","81688","0.0-6.0-3.1","552","","","","","rectangles with change","null","null","","","critical","t","d","c","240","164","240","164","164","240","spektor","0","w","240","164","164","240","240","164","39360","39360","39360","tc","null","null","null","null","null","null","[1,3]","528.3535575409147","183.08914310931758","485.4669303377225"
"","canvas-keyboard-response","17","81708","0.0-6.0-4.1","552","","","","","clear_screen","null","null","","","critical","t","d","c","240","164","240","164","164","240","spektor","0","w","240","164","164","240","240","164","39360","39360","39360","tc","null","null","null","null","null","null","[1,3]","528.3535575409147","183.08914310931758","485.4669303377225"
"","canvas-keyboard-response","18","82463","0.0-6.0-5.1","552","","","","","make choice","740","3","","","critical","t","d","c","240","164","240","164","164","240","spektor","0","w","240","164","164","240","240","164","39360","39360","39360","tc","null","null","null","null","null","null","[1,3]","","",""
"","canvas-keyboard-response","19","82482","0.0-6.0-6.1","552","","","","","clear_screen","null","null","","","critical","t","d","c","240","164","240","164","164","240","spektor","0","w","240","164","164","240","240","164","39360","39360","39360","tc","null","null","null","null","null","null","[1,3]","","",""
"","canvas-keyboard-response","20","82684","0.0-6.0-0.2","552","","","","","pre trial waiting period","null","null","","","critical","c","d","t","164","240","227.1683","158.0083","240","164","spektor","0.09","w","240","164","164","240","227.1683","158.0083","39360","39360","35894.4834","tc","null","null","null","null","null","null","[3,1]","481.24975904288334","176.61036553843317","542.4608774658045"
"","canvas-keyboard-response","21","82704","0.0-6.0-1.2","552","","","","","clear_screen","null","null","","","critical","c","d","t","164","240","227.1683","158.0083","240","164","spektor","0.09","w","240","164","164","240","227.1683","158.0083","39360","39360","35894.4834","tc","null","null","null","null","null","null","[3,1]","481.24975904288334","176.61036553843317","542.4608774658045"
"","canvas-keyboard-response","22","83217","0.0-6.0-2.2","552","","","","","rectangles no change","null","null","","","critical","c","d","t","164","240","227.1683","158.0083","240","164","spektor","0.09","w","240","164","164","240","227.1683","158.0083","39360","39360","35894.4834","tc","null","null","null","null","null","null","[3,1]","481.24975904288334","176.61036553843317","542.4608774658045"
"","canvas-keyboard-response","23","84552","0.0-6.0-3.2","552","","","","","rectangles with change","null","null","","","critical","c","d","t","164","240","227.1683","158.0083","240","164","spektor","0.09","w","240","164","164","240","227.1683","158.0083","39360","39360","35894.4834","tc","null","null","null","null","null","null","[3,1]","481.24975904288334","176.61036553843317","542.4608774658045"
"","canvas-keyboard-response","24","84573","0.0-6.0-4.2","552","","","","","clear_screen","null","null","","","critical","c","d","t","164","240","227.1683","158.0083","240","164","spektor","0.09","w","240","164","164","240","227.1683","158.0083","39360","39360","35894.4834","tc","null","null","null","null","null","null","[3,1]","481.24975904288334","176.61036553843317","542.4608774658045"
"","canvas-keyboard-response","25","87519","0.0-6.0-5.2","552","","","","","make choice","2939","3","","","critical","c","d","t","164","240","227.1683","158.0083","240","164","spektor","0.09","w","240","164","164","240","227.1683","158.0083","39360","39360","35894.4834","tc","null","null","null","null","null","null","[3,1]","","",""
"","canvas-keyboard-response","26","87539","0.0-6.0-6.2","552","","","","","clear_screen","null","null","","","critical","c","d","t","164","240","227.1683","158.0083","240","164","spektor","0.09","w","240","164","164","240","227.1683","158.0083","39360","39360","35894.4834","tc","null","null","null","null","null","null","[3,1]","","",""
"","canvas-keyboard-response","27","87739","0.0-6.0-0.3","552","","","","","pre trial waiting period","null","null","","","critical","t","d","c","240","164","240","164","164","240","spektor","0","w","240","164","164","240","240","164","39360","39360","39360","td","null","null","null","null","null","null","[1,2]","506.4655499731519","214.93280297429195","469.32630891581994"
"","canvas-keyboard-response","28","87761","0.0-6.0-1.3","552","","","","","clear_screen","null","null","","","critical","t","d","c","240","164","240","164","164","240","spektor","0","w","240","164","164","240","240","164","39360","39360","39360","td","null","null","null","null","null","null","[1,2]","506.4655499731519","214.93280297429195","469.32630891581994"
"","canvas-keyboard-response","29","88276","0.0-6.0-2.3","552","","","","","rectangles no change","null","null","","","critical","t","d","c","240","164","240","164","164","240","spektor","0","w","240","164","164","240","240","164","39360","39360","39360","td","null","null","null","null","null","null","[1,2]","506.4655499731519","214.93280297429195","469.32630891581994"
"","canvas-keyboard-response","30","89612","0.0-6.0-3.3","552","","","","","rectangles with change","null","null","","","critical","t","d","c","240","164","240","164","164","240","spektor","0","w","240","164","164","240","240","164","39360","39360","39360","td","null","null","null","null","null","null","[1,2]","506.4655499731519","214.93280297429195","469.32630891581994"
"","canvas-keyboard-response","31","89631","0.0-6.0-4.3","552","","","","","clear_screen","null","null","","","critical","t","d","c","240","164","240","164","164","240","spektor","0","w","240","164","164","240","240","164","39360","39360","39360","td","null","null","null","null","null","null","[1,2]","506.4655499731519","214.93280297429195","469.32630891581994"
"","canvas-keyboard-response","32","90007","0.0-6.0-5.3","552","","","","","make choice","366","2","","","critical","t","d","c","240","164","240","164","164","240","spektor","0","w","240","164","164","240","240","164","39360","39360","39360","td","null","null","null","null","null","null","[1,2]","","",""
"","canvas-keyboard-response","33","90025","0.0-6.0-6.3","552","","","","","clear_screen","null","null","","","critical","t","d","c","240","164","240","164","164","240","spektor","0","w","240","164","164","240","240","164","39360","39360","39360","td","null","null","null","null","null","null","[1,2]","","",""
"","canvas-keyboard-response","34","90227","0.0-6.0-0.4","552","","","","","pre trial waiting period","null","null","","","critical","c","d","t","240","164","160.6713","232.8713","164","240","spektor","0.05","h","164","240","240","164","160.6713","232.8713","39360","39360","37415.7294","tc","null","null","null","null","null","null","[3,1]","529.3284122492859","138.89621779739934","470.18085559538997"
"","canvas-keyboard-response","35","90246","0.0-6.0-1.4","552","","","","","clear_screen","null","null","","","critical","c","d","t","240","164","160.6713","232.8713","164","240","spektor","0.05","h","164","240","240","164","160.6713","232.8713","39360","39360","37415.7294","tc","null","null","null","null","null","null","[3,1]","529.3284122492859","138.89621779739934","470.18085559538997"
"","canvas-keyboard-response","36","90757","0.0-6.0-2.4","552","","","","","rectangles no change","null","null","","","critical","c","d","t","240","164","160.6713","232.8713","164","240","spektor","0.05","h","164","240","240","164","160.6713","232.8713","39360","39360","37415.7294","tc","null","null","null","null","null","null","[3,1]","529.3284122492859","138.89621779739934","470.18085559538997"
"","canvas-keyboard-response","37","92092","0.0-6.0-3.4","552","","","","","rectangles with change","null","null","","","critical","c","d","t","240","164","160.6713","232.8713","164","240","spektor","0.05","h","164","240","240","164","160.6713","232.8713","39360","39360","37415.7294","tc","null","null","null","null","null","null","[3,1]","529.3284122492859","138.89621779739934","470.18085559538997"
"","canvas-keyboard-response","38","92111","0.0-6.0-4.4","552","","","","","clear_screen","null","null","","","critical","c","d","t","240","164","160.6713","232.8713","164","240","spektor","0.05","h","164","240","240","164","160.6713","232.8713","39360","39360","37415.7294","tc","null","null","null","null","null","null","[3,1]","529.3284122492859","138.89621779739934","470.18085559538997"
"","canvas-keyboard-response","39","92928","0.0-6.0-5.4","552","","","","","make choice","811","1","","","critical","c","d","t","240","164","160.6713","232.8713","164","240","spektor","0.05","h","164","240","240","164","160.6713","232.8713","39360","39360","37415.7294","tc","null","null","null","null","null","null","[3,1]","","",""
"","canvas-keyboard-response","40","92945","0.0-6.0-6.4","552","","","","","clear_screen","null","null","","","critical","c","d","t","240","164","160.6713","232.8713","164","240","spektor","0.05","h","164","240","240","164","160.6713","232.8713","39360","39360","37415.7294","tc","null","null","null","null","null","null","[3,1]","","",""
"","canvas-keyboard-response","41","93148","0.0-6.0-0.5","552","","","","","pre trial waiting period","null","null","","","critical","d","t","c","154.6796","220.0396","164","240","240","164","trueblood","0.14","h","164","240","240","164","154.6796","220.0396","39360","39360","34035.6388","td","null","null","null","null","null","null","[2,1]","471.35920670733674","466.21819839740016","518.0213875389327"
"","canvas-keyboard-response","42","93169","0.0-6.0-1.5","552","","","","","clear_screen","null","null","","","critical","d","t","c","154.6796","220.0396","164","240","240","164","trueblood","0.14","h","164","240","240","164","154.6796","220.0396","39360","39360","34035.6388","td","null","null","null","null","null","null","[2,1]","471.35920670733674","466.21819839740016","518.0213875389327"
"","canvas-keyboard-response","43","93682","0.0-6.0-2.5","552","","","","","rectangles no change","null","null","","","critical","d","t","c","154.6796","220.0396","164","240","240","164","trueblood","0.14","h","164","240","240","164","154.6796","220.0396","39360","39360","34035.6388","td","null","null","null","null","null","null","[2,1]","471.35920670733674","466.21819839740016","518.0213875389327"
"","canvas-keyboard-response","44","95015","0.0-6.0-3.5","552","","","","","rectangles with change","null","null","","","critical","d","t","c","154.6796","220.0396","164","240","240","164","trueblood","0.14","h","164","240","240","164","154.6796","220.0396","39360","39360","34035.6388","td","null","null","null","null","null","null","[2,1]","471.35920670733674","466.21819839740016","518.0213875389327"
"","canvas-keyboard-response","45","95035","0.0-6.0-4.5","552","","","","","clear_screen","null","null","","","critical","d","t","c","154.6796","220.0396","164","240","240","164","trueblood","0.14","h","164","240","240","164","154.6796","220.0396","39360","39360","34035.6388","td","null","null","null","null","null","null","[2,1]","471.35920670733674","466.21819839740016","518.0213875389327"
"","canvas-keyboard-response","46","96071","0.0-6.0-5.5","552","","","","","make choice","1028","2","","","critical","d","t","c","154.6796","220.0396","164","240","240","164","trueblood","0.14","h","164","240","240","164","154.6796","220.0396","39360","39360","34035.6388","td","null","null","null","null","null","null","[2,1]","","",""
"","canvas-keyboard-response","47","96089","0.0-6.0-6.5","552","","","","","clear_screen","null","null","","","critical","d","t","c","154.6796","220.0396","164","240","240","164","trueblood","0.14","h","164","240","240","164","154.6796","220.0396","39360","39360","34035.6388","td","null","null","null","null","null","null","[2,1]","","",""
"","canvas-keyboard-response","48","96290","0.0-6.0-0.6","552","","","","","pre trial waiting period","null","null","","","catch","sw","l","sh","180","200","177","232","180","155","trueblood","null","null","null","null","null","null","null","null","null","null","null","","180","200","260","200","36000","52000","[1,2]","446.5250378012276","449.2936891669094","477.9306233014217"
"","canvas-keyboard-response","49","96309","0.0-6.0-1.6","552","","","","","clear_screen","null","null","","","catch","sw","l","sh","180","200","177","232","180","155","trueblood","null","null","null","null","null","null","null","null","null","null","null","","180","200","260","200","36000","52000","[1,2]","446.5250378012276","449.2936891669094","477.9306233014217"
"","canvas-keyboard-response","50","96820","0.0-6.0-2.6","552","","","","","rectangles no change","null","null","","","catch","sw","l","sh","180","200","177","232","180","155","trueblood","null","null","null","null","null","null","null","null","null","null","null","","180","200","260","200","36000","52000","[1,2]","446.5250378012276","449.2936891669094","477.9306233014217"
"","canvas-keyboard-response","51","98155","0.0-6.0-3.6","552","","","","","rectangles with change","null","null","","","catch","sw","l","sh","180","200","177","232","180","155","trueblood","null","null","null","null","null","null","null","null","null","null","null","","180","200","260","200","36000","52000","[1,2]","446.5250378012276","449.2936891669094","477.9306233014217"
"","canvas-keyboard-response","52","98174","0.0-6.0-4.6","552","","","","","clear_screen","null","null","","","catch","sw","l","sh","180","200","177","232","180","155","trueblood","null","null","null","null","null","null","null","null","null","null","null","","180","200","260","200","36000","52000","[1,2]","446.5250378012276","449.2936891669094","477.9306233014217"
"","canvas-keyboard-response","53","98511","0.0-6.0-5.6","552","","","","","make choice","330","2","","","catch","sw","l","sh","180","200","177","232","180","155","trueblood","null","null","null","null","null","null","null","null","null","null","null","","180","200","260","200","36000","52000","[1,2]","","",""
"","canvas-keyboard-response","54","98529","0.0-6.0-6.6","552","","","","","clear_screen","null","null","","","catch","sw","l","sh","180","200","177","232","180","155","trueblood","null","null","null","null","null","null","null","null","null","null","null","","180","200","260","200","36000","52000","[1,2]","","",""
"","canvas-keyboard-response","55","98730","0.0-6.0-0.7","552","","","","","pre trial waiting period","null","null","","","catch","sw","l","sh","180","200","237","279","206","166","spektor","null","null","null","null","null","null","null","null","null","null","null","","180","200","260","200","36000","52000","[1,2]","511.64198757103014","109.08702772434026","521.2220773311636"
"","canvas-keyboard-response","56","98748","0.0-6.0-1.7","552","","","","","clear_screen","null","null","","","catch","sw","l","sh","180","200","237","279","206","166","spektor","null","null","null","null","null","null","null","null","null","null","null","","180","200","260","200","36000","52000","[1,2]","511.64198757103014","109.08702772434026","521.2220773311636"
"","canvas-keyboard-response","57","99260","0.0-6.0-2.7","552","","","","","rectangles no change","null","null","","","catch","sw","l","sh","180","200","237","279","206","166","spektor","null","null","null","null","null","null","null","null","null","null","null","","180","200","260","200","36000","52000","[1,2]","511.64198757103014","109.08702772434026","521.2220773311636"
"","canvas-keyboard-response","58","100596","0.0-6.0-3.7","552","","","","","rectangles with change","null","null","","","catch","sw","l","sh","180","200","237","279","206","166","spektor","null","null","null","null","null","null","null","null","null","null","null","","180","200","260","200","36000","52000","[1,2]","511.64198757103014","109.08702772434026","521.2220773311636"
"","canvas-keyboard-response","59","100615","0.0-6.0-4.7","552","","","","","clear_screen","null","null","","","catch","sw","l","sh","180","200","237","279","206","166","spektor","null","null","null","null","null","null","null","null","null","null","null","","180","200","260","200","36000","52000","[1,2]","511.64198757103014","109.08702772434026","521.2220773311636"
"","canvas-keyboard-response","60","100926","0.0-6.0-5.7","552","","","","","make choice","304","2","","","catch","sw","l","sh","180","200","237","279","206","166","spektor","null","null","null","null","null","null","null","null","null","null","null","","180","200","260","200","36000","52000","[1,2]","","",""
"","canvas-keyboard-response","61","100945","0.0-6.0-6.7","552","","","","","clear_screen","null","null","","","catch","sw","l","sh","180","200","237","279","206","166","spektor","null","null","null","null","null","null","null","null","null","null","null","","180","200","260","200","36000","52000","[1,2]","","",""
"","canvas-keyboard-response","62","101146","0.0-6.0-0.8","552","","","","","pre trial waiting period","null","null","","","critical","d","c","t","164","240","240","164","164","240","trueblood","0","h","164","240","240","164","164","240","39360","39360","39360","td","null","null","null","null","null","null","[3,1]","467.2646049521687","492.6014527995436","429.17362204590665"
"","canvas-keyboard-response","63","101164","0.0-6.0-1.8","552","","","","","clear_screen","null","null","","","critical","d","c","t","164","240","240","164","164","240","trueblood","0","h","164","240","240","164","164","240","39360","39360","39360","td","null","null","null","null","null","null","[3,1]","467.2646049521687","492.6014527995436","429.17362204590665"
"","canvas-keyboard-response","64","101675","0.0-6.0-2.8","552","","","","","rectangles no change","null","null","","","critical","d","c","t","164","240","240","164","164","240","trueblood","0","h","164","240","240","164","164","240","39360","39360","39360","td","null","null","null","null","null","null","[3,1]","467.2646049521687","492.6014527995436","429.17362204590665"
"","canvas-keyboard-response","65","103011","0.0-6.0-3.8","552","","","","","rectangles with change","null","null","","","critical","d","c","t","164","240","240","164","164","240","trueblood","0","h","164","240","240","164","164","240","39360","39360","39360","td","null","null","null","null","null","null","[3,1]","467.2646049521687","492.6014527995436","429.17362204590665"
"","canvas-keyboard-response","66","103029","0.0-6.0-4.8","552","","","","","clear_screen","null","null","","","critical","d","c","t","164","240","240","164","164","240","trueblood","0","h","164","240","240","164","164","240","39360","39360","39360","td","null","null","null","null","null","null","[3,1]","467.2646049521687","492.6014527995436","429.17362204590665"
"","canvas-keyboard-response","67","104319","0.0-6.0-5.8","552","","","","","make choice","1281","1","","","critical","d","c","t","164","240","240","164","164","240","trueblood","0","h","164","240","240","164","164","240","39360","39360","39360","td","null","null","null","null","null","null","[3,1]","","",""
"","canvas-keyboard-response","68","104337","0.0-6.0-6.8","552","","","","","clear_screen","null","null","","","critical","d","c","t","164","240","240","164","164","240","trueblood","0","h","164","240","240","164","164","240","39360","39360","39360","td","null","null","null","null","null","null","[3,1]","","",""
"","canvas-keyboard-response","69","104540","0.0-6.0-0.9","552","","","","","pre trial waiting period","null","null","","","critical","c","t","d","240","164","164","240","158.0083","227.1683","spektor","0.09","h","164","240","240","164","158.0083","227.1683","39360","39360","35894.4834","td","null","null","null","null","null","null","[2,3]","498.49214534704527","142.507205397385","470.48765542890595"
"","canvas-keyboard-response","70","104558","0.0-6.0-1.9","552","","","","","clear_screen","null","null","","","critical","c","t","d","240","164","164","240","158.0083","227.1683","spektor","0.09","h","164","240","240","164","158.0083","227.1683","39360","39360","35894.4834","td","null","null","null","null","null","null","[2,3]","498.49214534704527","142.507205397385","470.48765542890595"
"","canvas-keyboard-response","71","105072","0.0-6.0-2.9","552","","","","","rectangles no change","null","null","","","critical","c","t","d","240","164","164","240","158.0083","227.1683","spektor","0.09","h","164","240","240","164","158.0083","227.1683","39360","39360","35894.4834","td","null","null","null","null","null","null","[2,3]","498.49214534704527","142.507205397385","470.48765542890595"
"","canvas-keyboard-response","72","106406","0.0-6.0-3.9","552","","","","","rectangles with change","null","null","","","critical","c","t","d","240","164","164","240","158.0083","227.1683","spektor","0.09","h","164","240","240","164","158.0083","227.1683","39360","39360","35894.4834","td","null","null","null","null","null","null","[2,3]","498.49214534704527","142.507205397385","470.48765542890595"
"","canvas-keyboard-response","73","106425","0.0-6.0-4.9","552","","","","","clear_screen","null","null","","","critical","c","t","d","240","164","164","240","158.0083","227.1683","spektor","0.09","h","164","240","240","164","158.0083","227.1683","39360","39360","35894.4834","td","null","null","null","null","null","null","[2,3]","498.49214534704527","142.507205397385","470.48765542890595"
"","canvas-keyboard-response","74","107328","0.0-6.0-5.9","552","","","","","make choice","895","3","","","critical","c","t","d","240","164","164","240","158.0083","227.1683","spektor","0.09","h","164","240","240","164","158.0083","227.1683","39360","39360","35894.4834","td","null","null","null","null","null","null","[2,3]","","",""
"","canvas-keyboard-response","75","107348","0.0-6.0-6.9","552","","","","","clear_screen","null","null","","","critical","c","t","d","240","164","164","240","158.0083","227.1683","spektor","0.09","h","164","240","240","164","158.0083","227.1683","39360","39360","35894.4834","td","null","null","null","null","null","null","[2,3]","","",""
"","canvas-keyboard-response","76","107550","0.0-6.0-0.10","552","","","","","pre trial waiting period","null","null","","","critical","t","c","d","240","164","164","240","220.0396","154.6796","spektor","0.14","w","240","164","164","240","220.0396","154.6796","39360","39360","34035.6388","tc","null","null","null","null","null","null","[1,2]","511.22013677953134","141.05272221367528","516.7434591717728"
"","canvas-keyboard-response","77","107572","0.0-6.0-1.10","552","","","","","clear_screen","null","null","","","critical","t","c","d","240","164","164","240","220.0396","154.6796","spektor","0.14","w","240","164","164","240","220.0396","154.6796","39360","39360","34035.6388","tc","null","null","null","null","null","null","[1,2]","511.22013677953134","141.05272221367528","516.7434591717728"
"","canvas-keyboard-response","78","108088","0.0-6.0-2.10","552","","","","","rectangles no change","null","null","","","critical","t","c","d","240","164","164","240","220.0396","154.6796","spektor","0.14","w","240","164","164","240","220.0396","154.6796","39360","39360","34035.6388","tc","null","null","null","null","null","null","[1,2]","511.22013677953134","141.05272221367528","516.7434591717728"
"","canvas-keyboard-response","79","109425","0.0-6.0-3.10","552","","","","","rectangles with change","null","null","","","critical","t","c","d","240","164","164","240","220.0396","154.6796","spektor","0.14","w","240","164","164","240","220.0396","154.6796","39360","39360","34035.6388","tc","null","null","null","null","null","null","[1,2]","511.22013677953134","141.05272221367528","516.7434591717728"
"","canvas-keyboard-response","80","109445","0.0-6.0-4.10","552","","","","","clear_screen","null","null","","","critical","t","c","d","240","164","164","240","220.0396","154.6796","spektor","0.14","w","240","164","164","240","220.0396","154.6796","39360","39360","34035.6388","tc","null","null","null","null","null","null","[1,2]","511.22013677953134","141.05272221367528","516.7434591717728"
"","canvas-keyboard-response","81","110887","0.0-6.0-5.10","552","","","","","make choice","1436","1","","","critical","t","c","d","240","164","164","240","220.0396","154.6796","spektor","0.14","w","240","164","164","240","220.0396","154.6796","39360","39360","34035.6388","tc","null","null","null","null","null","null","[1,2]","","",""
"","canvas-keyboard-response","82","110907","0.0-6.0-6.10","552","","","","","clear_screen","null","null","","","critical","t","c","d","240","164","164","240","220.0396","154.6796","spektor","0.14","w","240","164","164","240","220.0396","154.6796","39360","39360","34035.6388","tc","null","null","null","null","null","null","[1,2]","","",""
"","canvas-keyboard-response","83","111108","0.0-6.0-0.11","552","","","","","pre trial waiting period","null","null","","","critical","d","c","t","154.6796","220.0396","240","164","164","240","trueblood","0.14","h","164","240","240","164","154.6796","220.0396","39360","39360","34035.6388","dc","null","null","null","null","null","null","[1,2]","435.2753220643096","514.1090027663568","444.5404635228563"
"","canvas-keyboard-response","84","111129","0.0-6.0-1.11","552","","","","","clear_screen","null","null","","","critical","d","c","t","154.6796","220.0396","240","164","164","240","trueblood","0.14","h","164","240","240","164","154.6796","220.0396","39360","39360","34035.6388","dc","null","null","null","null","null","null","[1,2]","435.2753220643096","514.1090027663568","444.5404635228563"
"","canvas-keyboard-response","85","111640","0.0-6.0-2.11","552","","","","","rectangles no change","null","null","","","critical","d","c","t","154.6796","220.0396","240","164","164","240","trueblood","0.14","h","164","240","240","164","154.6796","220.0396","39360","39360","34035.6388","dc","null","null","null","null","null","null","[1,2]","435.2753220643096","514.1090027663568","444.5404635228563"
"","canvas-keyboard-response","86","112976","0.0-6.0-3.11","552","","","","","rectangles with change","null","null","","","critical","d","c","t","154.6796","220.0396","240","164","164","240","trueblood","0.14","h","164","240","240","164","154.6796","220.0396","39360","39360","34035.6388","dc","null","null","null","null","null","null","[1,2]","435.2753220643096","514.1090027663568","444.5404635228563"
"","canvas-keyboard-response","87","112995","0.0-6.0-4.11","552","","","","","clear_screen","null","null","","","critical","d","c","t","154.6796","220.0396","240","164","164","240","trueblood","0.14","h","164","240","240","164","154.6796","220.0396","39360","39360","34035.6388","dc","null","null","null","null","null","null","[1,2]","435.2753220643096","514.1090027663568","444.5404635228563"
"","canvas-keyboard-response","88","113759","0.0-6.0-5.11","552","","","","","make choice","752","2","","","critical","d","c","t","154.6796","220.0396","240","164","164","240","trueblood","0.14","h","164","240","240","164","154.6796","220.0396","39360","39360","34035.6388","dc","null","null","null","null","null","null","[1,2]","","",""
"","canvas-keyboard-response","89","113777","0.0-6.0-6.11","552","","","","","clear_screen","null","null","","","critical","d","c","t","154.6796","220.0396","240","164","164","240","trueblood","0.14","h","164","240","240","164","154.6796","220.0396","39360","39360","34035.6388","dc","null","null","null","null","null","null","[1,2]","","",""
"","canvas-keyboard-response","90","113979","0.0-6.0-0.12","552","","","","","pre trial waiting period","null","null","","","critical","c","d","t","240","164","162.6685","237.1485","164","240","trueblood","0.02","h","164","240","240","164","162.6685","237.1485","39360","39360","38576.5967","td","null","null","null","null","null","null","[3,2]","502.2398198679383","441.9655153998368","457.4428797521045"
"","canvas-keyboard-response","91","114000","0.0-6.0-1.12","552","","","","","clear_screen","null","null","","","critical","c","d","t","240","164","162.6685","237.1485","164","240","trueblood","0.02","h","164","240","240","164","162.6685","237.1485","39360","39360","38576.5967","td","null","null","null","null","null","null","[3,2]","502.2398198679383","441.9655153998368","457.4428797521045"
"","canvas-keyboard-response","92","114515","0.0-6.0-2.12","552","","","","","rectangles no change","null","null","","","critical","c","d","t","240","164","162.6685","237.1485","164","240","trueblood","0.02","h","164","240","240","164","162.6685","237.1485","39360","39360","38576.5967","td","null","null","null","null","null","null","[3,2]","502.2398198679383","441.9655153998368","457.4428797521045"
"","canvas-keyboard-response","93","115851","0.0-6.0-3.12","552","","","","","rectangles with change","null","null","","","critical","c","d","t","240","164","162.6685","237.1485","164","240","trueblood","0.02","h","164","240","240","164","162.6685","237.1485","39360","39360","38576.5967","td","null","null","null","null","null","null","[3,2]","502.2398198679383","441.9655153998368","457.4428797521045"
"","canvas-keyboard-response","94","115877","0.0-6.0-4.12","552","","","","","clear_screen","null","null","","","critical","c","d","t","240","164","162.6685","237.1485","164","240","trueblood","0.02","h","164","240","240","164","162.6685","237.1485","39360","39360","38576.5967","td","null","null","null","null","null","null","[3,2]","502.2398198679383","441.9655153998368","457.4428797521045"
"","canvas-keyboard-response","95","119031","0.0-6.0-5.12","552","","","","","make choice","3146","3","","","critical","c","d","t","240","164","162.6685","237.1485","164","240","trueblood","0.02","h","164","240","240","164","162.6685","237.1485","39360","39360","38576.5967","td","null","null","null","null","null","null","[3,2]","","",""
"","canvas-keyboard-response","96","119050","0.0-6.0-6.12","552","","","","","clear_screen","null","null","","","critical","c","d","t","240","164","162.6685","237.1485","164","240","trueblood","0.02","h","164","240","240","164","162.6685","237.1485","39360","39360","38576.5967","td","null","null","null","null","null","null","[3,2]","","",""
"","canvas-keyboard-response","97","119252","0.0-6.0-0.13","552","","","","","pre trial waiting period","null","null","","","catch","l","sw","sh","232","173","185","182","181","200","trueblood","null","null","null","null","null","null","null","null","null","null","null","","180","200","260","200","36000","52000","[1,2]","465.2215607862587","490.33648750612105","475.38899398823315"
"","canvas-keyboard-response","98","119272","0.0-6.0-1.13","552","","","","","clear_screen","null","null","","","catch","l","sw","sh","232","173","185","182","181","200","trueblood","null","null","null","null","null","null","null","null","null","null","null","","180","200","260","200","36000","52000","[1,2]","465.2215607862587","490.33648750612105","475.38899398823315"
"","canvas-keyboard-response","99","119783","0.0-6.0-2.13","552","","","","","rectangles no change","null","null","","","catch","l","sw","sh","232","173","185","182","181","200","trueblood","null","null","null","null","null","null","null","null","null","null","null","","180","200","260","200","36000","52000","[1,2]","465.2215607862587","490.33648750612105","475.38899398823315"
"","canvas-keyboard-response","100","121118","0.0-6.0-3.13","552","","","","","rectangles with change","null","null","","","catch","l","sw","sh","232","173","185","182","181","200","trueblood","null","null","null","null","null","null","null","null","null","null","null","","180","200","260","200","36000","52000","[1,2]","465.2215607862587","490.33648750612105","475.38899398823315"
"","canvas-keyboard-response","101","121138","0.0-6.0-4.13","552","","","","","clear_screen","null","null","","","catch","l","sw","sh","232","173","185","182","181","200","trueblood","null","null","null","null","null","null","null","null","null","null","null","","180","200","260","200","36000","52000","[1,2]","465.2215607862587","490.33648750612105","475.38899398823315"
"","canvas-keyboard-response","102","121759","0.0-6.0-5.13","552","","","","","make choice","613","1","","","catch","l","sw","sh","232","173","185","182","181","200","trueblood","null","null","null","null","null","null","null","null","null","null","null","","180","200","260","200","36000","52000","[1,2]","","",""
"","canvas-keyboard-response","103","121776","0.0-6.0-6.13","552","","","","","clear_screen","null","null","","","catch","l","sw","sh","232","173","185","182","181","200","trueblood","null","null","null","null","null","null","null","null","null","null","null","","180","200","260","200","36000","52000","[1,2]","","",""
"","canvas-keyboard-response","104","121978","0.0-6.0-0.14","552","","","","","pre trial waiting period","null","null","","","critical","d","c","t","160.6713","232.8713","240","164","164","240","trueblood","0.05","h","164","240","240","164","160.6713","232.8713","39360","39360","37415.7294","td","null","null","null","null","null","null","[3,1]","432.790924849935","496.04592206860355","430.50693411940165"
"","canvas-keyboard-response","105","121997","0.0-6.0-1.14","552","","","","","clear_screen","null","null","","","critical","d","c","t","160.6713","232.8713","240","164","164","240","trueblood","0.05","h","164","240","240","164","160.6713","232.8713","39360","39360","37415.7294","td","null","null","null","null","null","null","[3,1]","432.790924849935","496.04592206860355","430.50693411940165"
"","canvas-keyboard-response","106","122507","0.0-6.0-2.14","552","","","","","rectangles no change","null","null","","","critical","d","c","t","160.6713","232.8713","240","164","164","240","trueblood","0.05","h","164","240","240","164","160.6713","232.8713","39360","39360","37415.7294","td","null","null","null","null","null","null","[3,1]","432.790924849935","496.04592206860355","430.50693411940165"
"","canvas-keyboard-response","107","123842","0.0-6.0-3.14","552","","","","","rectangles with change","null","null","","","critical","d","c","t","160.6713","232.8713","240","164","164","240","trueblood","0.05","h","164","240","240","164","160.6713","232.8713","39360","39360","37415.7294","td","null","null","null","null","null","null","[3,1]","432.790924849935","496.04592206860355","430.50693411940165"
"","canvas-keyboard-response","108","123861","0.0-6.0-4.14","552","","","","","clear_screen","null","null","","","critical","d","c","t","160.6713","232.8713","240","164","164","240","trueblood","0.05","h","164","240","240","164","160.6713","232.8713","39360","39360","37415.7294","td","null","null","null","null","null","null","[3,1]","432.790924849935","496.04592206860355","430.50693411940165"
"","canvas-keyboard-response","109","124614","0.0-6.0-5.14","552","","","","","make choice","745","3","","","critical","d","c","t","160.6713","232.8713","240","164","164","240","trueblood","0.05","h","164","240","240","164","160.6713","232.8713","39360","39360","37415.7294","td","null","null","null","null","null","null","[3,1]","","",""
"","canvas-keyboard-response","110","124634","0.0-6.0-6.14","552","","","","","clear_screen","null","null","","","critical","d","c","t","160.6713","232.8713","240","164","164","240","trueblood","0.05","h","164","240","240","164","160.6713","232.8713","39360","39360","37415.7294","td","null","null","null","null","null","null","[3,1]","","",""
"","canvas-keyboard-response","111","124834","0.0-6.0-0.15","552","","","","","pre trial waiting period","null","null","","","catch","sh","sw","l","162","141","169","194","178","249","spektor","null","null","null","null","null","null","null","null","null","null","null","","180","200","260","200","36000","52000","[1,3]","549.640039841534","152.91029186881673","496.4267435227528"
"","canvas-keyboard-response","112","124857","0.0-6.0-1.15","552","","","","","clear_screen","null","null","","","catch","sh","sw","l","162","141","169","194","178","249","spektor","null","null","null","null","null","null","null","null","null","null","null","","180","200","260","200","36000","52000","[1,3]","549.640039841534","152.91029186881673","496.4267435227528"
"","canvas-keyboard-response","113","125368","0.0-6.0-2.15","552","","","","","rectangles no change","null","null","","","catch","sh","sw","l","162","141","169","194","178","249","spektor","null","null","null","null","null","null","null","null","null","null","null","","180","200","260","200","36000","52000","[1,3]","549.640039841534","152.91029186881673","496.4267435227528"
"","canvas-keyboard-response","114","126704","0.0-6.0-3.15","552","","","","","rectangles with change","null","null","","","catch","sh","sw","l","162","141","169","194","178","249","spektor","null","null","null","null","null","null","null","null","null","null","null","","180","200","260","200","36000","52000","[1,3]","549.640039841534","152.91029186881673","496.4267435227528"
"","canvas-keyboard-response","115","126723","0.0-6.0-4.15","552","","","","","clear_screen","null","null","","","catch","sh","sw","l","162","141","169","194","178","249","spektor","null","null","null","null","null","null","null","null","null","null","null","","180","200","260","200","36000","52000","[1,3]","549.640039841534","152.91029186881673","496.4267435227528"
"","canvas-keyboard-response","116","127446","0.0-6.0-5.15","552","","","","","make choice","717","3","","","catch","sh","sw","l","162","141","169","194","178","249","spektor","null","null","null","null","null","null","null","null","null","null","null","","180","200","260","200","36000","52000","[1,3]","","",""
"","canvas-keyboard-response","117","127465","0.0-6.0-6.15","552","","","","","clear_screen","null","null","","","catch","sh","sw","l","162","141","169","194","178","249","spektor","null","null","null","null","null","null","null","null","null","null","null","","180","200","260","200","36000","52000","[1,3]","","",""
"","canvas-keyboard-response","118","127666","0.0-6.0-0.16","552","","","","","pre trial waiting period","null","null","","","critical","d","t","c","162.6685","237.1485","164","240","240","164","trueblood","0.02","h","164","240","240","164","162.6685","237.1485","39360","39360","38576.5967","dc","null","null","null","null","null","null","[1,3]","461.5508759544217","453.8935227521619","515.6903969415216"
"","canvas-keyboard-response","119","127685","0.0-6.0-1.16","552","","","","","clear_screen","null","null","","","critical","d","t","c","162.6685","237.1485","164","240","240","164","trueblood","0.02","h","164","240","240","164","162.6685","237.1485","39360","39360","38576.5967","dc","null","null","null","null","null","null","[1,3]","461.5508759544217","453.8935227521619","515.6903969415216"
"","canvas-keyboard-response","120","128198","0.0-6.0-2.16","552","","","","","rectangles no change","null","null","","","critical","d","t","c","162.6685","237.1485","164","240","240","164","trueblood","0.02","h","164","240","240","164","162.6685","237.1485","39360","39360","38576.5967","dc","null","null","null","null","null","null","[1,3]","461.5508759544217","453.8935227521619","515.6903969415216"
"","canvas-keyboard-response","121","129533","0.0-6.0-3.16","552","","","","","rectangles with change","null","null","","","critical","d","t","c","162.6685","237.1485","164","240","240","164","trueblood","0.02","h","164","240","240","164","162.6685","237.1485","39360","39360","38576.5967","dc","null","null","null","null","null","null","[1,3]","461.5508759544217","453.8935227521619","515.6903969415216"
"","canvas-keyboard-response","122","129552","0.0-6.0-4.16","552","","","","","clear_screen","null","null","","","critical","d","t","c","162.6685","237.1485","164","240","240","164","trueblood","0.02","h","164","240","240","164","162.6685","237.1485","39360","39360","38576.5967","dc","null","null","null","null","null","null","[1,3]","461.5508759544217","453.8935227521619","515.6903969415216"
"","canvas-keyboard-response","123","129903","0.0-6.0-5.16","552","","","","","make choice","342","3","","","critical","d","t","c","162.6685","237.1485","164","240","240","164","trueblood","0.02","h","164","240","240","164","162.6685","237.1485","39360","39360","38576.5967","dc","null","null","null","null","null","null","[1,3]","","",""
"","canvas-keyboard-response","124","129927","0.0-6.0-6.16","552","","","","","clear_screen","null","null","","","critical","d","t","c","162.6685","237.1485","164","240","240","164","trueblood","0.02","h","164","240","240","164","162.6685","237.1485","39360","39360","38576.5967","dc","null","null","null","null","null","null","[1,3]","","",""
"","canvas-keyboard-response","125","130129","0.0-6.0-0.17","552","","","","","pre trial waiting period","null","null","","","catch","sh","l","sw","235","210","230","274","219","217","trueblood","null","null","null","null","null","null","null","null","null","null","null","","180","200","260","200","36000","52000","[1,2]","455.9451795238418","431.2289388620211","442.2781321247444"
"","canvas-keyboard-response","126","130148","0.0-6.0-1.17","552","","","","","clear_screen","null","null","","","catch","sh","l","sw","235","210","230","274","219","217","trueblood","null","null","null","null","null","null","null","null","null","null","null","","180","200","260","200","36000","52000","[1,2]","455.9451795238418","431.2289388620211","442.2781321247444"
"","canvas-keyboard-response","127","130658","0.0-6.0-2.17","552","","","","","rectangles no change","null","null","","","catch","sh","l","sw","235","210","230","274","219","217","trueblood","null","null","null","null","null","null","null","null","null","null","null","","180","200","260","200","36000","52000","[1,2]","455.9451795238418","431.2289388620211","442.2781321247444"
"","canvas-keyboard-response","128","131993","0.0-6.0-3.17","552","","","","","rectangles with change","null","null","","","catch","sh","l","sw","235","210","230","274","219","217","trueblood","null","null","null","null","null","null","null","null","null","null","null","","180","200","260","200","36000","52000","[1,2]","455.9451795238418","431.2289388620211","442.2781321247444"
"","canvas-keyboard-response","129","132012","0.0-6.0-4.17","552","","","","","clear_screen","null","null","","","catch","sh","l","sw","235","210","230","274","219","217","trueblood","null","null","null","null","null","null","null","null","null","null","null","","180","200","260","200","36000","52000","[1,2]","455.9451795238418","431.2289388620211","442.2781321247444"
"","canvas-keyboard-response","130","132671","0.0-6.0-5.17","552","","","","","make choice","652","2","","","catch","sh","l","sw","235","210","230","274","219","217","trueblood","null","null","null","null","null","null","null","null","null","null","null","","180","200","260","200","36000","52000","[1,2]","","",""
"","canvas-keyboard-response","131","132689","0.0-6.0-6.17","552","","","","","clear_screen","null","null","","","catch","sh","l","sw","235","210","230","274","219","217","trueblood","null","null","null","null","null","null","null","null","null","null","null","","180","200","260","200","36000","52000","[1,2]","","",""
"","canvas-keyboard-response","132","132890","0.0-6.0-0.18","552","","","","","pre trial waiting period","null","null","","","critical","t","d","c","240","164","240","164","164","240","trueblood","0","w","240","164","164","240","240","164","39360","39360","39360","tc","null","null","null","null","null","null","[1,3]","518.3273050761544","487.6063366917416","450.4486439839666"
"","canvas-keyboard-response","133","132910","0.0-6.0-1.18","552","","","","","clear_screen","null","null","","","critical","t","d","c","240","164","240","164","164","240","trueblood","0","w","240","164","164","240","240","164","39360","39360","39360","tc","null","null","null","null","null","null","[1,3]","518.3273050761544","487.6063366917416","450.4486439839666"
"","canvas-keyboard-response","134","133422","0.0-6.0-2.18","552","","","","","rectangles no change","null","null","","","critical","t","d","c","240","164","240","164","164","240","trueblood","0","w","240","164","164","240","240","164","39360","39360","39360","tc","null","null","null","null","null","null","[1,3]","518.3273050761544","487.6063366917416","450.4486439839666"
"","canvas-keyboard-response","135","134757","0.0-6.0-3.18","552","","","","","rectangles with change","null","null","","","critical","t","d","c","240","164","240","164","164","240","trueblood","0","w","240","164","164","240","240","164","39360","39360","39360","tc","null","null","null","null","null","null","[1,3]","518.3273050761544","487.6063366917416","450.4486439839666"
"","canvas-keyboard-response","136","134775","0.0-6.0-4.18","552","","","","","clear_screen","null","null","","","critical","t","d","c","240","164","240","164","164","240","trueblood","0","w","240","164","164","240","240","164","39360","39360","39360","tc","null","null","null","null","null","null","[1,3]","518.3273050761544","487.6063366917416","450.4486439839666"
"","canvas-keyboard-response","137","136846","0.0-6.0-5.18","552","","","","","make choice","2063","1","","","critical","t","d","c","240","164","240","164","164","240","trueblood","0","w","240","164","164","240","240","164","39360","39360","39360","tc","null","null","null","null","null","null","[1,3]","","",""
"","canvas-keyboard-response","138","136864","0.0-6.0-6.18","552","","","","","clear_screen","null","null","","","critical","t","d","c","240","164","240","164","164","240","trueblood","0","w","240","164","164","240","240","164","39360","39360","39360","tc","null","null","null","null","null","null","[1,3]","","",""
"","canvas-keyboard-response","139","137066","0.0-6.0-0.19","552","","","","","pre trial waiting period","null","null","","","catch","sh","sw","l","179","149","190","212","209","296","spektor","null","null","null","null","null","null","null","null","null","null","null","","180","200","260","200","36000","52000","[1,3]","504.4309514546401","130.9462528942049","433.16529707281217"
"","canvas-keyboard-response","140","137084","0.0-6.0-1.19","552","","","","","clear_screen","null","null","","","catch","sh","sw","l","179","149","190","212","209","296","spektor","null","null","null","null","null","null","null","null","null","null","null","","180","200","260","200","36000","52000","[1,3]","504.4309514546401","130.9462528942049","433.16529707281217"
"","canvas-keyboard-response","141","137596","0.0-6.0-2.19","552","","","","","rectangles no change","null","null","","","catch","sh","sw","l","179","149","190","212","209","296","spektor","null","null","null","null","null","null","null","null","null","null","null","","180","200","260","200","36000","52000","[1,3]","504.4309514546401","130.9462528942049","433.16529707281217"
"","canvas-keyboard-response","142","138932","0.0-6.0-3.19","552","","","","","rectangles with change","null","null","","","catch","sh","sw","l","179","149","190","212","209","296","spektor","null","null","null","null","null","null","null","null","null","null","null","","180","200","260","200","36000","52000","[1,3]","504.4309514546401","130.9462528942049","433.16529707281217"
"","canvas-keyboard-response","143","138951","0.0-6.0-4.19","552","","","","","clear_screen","null","null","","","catch","sh","sw","l","179","149","190","212","209","296","spektor","null","null","null","null","null","null","null","null","null","null","null","","180","200","260","200","36000","52000","[1,3]","504.4309514546401","130.9462528942049","433.16529707281217"
"","canvas-keyboard-response","144","139374","0.0-6.0-5.19","552","","","","","make choice","410","3","","","catch","sh","sw","l","179","149","190","212","209","296","spektor","null","null","null","null","null","null","null","null","null","null","null","","180","200","260","200","36000","52000","[1,3]","","",""
"","canvas-keyboard-response","145","139392","0.0-6.0-6.19","552","","","","","clear_screen","null","null","","","catch","sh","sw","l","179","149","190","212","209","296","spektor","null","null","null","null","null","null","null","null","null","null","null","","180","200","260","200","36000","52000","[1,3]","","",""
"","canvas-keyboard-response","146","139594","0.0-6.0-0.20","552","","","","","pre trial waiting period","null","null","","","critical","c","t","d","240","164","164","240","154.6796","220.0396","spektor","0.14","h","164","240","240","164","154.6796","220.0396","39360","39360","34035.6388","td","null","null","null","null","null","null","[2,3]","542.4419559409735","115.90046505894978","492.6606889082726"
"","canvas-keyboard-response","147","139613","0.0-6.0-1.20","552","","","","","clear_screen","null","null","","","critical","c","t","d","240","164","164","240","154.6796","220.0396","spektor","0.14","h","164","240","240","164","154.6796","220.0396","39360","39360","34035.6388","td","null","null","null","null","null","null","[2,3]","542.4419559409735","115.90046505894978","492.6606889082726"
"","canvas-keyboard-response","148","140126","0.0-6.0-2.20","552","","","","","rectangles no change","null","null","","","critical","c","t","d","240","164","164","240","154.6796","220.0396","spektor","0.14","h","164","240","240","164","154.6796","220.0396","39360","39360","34035.6388","td","null","null","null","null","null","null","[2,3]","542.4419559409735","115.90046505894978","492.6606889082726"
"","canvas-keyboard-response","149","141462","0.0-6.0-3.20","552","","","","","rectangles with change","null","null","","","critical","c","t","d","240","164","164","240","154.6796","220.0396","spektor","0.14","h","164","240","240","164","154.6796","220.0396","39360","39360","34035.6388","td","null","null","null","null","null","null","[2,3]","542.4419559409735","115.90046505894978","492.6606889082726"
"","canvas-keyboard-response","150","141485","0.0-6.0-4.20","552","","","","","clear_screen","null","null","","","critical","c","t","d","240","164","164","240","154.6796","220.0396","spektor","0.14","h","164","240","240","164","154.6796","220.0396","39360","39360","34035.6388","td","null","null","null","null","null","null","[2,3]","542.4419559409735","115.90046505894978","492.6606889082726"
"","canvas-keyboard-response","151","142152","0.0-6.0-5.20","552","","","","","make choice","658","2","","","critical","c","t","d","240","164","164","240","154.6796","220.0396","spektor","0.14","h","164","240","240","164","154.6796","220.0396","39360","39360","34035.6388","td","null","null","null","null","null","null","[2,3]","","",""
"","canvas-keyboard-response","152","142173","0.0-6.0-6.20","552","","","","","clear_screen","null","null","","","critical","c","t","d","240","164","164","240","154.6796","220.0396","spektor","0.14","h","164","240","240","164","154.6796","220.0396","39360","39360","34035.6388","td","null","null","null","null","null","null","[2,3]","","",""
"","canvas-keyboard-response","153","142375","0.0-6.0-0.21","552","","","","","pre trial waiting period","null","null","","","critical","t","d","c","240","164","220.0396","154.6796","164","240","trueblood","0.14","w","240","164","164","240","220.0396","154.6796","39360","39360","34035.6388","dc","null","null","null","null","null","null","[2,3]","509.36041448707323","474.52502571996735","468.383006505431"
"","canvas-keyboard-response","154","142397","0.0-6.0-1.21","552","","","","","clear_screen","null","null","","","critical","t","d","c","240","164","220.0396","154.6796","164","240","trueblood","0.14","w","240","164","164","240","220.0396","154.6796","39360","39360","34035.6388","dc","null","null","null","null","null","null","[2,3]","509.36041448707323","474.52502571996735","468.383006505431"
"","canvas-keyboard-response","155","142908","0.0-6.0-2.21","552","","","","","rectangles no change","null","null","","","critical","t","d","c","240","164","220.0396","154.6796","164","240","trueblood","0.14","w","240","164","164","240","220.0396","154.6796","39360","39360","34035.6388","dc","null","null","null","null","null","null","[2,3]","509.36041448707323","474.52502571996735","468.383006505431"
"","canvas-keyboard-response","156","144244","0.0-6.0-3.21","552","","","","","rectangles with change","null","null","","","critical","t","d","c","240","164","220.0396","154.6796","164","240","trueblood","0.14","w","240","164","164","240","220.0396","154.6796","39360","39360","34035.6388","dc","null","null","null","null","null","null","[2,3]","509.36041448707323","474.52502571996735","468.383006505431"
"","canvas-keyboard-response","157","144263","0.0-6.0-4.21","552","","","","","clear_screen","null","null","","","critical","t","d","c","240","164","220.0396","154.6796","164","240","trueblood","0.14","w","240","164","164","240","220.0396","154.6796","39360","39360","34035.6388","dc","null","null","null","null","null","null","[2,3]","509.36041448707323","474.52502571996735","468.383006505431"
"","canvas-keyboard-response","158","145207","0.0-6.0-5.21","552","","","","","make choice","936","3","","","critical","t","d","c","240","164","220.0396","154.6796","164","240","trueblood","0.14","w","240","164","164","240","220.0396","154.6796","39360","39360","34035.6388","dc","null","null","null","null","null","null","[2,3]","","",""
"","canvas-keyboard-response","159","145226","0.0-6.0-6.21","552","","","","","clear_screen","null","null","","","critical","t","d","c","240","164","220.0396","154.6796","164","240","trueblood","0.14","w","240","164","164","240","220.0396","154.6796","39360","39360","34035.6388","dc","null","null","null","null","null","null","[2,3]","","",""
"","canvas-keyboard-response","160","145428","0.0-6.0-0.22","552","","","","","pre trial waiting period","null","null","","","critical","c","t","d","164","240","240","164","232.8713","160.6713","spektor","0.05","w","240","164","164","240","232.8713","160.6713","39360","39360","37415.7294","td","null","null","null","null","null","null","[2,3]","460.0422990749941","205.7693183798613","532.4662162002364"
"","canvas-keyboard-response","161","145447","0.0-6.0-1.22","552","","","","","clear_screen","null","null","","","critical","c","t","d","164","240","240","164","232.8713","160.6713","spektor","0.05","w","240","164","164","240","232.8713","160.6713","39360","39360","37415.7294","td","null","null","null","null","null","null","[2,3]","460.0422990749941","205.7693183798613","532.4662162002364"
"","canvas-keyboard-response","162","145959","0.0-6.0-2.22","552","","","","","rectangles no change","null","null","","","critical","c","t","d","164","240","240","164","232.8713","160.6713","spektor","0.05","w","240","164","164","240","232.8713","160.6713","39360","39360","37415.7294","td","null","null","null","null","null","null","[2,3]","460.0422990749941","205.7693183798613","532.4662162002364"
"","canvas-keyboard-response","163","147296","0.0-6.0-3.22","552","","","","","rectangles with change","null","null","","","critical","c","t","d","164","240","240","164","232.8713","160.6713","spektor","0.05","w","240","164","164","240","232.8713","160.6713","39360","39360","37415.7294","td","null","null","null","null","null","null","[2,3]","460.0422990749941","205.7693183798613","532.4662162002364"
"","canvas-keyboard-response","164","147314","0.0-6.0-4.22","552","","","","","clear_screen","null","null","","","critical","c","t","d","164","240","240","164","232.8713","160.6713","spektor","0.05","w","240","164","164","240","232.8713","160.6713","39360","39360","37415.7294","td","null","null","null","null","null","null","[2,3]","460.0422990749941","205.7693183798613","532.4662162002364"
"","canvas-keyboard-response","165","151663","0.0-6.0-5.22","552","","","","","make choice","4335","3","","","critical","c","t","d","164","240","240","164","232.8713","160.6713","spektor","0.05","w","240","164","164","240","232.8713","160.6713","39360","39360","37415.7294","td","null","null","null","null","null","null","[2,3]","","",""
"","canvas-keyboard-response","166","151681","0.0-6.0-6.22","552","","","","","clear_screen","null","null","","","critical","c","t","d","164","240","240","164","232.8713","160.6713","spektor","0.05","w","240","164","164","240","232.8713","160.6713","39360","39360","37415.7294","td","null","null","null","null","null","null","[2,3]","","",""
"","canvas-keyboard-response","167","151883","0.0-6.0-0.23","552","","","","","pre trial waiting period","null","null","","","catch","sh","sw","l","226","167","215","212","261","161","trueblood","null","null","null","null","null","null","null","null","null","null","null","","180","200","260","200","36000","52000","[2,3]","511.38005867625924","443.22808557231025","484.0165301269776"
"","canvas-keyboard-response","168","151907","0.0-6.0-1.23","552","","","","","clear_screen","null","null","","","catch","sh","sw","l","226","167","215","212","261","161","trueblood","null","null","null","null","null","null","null","null","null","null","null","","180","200","260","200","36000","52000","[2,3]","511.38005867625924","443.22808557231025","484.0165301269776"
"","canvas-keyboard-response","169","152418","0.0-6.0-2.23","552","","","","","rectangles no change","null","null","","","catch","sh","sw","l","226","167","215","212","261","161","trueblood","null","null","null","null","null","null","null","null","null","null","null","","180","200","260","200","36000","52000","[2,3]","511.38005867625924","443.22808557231025","484.0165301269776"
"","canvas-keyboard-response","170","153754","0.0-6.0-3.23","552","","","","","rectangles with change","null","null","","","catch","sh","sw","l","226","167","215","212","261","161","trueblood","null","null","null","null","null","null","null","null","null","null","null","","180","200","260","200","36000","52000","[2,3]","511.38005867625924","443.22808557231025","484.0165301269776"
"","canvas-keyboard-response","171","153772","0.0-6.0-4.23","552","","","","","clear_screen","null","null","","","catch","sh","sw","l","226","167","215","212","261","161","trueblood","null","null","null","null","null","null","null","null","null","null","null","","180","200","260","200","36000","52000","[2,3]","511.38005867625924","443.22808557231025","484.0165301269776"
"","canvas-keyboard-response","172","155023","0.0-6.0-5.23","552","","","","","make choice","1243","2","","","catch","sh","sw","l","226","167","215","212","261","161","trueblood","null","null","null","null","null","null","null","null","null","null","null","","180","200","260","200","36000","52000","[2,3]","","",""
"","canvas-keyboard-response","173","155042","0.0-6.0-6.23","552","","","","","clear_screen","null","null","","","catch","sh","sw","l","226","167","215","212","261","161","trueblood","null","null","null","null","null","null","null","null","null","null","null","","180","200","260","200","36000","52000","[2,3]","","",""
"","canvas-keyboard-response","174","155243","0.0-6.0-0.24","552","","","","","pre trial waiting period","null","null","","","critical","t","d","c","240","164","240","164","164","240","trueblood","0","w","240","164","164","240","240","164","39360","39360","39360","dc","null","null","null","null","null","null","[2,3]","490.8544911471723","485.1291028255516","461.15174762489784"
"","canvas-keyboard-response","175","155263","0.0-6.0-1.24","552","","","","","clear_screen","null","null","","","critical","t","d","c","240","164","240","164","164","240","trueblood","0","w","240","164","164","240","240","164","39360","39360","39360","dc","null","null","null","null","null","null","[2,3]","490.8544911471723","485.1291028255516","461.15174762489784"
"","canvas-keyboard-response","176","155775","0.0-6.0-2.24","552","","","","","rectangles no change","null","null","","","critical","t","d","c","240","164","240","164","164","240","trueblood","0","w","240","164","164","240","240","164","39360","39360","39360","dc","null","null","null","null","null","null","[2,3]","490.8544911471723","485.1291028255516","461.15174762489784"
"","canvas-keyboard-response","177","157110","0.0-6.0-3.24","552","","","","","rectangles with change","null","null","","","critical","t","d","c","240","164","240","164","164","240","trueblood","0","w","240","164","164","240","240","164","39360","39360","39360","dc","null","null","null","null","null","null","[2,3]","490.8544911471723","485.1291028255516","461.15174762489784"
"","canvas-keyboard-response","178","157129","0.0-6.0-4.24","552","","","","","clear_screen","null","null","","","critical","t","d","c","240","164","240","164","164","240","trueblood","0","w","240","164","164","240","240","164","39360","39360","39360","dc","null","null","null","null","null","null","[2,3]","490.8544911471723","485.1291028255516","461.15174762489784"
"","canvas-keyboard-response","179","158327","0.0-6.0-5.24","552","","","","","make choice","1191","3","","","critical","t","d","c","240","164","240","164","164","240","trueblood","0","w","240","164","164","240","240","164","39360","39360","39360","dc","null","null","null","null","null","null","[2,3]","","",""
"","canvas-keyboard-response","180","158345","0.0-6.0-6.24","552","","","","","clear_screen","null","null","","","critical","t","d","c","240","164","240","164","164","240","trueblood","0","w","240","164","164","240","240","164","39360","39360","39360","dc","null","null","null","null","null","null","[2,3]","","",""
"","canvas-keyboard-response","181","158546","0.0-6.0-0.25","552","","","","","pre trial waiting period","null","null","","","catch","sw","sh","l","180","200","171","155","216","246","spektor","null","null","null","null","null","null","null","null","null","null","null","","180","200","260","200","36000","52000","[2,3]","494.1183635089104","197.99981698424594","492.63354408236324"
"","canvas-keyboard-response","182","158565","0.0-6.0-1.25","552","","","","","clear_screen","null","null","","","catch","sw","sh","l","180","200","171","155","216","246","spektor","null","null","null","null","null","null","null","null","null","null","null","","180","200","260","200","36000","52000","[2,3]","494.1183635089104","197.99981698424594","492.63354408236324"
"","canvas-keyboard-response","183","159080","0.0-6.0-2.25","552","","","","","rectangles no change","null","null","","","catch","sw","sh","l","180","200","171","155","216","246","spektor","null","null","null","null","null","null","null","null","null","null","null","","180","200","260","200","36000","52000","[2,3]","494.1183635089104","197.99981698424594","492.63354408236324"
"","canvas-keyboard-response","184","160415","0.0-6.0-3.25","552","","","","","rectangles with change","null","null","","","catch","sw","sh","l","180","200","171","155","216","246","spektor","null","null","null","null","null","null","null","null","null","null","null","","180","200","260","200","36000","52000","[2,3]","494.1183635089104","197.99981698424594","492.63354408236324"
"","canvas-keyboard-response","185","160434","0.0-6.0-4.25","552","","","","","clear_screen","null","null","","","catch","sw","sh","l","180","200","171","155","216","246","spektor","null","null","null","null","null","null","null","null","null","null","null","","180","200","260","200","36000","52000","[2,3]","494.1183635089104","197.99981698424594","492.63354408236324"
"","canvas-keyboard-response","186","160775","0.0-6.0-5.25","552","","","","","make choice","329","3","","","catch","sw","sh","l","180","200","171","155","216","246","spektor","null","null","null","null","null","null","null","null","null","null","null","","180","200","260","200","36000","52000","[2,3]","","",""
"","canvas-keyboard-response","187","160793","0.0-6.0-6.25","552","","","","","clear_screen","null","null","","","catch","sw","sh","l","180","200","171","155","216","246","spektor","null","null","null","null","null","null","null","null","null","null","null","","180","200","260","200","36000","52000","[2,3]","","",""
"","canvas-keyboard-response","188","160995","0.0-6.0-0.26","552","","","","","pre trial waiting period","null","null","","","catch","sw","sh","l","180","200","232","157","298","230","trueblood","null","null","null","null","null","null","null","null","null","null","null","","180","200","260","200","36000","52000","[1,3]","459.4975988070902","504.80193167932896","434.7004227496992"
"","canvas-keyboard-response","189","161014","0.0-6.0-1.26","552","","","","","clear_screen","null","null","","","catch","sw","sh","l","180","200","232","157","298","230","trueblood","null","null","null","null","null","null","null","null","null","null","null","","180","200","260","200","36000","52000","[1,3]","459.4975988070902","504.80193167932896","434.7004227496992"
"","canvas-keyboard-response","190","161528","0.0-6.0-2.26","552","","","","","rectangles no change","null","null","","","catch","sw","sh","l","180","200","232","157","298","230","trueblood","null","null","null","null","null","null","null","null","null","null","null","","180","200","260","200","36000","52000","[1,3]","459.4975988070902","504.80193167932896","434.7004227496992"
"","canvas-keyboard-response","191","162863","0.0-6.0-3.26","552","","","","","rectangles with change","null","null","","","catch","sw","sh","l","180","200","232","157","298","230","trueblood","null","null","null","null","null","null","null","null","null","null","null","","180","200","260","200","36000","52000","[1,3]","459.4975988070902","504.80193167932896","434.7004227496992"
"","canvas-keyboard-response","192","162882","0.0-6.0-4.26","552","","","","","clear_screen","null","null","","","catch","sw","sh","l","180","200","232","157","298","230","trueblood","null","null","null","null","null","null","null","null","null","null","null","","180","200","260","200","36000","52000","[1,3]","459.4975988070902","504.80193167932896","434.7004227496992"
"","canvas-keyboard-response","193","163174","0.0-6.0-5.26","552","","","","","make choice","284","3","","","catch","sw","sh","l","180","200","232","157","298","230","trueblood","null","null","null","null","null","null","null","null","null","null","null","","180","200","260","200","36000","52000","[1,3]","","",""
"","canvas-keyboard-response","194","163192","0.0-6.0-6.26","552","","","","","clear_screen","null","null","","","catch","sw","sh","l","180","200","232","157","298","230","trueblood","null","null","null","null","null","null","null","null","null","null","null","","180","200","260","200","36000","52000","[1,3]","","",""
"","canvas-keyboard-response","195","163393","0.0-6.0-0.27","552","","","","","pre trial waiting period","null","null","","","catch","l","sh","sw","247","169","188","155","166","164","trueblood","null","null","null","null","null","null","null","null","null","null","null","","180","200","260","200","36000","52000","[1,3]","467.00039768113487","483.87612186695173","512.3107053469984"
"","canvas-keyboard-response","196","163413","0.0-6.0-1.27","552","","","","","clear_screen","null","null","","","catch","l","sh","sw","247","169","188","155","166","164","trueblood","null","null","null","null","null","null","null","null","null","null","null","","180","200","260","200","36000","52000","[1,3]","467.00039768113487","483.87612186695173","512.3107053469984"
"","canvas-keyboard-response","197","163923","0.0-6.0-2.27","552","","","","","rectangles no change","null","null","","","catch","l","sh","sw","247","169","188","155","166","164","trueblood","null","null","null","null","null","null","null","null","null","null","null","","180","200","260","200","36000","52000","[1,3]","467.00039768113487","483.87612186695173","512.3107053469984"
"","canvas-keyboard-response","198","165258","0.0-6.0-3.27","552","","","","","rectangles with change","null","null","","","catch","l","sh","sw","247","169","188","155","166","164","trueblood","null","null","null","null","null","null","null","null","null","null","null","","180","200","260","200","36000","52000","[1,3]","467.00039768113487","483.87612186695173","512.3107053469984"
"","canvas-keyboard-response","199","165276","0.0-6.0-4.27","552","","","","","clear_screen","null","null","","","catch","l","sh","sw","247","169","188","155","166","164","trueblood","null","null","null","null","null","null","null","null","null","null","null","","180","200","260","200","36000","52000","[1,3]","467.00039768113487","483.87612186695173","512.3107053469984"
"","canvas-keyboard-response","200","165566","0.0-6.0-5.27","552","","","","","make choice","282","1","","","catch","l","sh","sw","247","169","188","155","166","164","trueblood","null","null","null","null","null","null","null","null","null","null","null","","180","200","260","200","36000","52000","[1,3]","","",""
"","canvas-keyboard-response","201","165586","0.0-6.0-6.27","552","","","","","clear_screen","null","null","","","catch","l","sh","sw","247","169","188","155","166","164","trueblood","null","null","null","null","null","null","null","null","null","null","null","","180","200","260","200","36000","52000","[1,3]","","",""
"","canvas-keyboard-response","202","165787","0.0-6.0-0.28","552","","","","","pre trial waiting period","null","null","","","critical","t","c","d","164","240","240","164","154.6796","220.0396","trueblood","0.14","h","164","240","240","164","154.6796","220.0396","39360","39360","34035.6388","tc","null","null","null","null","null","null","[1,2]","461.72422609880425","483.9282431842663","476.4767456588981"
"","canvas-keyboard-response","203","165806","0.0-6.0-1.28","552","","","","","clear_screen","null","null","","","critical","t","c","d","164","240","240","164","154.6796","220.0396","trueblood","0.14","h","164","240","240","164","154.6796","220.0396","39360","39360","34035.6388","tc","null","null","null","null","null","null","[1,2]","461.72422609880425","483.9282431842663","476.4767456588981"
"","canvas-keyboard-response","204","166317","0.0-6.0-2.28","552","","","","","rectangles no change","null","null","","","critical","t","c","d","164","240","240","164","154.6796","220.0396","trueblood","0.14","h","164","240","240","164","154.6796","220.0396","39360","39360","34035.6388","tc","null","null","null","null","null","null","[1,2]","461.72422609880425","483.9282431842663","476.4767456588981"
"","canvas-keyboard-response","205","167652","0.0-6.0-3.28","552","","","","","rectangles with change","null","null","","","critical","t","c","d","164","240","240","164","154.6796","220.0396","trueblood","0.14","h","164","240","240","164","154.6796","220.0396","39360","39360","34035.6388","tc","null","null","null","null","null","null","[1,2]","461.72422609880425","483.9282431842663","476.4767456588981"
"","canvas-keyboard-response","206","167671","0.0-6.0-4.28","552","","","","","clear_screen","null","null","","","critical","t","c","d","164","240","240","164","154.6796","220.0396","trueblood","0.14","h","164","240","240","164","154.6796","220.0396","39360","39360","34035.6388","tc","null","null","null","null","null","null","[1,2]","461.72422609880425","483.9282431842663","476.4767456588981"
"","canvas-keyboard-response","207","168310","0.0-6.0-5.28","552","","","","","make choice","631","2","","","critical","t","c","d","164","240","240","164","154.6796","220.0396","trueblood","0.14","h","164","240","240","164","154.6796","220.0396","39360","39360","34035.6388","tc","null","null","null","null","null","null","[1,2]","","",""
"","canvas-keyboard-response","208","168329","0.0-6.0-6.28","552","","","","","clear_screen","null","null","","","critical","t","c","d","164","240","240","164","154.6796","220.0396","trueblood","0.14","h","164","240","240","164","154.6796","220.0396","39360","39360","34035.6388","tc","null","null","null","null","null","null","[1,2]","","",""
"","canvas-keyboard-response","209","168529","0.0-6.0-0.29","552","","","","","pre trial waiting period","null","null","","","critical","d","c","t","162.6685","237.1485","240","164","164","240","trueblood","0.02","h","164","240","240","164","162.6685","237.1485","39360","39360","38576.5967","tc","null","null","null","null","null","null","[3,2]","458.46375843421544","504.54042277687864","430.0632637700601"
"","canvas-keyboard-response","210","168549","0.0-6.0-1.29","552","","","","","clear_screen","null","null","","","critical","d","c","t","162.6685","237.1485","240","164","164","240","trueblood","0.02","h","164","240","240","164","162.6685","237.1485","39360","39360","38576.5967","tc","null","null","null","null","null","null","[3,2]","458.46375843421544","504.54042277687864","430.0632637700601"
"","canvas-keyboard-response","211","169058","0.0-6.0-2.29","552","","","","","rectangles no change","null","null","","","critical","d","c","t","162.6685","237.1485","240","164","164","240","trueblood","0.02","h","164","240","240","164","162.6685","237.1485","39360","39360","38576.5967","tc","null","null","null","null","null","null","[3,2]","458.46375843421544","504.54042277687864","430.0632637700601"
"","canvas-keyboard-response","212","170394","0.0-6.0-3.29","552","","","","","rectangles with change","null","null","","","critical","d","c","t","162.6685","237.1485","240","164","164","240","trueblood","0.02","h","164","240","240","164","162.6685","237.1485","39360","39360","38576.5967","tc","null","null","null","null","null","null","[3,2]","458.46375843421544","504.54042277687864","430.0632637700601"
"","canvas-keyboard-response","213","170415","0.0-6.0-4.29","552","","","","","clear_screen","null","null","","","critical","d","c","t","162.6685","237.1485","240","164","164","240","trueblood","0.02","h","164","240","240","164","162.6685","237.1485","39360","39360","38576.5967","tc","null","null","null","null","null","null","[3,2]","458.46375843421544","504.54042277687864","430.0632637700601"
"","canvas-keyboard-response","214","171126","0.0-6.0-5.29","552","","","","","make choice","702","2","","","critical","d","c","t","162.6685","237.1485","240","164","164","240","trueblood","0.02","h","164","240","240","164","162.6685","237.1485","39360","39360","38576.5967","tc","null","null","null","null","null","null","[3,2]","","",""
"","canvas-keyboard-response","215","171145","0.0-6.0-6.29","552","","","","","clear_screen","null","null","","","critical","d","c","t","162.6685","237.1485","240","164","164","240","trueblood","0.02","h","164","240","240","164","162.6685","237.1485","39360","39360","38576.5967","tc","null","null","null","null","null","null","[3,2]","","",""
"","canvas-keyboard-response","216","171345","0.0-6.0-0.30","552","","","","","pre trial waiting period","null","null","","","critical","c","t","d","164","240","240","164","220.0396","154.6796","trueblood","0.14","w","240","164","164","240","220.0396","154.6796","39360","39360","34035.6388","tc","null","null","null","null","null","null","[2,1]","449.2770793983102","507.6101494439408","494.6597793977098"
"","canvas-keyboard-response","217","171364","0.0-6.0-1.30","552","","","","","clear_screen","null","null","","","critical","c","t","d","164","240","240","164","220.0396","154.6796","trueblood","0.14","w","240","164","164","240","220.0396","154.6796","39360","39360","34035.6388","tc","null","null","null","null","null","null","[2,1]","449.2770793983102","507.6101494439408","494.6597793977098"
"","canvas-keyboard-response","218","171873","0.0-6.0-2.30","552","","","","","rectangles no change","null","null","","","critical","c","t","d","164","240","240","164","220.0396","154.6796","trueblood","0.14","w","240","164","164","240","220.0396","154.6796","39360","39360","34035.6388","tc","null","null","null","null","null","null","[2,1]","449.2770793983102","507.6101494439408","494.6597793977098"
"","canvas-keyboard-response","219","173208","0.0-6.0-3.30","552","","","","","rectangles with change","null","null","","","critical","c","t","d","164","240","240","164","220.0396","154.6796","trueblood","0.14","w","240","164","164","240","220.0396","154.6796","39360","39360","34035.6388","tc","null","null","null","null","null","null","[2,1]","449.2770793983102","507.6101494439408","494.6597793977098"
"","canvas-keyboard-response","220","173227","0.0-6.0-4.30","552","","","","","clear_screen","null","null","","","critical","c","t","d","164","240","240","164","220.0396","154.6796","trueblood","0.14","w","240","164","164","240","220.0396","154.6796","39360","39360","34035.6388","tc","null","null","null","null","null","null","[2,1]","449.2770793983102","507.6101494439408","494.6597793977098"
"","canvas-keyboard-response","221","174015","0.0-6.0-5.30","552","","","","","make choice","781","2","","","critical","c","t","d","164","240","240","164","220.0396","154.6796","trueblood","0.14","w","240","164","164","240","220.0396","154.6796","39360","39360","34035.6388","tc","null","null","null","null","null","null","[2,1]","","",""
"","canvas-keyboard-response","222","174032","0.0-6.0-6.30","552","","","","","clear_screen","null","null","","","critical","c","t","d","164","240","240","164","220.0396","154.6796","trueblood","0.14","w","240","164","164","240","220.0396","154.6796","39360","39360","34035.6388","tc","null","null","null","null","null","null","[2,1]","","",""
"","canvas-keyboard-response","223","174234","0.0-6.0-0.31","552","","","","","pre trial waiting period","null","null","","","critical","t","d","c","240","164","240","164","164","240","spektor","0","w","240","164","164","240","240","164","39360","39360","39360","dc","null","null","null","null","null","null","[2,3]","526.7190530593364","193.45076657597434","493.93210721620767"
"","canvas-keyboard-response","224","174255","0.0-6.0-1.31","552","","","","","clear_screen","null","null","","","critical","t","d","c","240","164","240","164","164","240","spektor","0","w","240","164","164","240","240","164","39360","39360","39360","dc","null","null","null","null","null","null","[2,3]","526.7190530593364","193.45076657597434","493.93210721620767"
"","canvas-keyboard-response","225","174767","0.0-6.0-2.31","552","","","","","rectangles no change","null","null","","","critical","t","d","c","240","164","240","164","164","240","spektor","0","w","240","164","164","240","240","164","39360","39360","39360","dc","null","null","null","null","null","null","[2,3]","526.7190530593364","193.45076657597434","493.93210721620767"
"","canvas-keyboard-response","226","176107","0.0-6.0-3.31","552","","","","","rectangles with change","null","null","","","critical","t","d","c","240","164","240","164","164","240","spektor","0","w","240","164","164","240","240","164","39360","39360","39360","dc","null","null","null","null","null","null","[2,3]","526.7190530593364","193.45076657597434","493.93210721620767"
"","canvas-keyboard-response","227","176126","0.0-6.0-4.31","552","","","","","clear_screen","null","null","","","critical","t","d","c","240","164","240","164","164","240","spektor","0","w","240","164","164","240","240","164","39360","39360","39360","dc","null","null","null","null","null","null","[2,3]","526.7190530593364","193.45076657597434","493.93210721620767"
"","canvas-keyboard-response","228","176998","0.0-6.0-5.31","552","","","","","make choice","864","2","","","critical","t","d","c","240","164","240","164","164","240","spektor","0","w","240","164","164","240","240","164","39360","39360","39360","dc","null","null","null","null","null","null","[2,3]","","",""
"","canvas-keyboard-response","229","177016","0.0-6.0-6.31","552","","","","","clear_screen","null","null","","","critical","t","d","c","240","164","240","164","164","240","spektor","0","w","240","164","164","240","240","164","39360","39360","39360","dc","null","null","null","null","null","null","[2,3]","","",""
"","canvas-keyboard-response","230","177218","0.0-6.0-0.32","552","","","","","pre trial waiting period","null","null","","","catch","l","sw","sh","266","173","145","170","224","154","spektor","null","null","null","null","null","null","null","null","null","null","null","","180","200","260","200","36000","52000","[1,3]","504.55502801849593","214.85568928564751","522.7355963832188"
"","canvas-keyboard-response","231","177238","0.0-6.0-1.32","552","","","","","clear_screen","null","null","","","catch","l","sw","sh","266","173","145","170","224","154","spektor","null","null","null","null","null","null","null","null","null","null","null","","180","200","260","200","36000","52000","[1,3]","504.55502801849593","214.85568928564751","522.7355963832188"
"","canvas-keyboard-response","232","177750","0.0-6.0-2.32","552","","","","","rectangles no change","null","null","","","catch","l","sw","sh","266","173","145","170","224","154","spektor","null","null","null","null","null","null","null","null","null","null","null","","180","200","260","200","36000","52000","[1,3]","504.55502801849593","214.85568928564751","522.7355963832188"
"","canvas-keyboard-response","233","179085","0.0-6.0-3.32","552","","","","","rectangles with change","null","null","","","catch","l","sw","sh","266","173","145","170","224","154","spektor","null","null","null","null","null","null","null","null","null","null","null","","180","200","260","200","36000","52000","[1,3]","504.55502801849593","214.85568928564751","522.7355963832188"
"","canvas-keyboard-response","234","179104","0.0-6.0-4.32","552","","","","","clear_screen","null","null","","","catch","l","sw","sh","266","173","145","170","224","154","spektor","null","null","null","null","null","null","null","null","null","null","null","","180","200","260","200","36000","52000","[1,3]","504.55502801849593","214.85568928564751","522.7355963832188"
"","canvas-keyboard-response","235","179702","0.0-6.0-5.32","552","","","","","make choice","587","1","","","catch","l","sw","sh","266","173","145","170","224","154","spektor","null","null","null","null","null","null","null","null","null","null","null","","180","200","260","200","36000","52000","[1,3]","","",""
"","canvas-keyboard-response","236","179721","0.0-6.0-6.32","552","","","","","clear_screen","null","null","","","catch","l","sw","sh","266","173","145","170","224","154","spektor","null","null","null","null","null","null","null","null","null","null","null","","180","200","260","200","36000","52000","[1,3]","","",""
"","canvas-keyboard-response","237","179922","0.0-6.0-0.33","552","","","","","pre trial waiting period","null","null","","","catch","sh","sw","l","211","195","149","182","188","247","spektor","null","null","null","null","null","null","null","null","null","null","null","","180","200","260","200","36000","52000","[1,3]","493.3459814982467","153.7819738759129","487.1478306278747"
"","canvas-keyboard-response","238","179941","0.0-6.0-1.33","552","","","","","clear_screen","null","null","","","catch","sh","sw","l","211","195","149","182","188","247","spektor","null","null","null","null","null","null","null","null","null","null","null","","180","200","260","200","36000","52000","[1,3]","493.3459814982467","153.7819738759129","487.1478306278747"
"","canvas-keyboard-response","239","180452","0.0-6.0-2.33","552","","","","","rectangles no change","null","null","","","catch","sh","sw","l","211","195","149","182","188","247","spektor","null","null","null","null","null","null","null","null","null","null","null","","180","200","260","200","36000","52000","[1,3]","493.3459814982467","153.7819738759129","487.1478306278747"
"","canvas-keyboard-response","240","181789","0.0-6.0-3.33","552","","","","","rectangles with change","null","null","","","catch","sh","sw","l","211","195","149","182","188","247","spektor","null","null","null","null","null","null","null","null","null","null","null","","180","200","260","200","36000","52000","[1,3]","493.3459814982467","153.7819738759129","487.1478306278747"
"","canvas-keyboard-response","241","181807","0.0-6.0-4.33","552","","","","","clear_screen","null","null","","","catch","sh","sw","l","211","195","149","182","188","247","spektor","null","null","null","null","null","null","null","null","null","null","null","","180","200","260","200","36000","52000","[1,3]","493.3459814982467","153.7819738759129","487.1478306278747"
"","canvas-keyboard-response","242","183046","0.0-6.0-5.33","552","","","","","make choice","1233","3","","","catch","sh","sw","l","211","195","149","182","188","247","spektor","null","null","null","null","null","null","null","null","null","null","null","","180","200","260","200","36000","52000","[1,3]","","",""
"","canvas-keyboard-response","243","183065","0.0-6.0-6.33","552","","","","","clear_screen","null","null","","","catch","sh","sw","l","211","195","149","182","188","247","spektor","null","null","null","null","null","null","null","null","null","null","null","","180","200","260","200","36000","52000","[1,3]","","",""
"","canvas-keyboard-response","244","183266","0.0-6.0-0.34","552","","","","","pre trial waiting period","null","null","","","critical","d","t","c","232.8713","160.6713","240","164","164","240","trueblood","0.05","w","240","164","164","240","232.8713","160.6713","39360","39360","37415.7294","td","null","null","null","null","null","null","[2,1]","511.28720775770773","508.91496568450907","454.34549716960856"
"","canvas-keyboard-response","245","183285","0.0-6.0-1.34","552","","","","","clear_screen","null","null","","","critical","d","t","c","232.8713","160.6713","240","164","164","240","trueblood","0.05","w","240","164","164","240","232.8713","160.6713","39360","39360","37415.7294","td","null","null","null","null","null","null","[2,1]","511.28720775770773","508.91496568450907","454.34549716960856"
"","canvas-keyboard-response","246","183797","0.0-6.0-2.34","552","","","","","rectangles no change","null","null","","","critical","d","t","c","232.8713","160.6713","240","164","164","240","trueblood","0.05","w","240","164","164","240","232.8713","160.6713","39360","39360","37415.7294","td","null","null","null","null","null","null","[2,1]","511.28720775770773","508.91496568450907","454.34549716960856"
"","canvas-keyboard-response","247","185132","0.0-6.0-3.34","552","","","","","rectangles with change","null","null","","","critical","d","t","c","232.8713","160.6713","240","164","164","240","trueblood","0.05","w","240","164","164","240","232.8713","160.6713","39360","39360","37415.7294","td","null","null","null","null","null","null","[2,1]","511.28720775770773","508.91496568450907","454.34549716960856"
"","canvas-keyboard-response","248","185150","0.0-6.0-4.34","552","","","","","clear_screen","null","null","","","critical","d","t","c","232.8713","160.6713","240","164","164","240","trueblood","0.05","w","240","164","164","240","232.8713","160.6713","39360","39360","37415.7294","td","null","null","null","null","null","null","[2,1]","511.28720775770773","508.91496568450907","454.34549716960856"
"","canvas-keyboard-response","249","185704","0.0-6.0-5.34","552","","","","","make choice","542","2","","","critical","d","t","c","232.8713","160.6713","240","164","164","240","trueblood","0.05","w","240","164","164","240","232.8713","160.6713","39360","39360","37415.7294","td","null","null","null","null","null","null","[2,1]","","",""
"","canvas-keyboard-response","250","185724","0.0-6.0-6.34","552","","","","","clear_screen","null","null","","","critical","d","t","c","232.8713","160.6713","240","164","164","240","trueblood","0.05","w","240","164","164","240","232.8713","160.6713","39360","39360","37415.7294","td","null","null","null","null","null","null","[2,1]","","",""
"","canvas-keyboard-response","251","185927","0.0-6.0-0.35","552","","","","","pre trial waiting period","null","null","","","catch","sh","l","sw","208","205","237","285","146","203","spektor","null","null","null","null","null","null","null","null","null","null","null","","180","200","260","200","36000","52000","[1,2]","495.5121792922086","92.86902424442656","473.82500632041183"
"","canvas-keyboard-response","252","185948","0.0-6.0-1.35","552","","","","","clear_screen","null","null","","","catch","sh","l","sw","208","205","237","285","146","203","spektor","null","null","null","null","null","null","null","null","null","null","null","","180","200","260","200","36000","52000","[1,2]","495.5121792922086","92.86902424442656","473.82500632041183"
"","canvas-keyboard-response","253","186459","0.0-6.0-2.35","552","","","","","rectangles no change","null","null","","","catch","sh","l","sw","208","205","237","285","146","203","spektor","null","null","null","null","null","null","null","null","null","null","null","","180","200","260","200","36000","52000","[1,2]","495.5121792922086","92.86902424442656","473.82500632041183"
"","canvas-keyboard-response","254","187795","0.0-6.0-3.35","552","","","","","rectangles with change","null","null","","","catch","sh","l","sw","208","205","237","285","146","203","spektor","null","null","null","null","null","null","null","null","null","null","null","","180","200","260","200","36000","52000","[1,2]","495.5121792922086","92.86902424442656","473.82500632041183"
"","canvas-keyboard-response","255","187815","0.0-6.0-4.35","552","","","","","clear_screen","null","null","","","catch","sh","l","sw","208","205","237","285","146","203","spektor","null","null","null","null","null","null","null","null","null","null","null","","180","200","260","200","36000","52000","[1,2]","495.5121792922086","92.86902424442656","473.82500632041183"
"","canvas-keyboard-response","256","188423","0.0-6.0-5.35","552","","","","","make choice","599","2","","","catch","sh","l","sw","208","205","237","285","146","203","spektor","null","null","null","null","null","null","null","null","null","null","null","","180","200","260","200","36000","52000","[1,2]","","",""
"","canvas-keyboard-response","257","188442","0.0-6.0-6.35","552","","","","","clear_screen","null","null","","","catch","sh","l","sw","208","205","237","285","146","203","spektor","null","null","null","null","null","null","null","null","null","null","null","","180","200","260","200","36000","52000","[1,2]","","",""
"","canvas-keyboard-response","258","188644","0.0-6.0-0.36","552","","","","","pre trial waiting period","null","null","","","critical","t","c","d","240","164","164","240","237.1485","162.6685","trueblood","0.02","w","240","164","164","240","237.1485","162.6685","39360","39360","38576.5967","tc","null","null","null","null","null","null","[1,2]","479.28191356042316","420.92202758320155","517.1707600532815"
"","canvas-keyboard-response","259","188665","0.0-6.0-1.36","552","","","","","clear_screen","null","null","","","critical","t","c","d","240","164","164","240","237.1485","162.6685","trueblood","0.02","w","240","164","164","240","237.1485","162.6685","39360","39360","38576.5967","tc","null","null","null","null","null","null","[1,2]","479.28191356042316","420.92202758320155","517.1707600532815"
"","canvas-keyboard-response","260","189175","0.0-6.0-2.36","552","","","","","rectangles no change","null","null","","","critical","t","c","d","240","164","164","240","237.1485","162.6685","trueblood","0.02","w","240","164","164","240","237.1485","162.6685","39360","39360","38576.5967","tc","null","null","null","null","null","null","[1,2]","479.28191356042316","420.92202758320155","517.1707600532815"
"","canvas-keyboard-response","261","190512","0.0-6.0-3.36","552","","","","","rectangles with change","null","null","","","critical","t","c","d","240","164","164","240","237.1485","162.6685","trueblood","0.02","w","240","164","164","240","237.1485","162.6685","39360","39360","38576.5967","tc","null","null","null","null","null","null","[1,2]","479.28191356042316","420.92202758320155","517.1707600532815"
"","canvas-keyboard-response","262","190531","0.0-6.0-4.36","552","","","","","clear_screen","null","null","","","critical","t","c","d","240","164","164","240","237.1485","162.6685","trueblood","0.02","w","240","164","164","240","237.1485","162.6685","39360","39360","38576.5967","tc","null","null","null","null","null","null","[1,2]","479.28191356042316","420.92202758320155","517.1707600532815"
"","canvas-keyboard-response","263","191302","0.0-6.0-5.36","552","","","","","make choice","760","1","","","critical","t","c","d","240","164","164","240","237.1485","162.6685","trueblood","0.02","w","240","164","164","240","237.1485","162.6685","39360","39360","38576.5967","tc","null","null","null","null","null","null","[1,2]","","",""
"","canvas-keyboard-response","264","191324","0.0-6.0-6.36","552","","","","","clear_screen","null","null","","","critical","t","c","d","240","164","164","240","237.1485","162.6685","trueblood","0.02","w","240","164","164","240","237.1485","162.6685","39360","39360","38576.5967","tc","null","null","null","null","null","null","[1,2]","","",""
"","canvas-keyboard-response","265","191526","0.0-6.0-0.37","552","","","","","pre trial waiting period","null","null","","","critical","d","t","c","232.8713","160.6713","240","164","164","240","spektor","0.05","w","240","164","164","240","232.8713","160.6713","39360","39360","37415.7294","dc","null","null","null","null","null","null","[1,3]","510.1574655878894","183.23193202664018","496.8283798688505"
"","canvas-keyboard-response","266","191546","0.0-6.0-1.37","552","","","","","clear_screen","null","null","","","critical","d","t","c","232.8713","160.6713","240","164","164","240","spektor","0.05","w","240","164","164","240","232.8713","160.6713","39360","39360","37415.7294","dc","null","null","null","null","null","null","[1,3]","510.1574655878894","183.23193202664018","496.8283798688505"
"","canvas-keyboard-response","267","192058","0.0-6.0-2.37","552","","","","","rectangles no change","null","null","","","critical","d","t","c","232.8713","160.6713","240","164","164","240","spektor","0.05","w","240","164","164","240","232.8713","160.6713","39360","39360","37415.7294","dc","null","null","null","null","null","null","[1,3]","510.1574655878894","183.23193202664018","496.8283798688505"
