"success","trial_type","trial_index","time_elapsed","internal_node_id","sub_n","timeout","failed_images","failed_audio","failed_video","screen_id","rt","response","stimulus","view_history","trial","r1","r2","r3","w1","h1","w2","h2","w3","h3","display","tdd","tdo","tw","th","cw","ch","dw","dh","ta","ca","da","probe","csls","csss","clls","clss","sa","la","probe_rects","r1yloc","r2yloc","r3yloc"
"true","fullscreen","0","1777","0.0-0.0","570","","","","","","","","","","","","","","","","","","","","","","","","","","","","","","","","","","","","","","","","","",""
"true","preload","1","1810","0.0-1.0","570","false","[]","[]","[]","img preload","","","","","","","","","","","","","","","","","","","","","","","","","","","","","","","","","","","","",""
"","survey-html-form","2","3560","0.0-2.0","570","","","","","enter-sub-number","1742","{""response"":""570""}","","","","","","","","","","","","","","","","","","","","","","","","","","","","","","","","","","",""
"","image-button-response","3","39736","0.0-3.0","570","","","","","","36109","0","consent.png","","","","","","","","","","","","","","","","","","","","","","","","","","","","","","","","","",""
"","html-button-response","4","63576","0.0-4.0","570","","","","","intro mssg","23834","0","<div style= ""font-size:25px;"" <p> <strong> Welcome! </strong><br> <p style=""color:#8B0000; font-size:25px;""><strong> Please do NOT exit full screen until you are done with the experiment. </strong> </p><p style=""font-size:25px;color:#8B0000;""> <strong> Your data will be lost <br> if you try to go back or refresh the page after the experiment starts. Feel free to click ""previous"" during the instructions, however.</strong> </p><br><p> <strong> Thanks in advance for your contribution to our research! </strong></p>","","","","","","","","","","","","","","","","","","","","","","","","","","","","","","","","","",""
"","instructions","5","131881","0.0-5.0","570","","","","","instructions","68296","","","[{""page_index"":0,""viewing_time"":8800},{""page_index"":1,""viewing_time"":9439},{""page_index"":2,""viewing_time"":4024},{""page_index"":3,""viewing_time"":27745},{""page_index"":4,""viewing_time"":8175},{""page_index"":5,""viewing_time"":3601},{""page_index"":6,""viewing_time"":5192},{""page_index"":7,""viewing_time"":1319}]","","","","","","","","","","","","","","","","","","","","","","","","","","","","","","","","",""
"","canvas-keyboard-response","6","132087","0.0-6.0-0.0","570","","","","","pre trial waiting period","null","null","","","catch","sw","l","sh","180","200","238","226","233","194","trueblood","null","null","null","null","null","null","null","null","null","null","null","","180","200","260","200","36000","52000","[2,3]","473.23910810162863","470.81012457034075","465.5608377273878"
"","canvas-keyboard-response","7","132111","0.0-6.0-1.0","570","","","","","clear_screen","null","null","","","catch","sw","l","sh","180","200","238","226","233","194","trueblood","null","null","null","null","null","null","null","null","null","null","null","","180","200","260","200","36000","52000","[2,3]","473.23910810162863","470.81012457034075","465.5608377273878"
"","canvas-keyboard-response","8","132622","0.0-6.0-2.0","570","","","","","rectangles no change","null","null","","","catch","sw","l","sh","180","200","238","226","233","194","trueblood","null","null","null","null","null","null","null","null","null","null","null","","180","200","260","200","36000","52000","[2,3]","473.23910810162863","470.81012457034075","465.5608377273878"
"","canvas-keyboard-response","9","133961","0.0-6.0-3.0","570","","","","","rectangles with change","null","null","","","catch","sw","l","sh","180","200","238","226","233","194","trueblood","null","null","null","null","null","null","null","null","null","null","null","","180","200","260","200","36000","52000","[2,3]","473.23910810162863","470.81012457034075","465.5608377273878"
"","canvas-keyboard-response","10","133980","0.0-6.0-4.0","570","","","","","clear_screen","null","null","","","catch","sw","l","sh","180","200","238","226","233","194","trueblood","null","null","null","null","null","null","null","null","null","null","null","","180","200","260","200","36000","52000","[2,3]","473.23910810162863","470.81012457034075","465.5608377273878"
"","canvas-keyboard-response","11","144028","0.0-6.0-5.0","570","","","","","make choice","10040","2","","","catch","sw","l","sh","180","200","238","226","233","194","trueblood","null","null","null","null","null","null","null","null","null","null","null","","180","200","260","200","36000","52000","[2,3]","","",""
"","canvas-keyboard-response","12","144048","0.0-6.0-6.0","570","","","","","clear_screen","null","null","","","catch","sw","l","sh","180","200","238","226","233","194","trueblood","null","null","null","null","null","null","null","null","null","null","null","","180","200","260","200","36000","52000","[2,3]","","",""
"","canvas-keyboard-response","13","144249","0.0-6.0-0.1","570","","","","","pre trial waiting period","null","null","","","catch","sh","sw","l","195","167","170","206","235","273","spektor","null","null","null","null","null","null","null","null","null","null","null","","180","200","260","200","36000","52000","[1,3]","511.7613009182325","126.51408011578584","466.24879458606637"
"","canvas-keyboard-response","14","144269","0.0-6.0-1.1","570","","","","","clear_screen","null","null","","","catch","sh","sw","l","195","167","170","206","235","273","spektor","null","null","null","null","null","null","null","null","null","null","null","","180","200","260","200","36000","52000","[1,3]","511.7613009182325","126.51408011578584","466.24879458606637"
"","canvas-keyboard-response","15","144778","0.0-6.0-2.1","570","","","","","rectangles no change","null","null","","","catch","sh","sw","l","195","167","170","206","235","273","spektor","null","null","null","null","null","null","null","null","null","null","null","","180","200","260","200","36000","52000","[1,3]","511.7613009182325","126.51408011578584","466.24879458606637"
"","canvas-keyboard-response","16","146119","0.0-6.0-3.1","570","","","","","rectangles with change","null","null","","","catch","sh","sw","l","195","167","170","206","235","273","spektor","null","null","null","null","null","null","null","null","null","null","null","","180","200","260","200","36000","52000","[1,3]","511.7613009182325","126.51408011578584","466.24879458606637"
"","canvas-keyboard-response","17","146140","0.0-6.0-4.1","570","","","","","clear_screen","null","null","","","catch","sh","sw","l","195","167","170","206","235","273","spektor","null","null","null","null","null","null","null","null","null","null","null","","180","200","260","200","36000","52000","[1,3]","511.7613009182325","126.51408011578584","466.24879458606637"
"","canvas-keyboard-response","18","148235","0.0-6.0-5.1","570","","","","","make choice","2087","3","","","catch","sh","sw","l","195","167","170","206","235","273","spektor","null","null","null","null","null","null","null","null","null","null","null","","180","200","260","200","36000","52000","[1,3]","","",""
"","canvas-keyboard-response","19","148254","0.0-6.0-6.1","570","","","","","clear_screen","null","null","","","catch","sh","sw","l","195","167","170","206","235","273","spektor","null","null","null","null","null","null","null","null","null","null","null","","180","200","260","200","36000","52000","[1,3]","","",""
"","canvas-keyboard-response","20","148455","0.0-6.0-0.2","570","","","","","pre trial waiting period","null","null","","","catch","sh","sw","l","229","152","159","220","191","274","trueblood","null","null","null","null","null","null","null","null","null","null","null","","180","200","260","200","36000","52000","[2,3]","508.9712420758024","475.09731419210124","435.57797426165246"
"","canvas-keyboard-response","21","148479","0.0-6.0-1.2","570","","","","","clear_screen","null","null","","","catch","sh","sw","l","229","152","159","220","191","274","trueblood","null","null","null","null","null","null","null","null","null","null","null","","180","200","260","200","36000","52000","[2,3]","508.9712420758024","475.09731419210124","435.57797426165246"
"","canvas-keyboard-response","22","148986","0.0-6.0-2.2","570","","","","","rectangles no change","null","null","","","catch","sh","sw","l","229","152","159","220","191","274","trueblood","null","null","null","null","null","null","null","null","null","null","null","","180","200","260","200","36000","52000","[2,3]","508.9712420758024","475.09731419210124","435.57797426165246"
"","canvas-keyboard-response","23","150320","0.0-6.0-3.2","570","","","","","rectangles with change","null","null","","","catch","sh","sw","l","229","152","159","220","191","274","trueblood","null","null","null","null","null","null","null","null","null","null","null","","180","200","260","200","36000","52000","[2,3]","508.9712420758024","475.09731419210124","435.57797426165246"
"","canvas-keyboard-response","24","150340","0.0-6.0-4.2","570","","","","","clear_screen","null","null","","","catch","sh","sw","l","229","152","159","220","191","274","trueblood","null","null","null","null","null","null","null","null","null","null","null","","180","200","260","200","36000","52000","[2,3]","508.9712420758024","475.09731419210124","435.57797426165246"
"","canvas-keyboard-response","25","151939","0.0-6.0-5.2","570","","","","","make choice","1593","3","","","catch","sh","sw","l","229","152","159","220","191","274","trueblood","null","null","null","null","null","null","null","null","null","null","null","","180","200","260","200","36000","52000","[2,3]","","",""
"","canvas-keyboard-response","26","151959","0.0-6.0-6.2","570","","","","","clear_screen","null","null","","","catch","sh","sw","l","229","152","159","220","191","274","trueblood","null","null","null","null","null","null","null","null","null","null","null","","180","200","260","200","36000","52000","[2,3]","","",""
"","canvas-keyboard-response","27","152160","0.0-6.0-0.3","570","","","","","pre trial waiting period","null","null","","","critical","c","t","d","240","164","164","240","160.6713","232.8713","trueblood","0.05","h","164","240","240","164","160.6713","232.8713","39360","39360","37415.7294","dc","null","null","null","null","null","null","[3,1]","510.31506075415706","443.3455194238091","455.0761612410258"
"","canvas-keyboard-response","28","152180","0.0-6.0-1.3","570","","","","","clear_screen","null","null","","","critical","c","t","d","240","164","164","240","160.6713","232.8713","trueblood","0.05","h","164","240","240","164","160.6713","232.8713","39360","39360","37415.7294","dc","null","null","null","null","null","null","[3,1]","510.31506075415706","443.3455194238091","455.0761612410258"
"","canvas-keyboard-response","29","152688","0.0-6.0-2.3","570","","","","","rectangles no change","null","null","","","critical","c","t","d","240","164","164","240","160.6713","232.8713","trueblood","0.05","h","164","240","240","164","160.6713","232.8713","39360","39360","37415.7294","dc","null","null","null","null","null","null","[3,1]","510.31506075415706","443.3455194238091","455.0761612410258"
"","canvas-keyboard-response","30","154024","0.0-6.0-3.3","570","","","","","rectangles with change","null","null","","","critical","c","t","d","240","164","164","240","160.6713","232.8713","trueblood","0.05","h","164","240","240","164","160.6713","232.8713","39360","39360","37415.7294","dc","null","null","null","null","null","null","[3,1]","510.31506075415706","443.3455194238091","455.0761612410258"
"","canvas-keyboard-response","31","154047","0.0-6.0-4.3","570","","","","","clear_screen","null","null","","","critical","c","t","d","240","164","164","240","160.6713","232.8713","trueblood","0.05","h","164","240","240","164","160.6713","232.8713","39360","39360","37415.7294","dc","null","null","null","null","null","null","[3,1]","510.31506075415706","443.3455194238091","455.0761612410258"
"","canvas-keyboard-response","32","155748","0.0-6.0-5.3","570","","","","","make choice","1696","1","","","critical","c","t","d","240","164","164","240","160.6713","232.8713","trueblood","0.05","h","164","240","240","164","160.6713","232.8713","39360","39360","37415.7294","dc","null","null","null","null","null","null","[3,1]","","",""
"","canvas-keyboard-response","33","155767","0.0-6.0-6.3","570","","","","","clear_screen","null","null","","","critical","c","t","d","240","164","164","240","160.6713","232.8713","trueblood","0.05","h","164","240","240","164","160.6713","232.8713","39360","39360","37415.7294","dc","null","null","null","null","null","null","[3,1]","","",""
"","canvas-keyboard-response","34","155969","0.0-6.0-0.4","570","","","","","pre trial waiting period","null","null","","","critical","d","c","t","232.8713","160.6713","164","240","240","164","trueblood","0.05","w","240","164","164","240","232.8713","160.6713","39360","39360","37415.7294","dc","null","null","null","null","null","null","[1,2]","491.44237921939947","430.3237365829176","494.0720553542522"
"","canvas-keyboard-response","35","155989","0.0-6.0-1.4","570","","","","","clear_screen","null","null","","","critical","d","c","t","232.8713","160.6713","164","240","240","164","trueblood","0.05","w","240","164","164","240","232.8713","160.6713","39360","39360","37415.7294","dc","null","null","null","null","null","null","[1,2]","491.44237921939947","430.3237365829176","494.0720553542522"
"","canvas-keyboard-response","36","156496","0.0-6.0-2.4","570","","","","","rectangles no change","null","null","","","critical","d","c","t","232.8713","160.6713","164","240","240","164","trueblood","0.05","w","240","164","164","240","232.8713","160.6713","39360","39360","37415.7294","dc","null","null","null","null","null","null","[1,2]","491.44237921939947","430.3237365829176","494.0720553542522"
"","canvas-keyboard-response","37","157835","0.0-6.0-3.4","570","","","","","rectangles with change","null","null","","","critical","d","c","t","232.8713","160.6713","164","240","240","164","trueblood","0.05","w","240","164","164","240","232.8713","160.6713","39360","39360","37415.7294","dc","null","null","null","null","null","null","[1,2]","491.44237921939947","430.3237365829176","494.0720553542522"
"","canvas-keyboard-response","38","157856","0.0-6.0-4.4","570","","","","","clear_screen","null","null","","","critical","d","c","t","232.8713","160.6713","164","240","240","164","trueblood","0.05","w","240","164","164","240","232.8713","160.6713","39360","39360","37415.7294","dc","null","null","null","null","null","null","[1,2]","491.44237921939947","430.3237365829176","494.0720553542522"
"","canvas-keyboard-response","39","160235","0.0-6.0-5.4","570","","","","","make choice","2372","1","","","critical","d","c","t","232.8713","160.6713","164","240","240","164","trueblood","0.05","w","240","164","164","240","232.8713","160.6713","39360","39360","37415.7294","dc","null","null","null","null","null","null","[1,2]","","",""
"","canvas-keyboard-response","40","160257","0.0-6.0-6.4","570","","","","","clear_screen","null","null","","","critical","d","c","t","232.8713","160.6713","164","240","240","164","trueblood","0.05","w","240","164","164","240","232.8713","160.6713","39360","39360","37415.7294","dc","null","null","null","null","null","null","[1,2]","","",""
"","canvas-keyboard-response","41","160460","0.0-6.0-0.5","570","","","","","pre trial waiting period","null","null","","","catch","l","sw","sh","190","237","148","230","222","142","spektor","null","null","null","null","null","null","null","null","null","null","null","","180","200","260","200","36000","52000","[1,2]","473.2174413762296","115.44037043882994","521.7840852484854"
"","canvas-keyboard-response","42","160483","0.0-6.0-1.5","570","","","","","clear_screen","null","null","","","catch","l","sw","sh","190","237","148","230","222","142","spektor","null","null","null","null","null","null","null","null","null","null","null","","180","200","260","200","36000","52000","[1,2]","473.2174413762296","115.44037043882994","521.7840852484854"
"","canvas-keyboard-response","43","160992","0.0-6.0-2.5","570","","","","","rectangles no change","null","null","","","catch","l","sw","sh","190","237","148","230","222","142","spektor","null","null","null","null","null","null","null","null","null","null","null","","180","200","260","200","36000","52000","[1,2]","473.2174413762296","115.44037043882994","521.7840852484854"
"","canvas-keyboard-response","44","162331","0.0-6.0-3.5","570","","","","","rectangles with change","null","null","","","catch","l","sw","sh","190","237","148","230","222","142","spektor","null","null","null","null","null","null","null","null","null","null","null","","180","200","260","200","36000","52000","[1,2]","473.2174413762296","115.44037043882994","521.7840852484854"
"","canvas-keyboard-response","45","162355","0.0-6.0-4.5","570","","","","","clear_screen","null","null","","","catch","l","sw","sh","190","237","148","230","222","142","spektor","null","null","null","null","null","null","null","null","null","null","null","","180","200","260","200","36000","52000","[1,2]","473.2174413762296","115.44037043882994","521.7840852484854"
"","canvas-keyboard-response","46","164228","0.0-6.0-5.5","570","","","","","make choice","1867","1","","","catch","l","sw","sh","190","237","148","230","222","142","spektor","null","null","null","null","null","null","null","null","null","null","null","","180","200","260","200","36000","52000","[1,2]","","",""
"","canvas-keyboard-response","47","164247","0.0-6.0-6.5","570","","","","","clear_screen","null","null","","","catch","l","sw","sh","190","237","148","230","222","142","spektor","null","null","null","null","null","null","null","null","null","null","null","","180","200","260","200","36000","52000","[1,2]","","",""
"","canvas-keyboard-response","48","164448","0.0-6.0-0.6","570","","","","","pre trial waiting period","null","null","","","catch","l","sw","sh","227","242","159","174","192","183","trueblood","null","null","null","null","null","null","null","null","null","null","null","","180","200","260","200","36000","52000","[1,2]","450.19003449165416","492.84542332456516","465.2436571770141"
"","canvas-keyboard-response","49","164469","0.0-6.0-1.6","570","","","","","clear_screen","null","null","","","catch","l","sw","sh","227","242","159","174","192","183","trueblood","null","null","null","null","null","null","null","null","null","null","null","","180","200","260","200","36000","52000","[1,2]","450.19003449165416","492.84542332456516","465.2436571770141"
"","canvas-keyboard-response","50","164977","0.0-6.0-2.6","570","","","","","rectangles no change","null","null","","","catch","l","sw","sh","227","242","159","174","192","183","trueblood","null","null","null","null","null","null","null","null","null","null","null","","180","200","260","200","36000","52000","[1,2]","450.19003449165416","492.84542332456516","465.2436571770141"
"","canvas-keyboard-response","51","166312","0.0-6.0-3.6","570","","","","","rectangles with change","null","null","","","catch","l","sw","sh","227","242","159","174","192","183","trueblood","null","null","null","null","null","null","null","null","null","null","null","","180","200","260","200","36000","52000","[1,2]","450.19003449165416","492.84542332456516","465.2436571770141"
"","canvas-keyboard-response","52","166331","0.0-6.0-4.6","570","","","","","clear_screen","null","null","","","catch","l","sw","sh","227","242","159","174","192","183","trueblood","null","null","null","null","null","null","null","null","null","null","null","","180","200","260","200","36000","52000","[1,2]","450.19003449165416","492.84542332456516","465.2436571770141"
"","canvas-keyboard-response","53","167139","0.0-6.0-5.6","570","","","","","make choice","802","1","","","catch","l","sw","sh","227","242","159","174","192","183","trueblood","null","null","null","null","null","null","null","null","null","null","null","","180","200","260","200","36000","52000","[1,2]","","",""
"","canvas-keyboard-response","54","167159","0.0-6.0-6.6","570","","","","","clear_screen","null","null","","","catch","l","sw","sh","227","242","159","174","192","183","trueblood","null","null","null","null","null","null","null","null","null","null","null","","180","200","260","200","36000","52000","[1,2]","","",""
"","canvas-keyboard-response","55","167360","0.0-6.0-0.7","570","","","","","pre trial waiting period","null","null","","","critical","d","c","t","220.0396","154.6796","164","240","240","164","spektor","0.14","w","240","164","164","240","220.0396","154.6796","39360","39360","34035.6388","tc","null","null","null","null","null","null","[3,2]","527.8823654991351","152.299957425824","515.9336248263809"
"","canvas-keyboard-response","56","167381","0.0-6.0-1.7","570","","","","","clear_screen","null","null","","","critical","d","c","t","220.0396","154.6796","164","240","240","164","spektor","0.14","w","240","164","164","240","220.0396","154.6796","39360","39360","34035.6388","tc","null","null","null","null","null","null","[3,2]","527.8823654991351","152.299957425824","515.9336248263809"
"","canvas-keyboard-response","57","167892","0.0-6.0-2.7","570","","","","","rectangles no change","null","null","","","critical","d","c","t","220.0396","154.6796","164","240","240","164","spektor","0.14","w","240","164","164","240","220.0396","154.6796","39360","39360","34035.6388","tc","null","null","null","null","null","null","[3,2]","527.8823654991351","152.299957425824","515.9336248263809"
"","canvas-keyboard-response","58","169229","0.0-6.0-3.7","570","","","","","rectangles with change","null","null","","","critical","d","c","t","220.0396","154.6796","164","240","240","164","spektor","0.14","w","240","164","164","240","220.0396","154.6796","39360","39360","34035.6388","tc","null","null","null","null","null","null","[3,2]","527.8823654991351","152.299957425824","515.9336248263809"
"","canvas-keyboard-response","59","169247","0.0-6.0-4.7","570","","","","","clear_screen","null","null","","","critical","d","c","t","220.0396","154.6796","164","240","240","164","spektor","0.14","w","240","164","164","240","220.0396","154.6796","39360","39360","34035.6388","tc","null","null","null","null","null","null","[3,2]","527.8823654991351","152.299957425824","515.9336248263809"
"","canvas-keyboard-response","60","170419","0.0-6.0-5.7","570","","","","","make choice","1165","3","","","critical","d","c","t","220.0396","154.6796","164","240","240","164","spektor","0.14","w","240","164","164","240","220.0396","154.6796","39360","39360","34035.6388","tc","null","null","null","null","null","null","[3,2]","","",""
"","canvas-keyboard-response","61","170437","0.0-6.0-6.7","570","","","","","clear_screen","null","null","","","critical","d","c","t","220.0396","154.6796","164","240","240","164","spektor","0.14","w","240","164","164","240","220.0396","154.6796","39360","39360","34035.6388","tc","null","null","null","null","null","null","[3,2]","","",""
"","canvas-keyboard-response","62","170638","0.0-6.0-0.8","570","","","","","pre trial waiting period","null","null","","","catch","l","sh","sw","234","208","197","186","147","233","trueblood","null","null","null","null","null","null","null","null","null","null","null","","180","200","260","200","36000","52000","[1,3]","452.0613269244773","491.51283963965847","424.946273392324"
"","canvas-keyboard-response","63","170663","0.0-6.0-1.8","570","","","","","clear_screen","null","null","","","catch","l","sh","sw","234","208","197","186","147","233","trueblood","null","null","null","null","null","null","null","null","null","null","null","","180","200","260","200","36000","52000","[1,3]","452.0613269244773","491.51283963965847","424.946273392324"
"","canvas-keyboard-response","64","171171","0.0-6.0-2.8","570","","","","","rectangles no change","null","null","","","catch","l","sh","sw","234","208","197","186","147","233","trueblood","null","null","null","null","null","null","null","null","null","null","null","","180","200","260","200","36000","52000","[1,3]","452.0613269244773","491.51283963965847","424.946273392324"
"","canvas-keyboard-response","65","172507","0.0-6.0-3.8","570","","","","","rectangles with change","null","null","","","catch","l","sh","sw","234","208","197","186","147","233","trueblood","null","null","null","null","null","null","null","null","null","null","null","","180","200","260","200","36000","52000","[1,3]","452.0613269244773","491.51283963965847","424.946273392324"
"","canvas-keyboard-response","66","172531","0.0-6.0-4.8","570","","","","","clear_screen","null","null","","","catch","l","sh","sw","234","208","197","186","147","233","trueblood","null","null","null","null","null","null","null","null","null","null","null","","180","200","260","200","36000","52000","[1,3]","452.0613269244773","491.51283963965847","424.946273392324"
"","canvas-keyboard-response","67","173483","0.0-6.0-5.8","570","","","","","make choice","946","1","","","catch","l","sh","sw","234","208","197","186","147","233","trueblood","null","null","null","null","null","null","null","null","null","null","null","","180","200","260","200","36000","52000","[1,3]","","",""
"","canvas-keyboard-response","68","173501","0.0-6.0-6.8","570","","","","","clear_screen","null","null","","","catch","l","sh","sw","234","208","197","186","147","233","trueblood","null","null","null","null","null","null","null","null","null","null","null","","180","200","260","200","36000","52000","[1,3]","","",""
"","canvas-keyboard-response","69","173702","0.0-6.0-0.9","570","","","","","pre trial waiting period","null","null","","","critical","c","d","t","240","164","158.0083","227.1683","164","240","spektor","0.09","h","164","240","240","164","158.0083","227.1683","39360","39360","35894.4834","dc","null","null","null","null","null","null","[2,1]","502.5898567662391","111.54285479967902","498.61298667812343"
"","canvas-keyboard-response","70","173725","0.0-6.0-1.9","570","","","","","clear_screen","null","null","","","critical","c","d","t","240","164","158.0083","227.1683","164","240","spektor","0.09","h","164","240","240","164","158.0083","227.1683","39360","39360","35894.4834","dc","null","null","null","null","null","null","[2,1]","502.5898567662391","111.54285479967902","498.61298667812343"
"","canvas-keyboard-response","71","174233","0.0-6.0-2.9","570","","","","","rectangles no change","null","null","","","critical","c","d","t","240","164","158.0083","227.1683","164","240","spektor","0.09","h","164","240","240","164","158.0083","227.1683","39360","39360","35894.4834","dc","null","null","null","null","null","null","[2,1]","502.5898567662391","111.54285479967902","498.61298667812343"
"","canvas-keyboard-response","72","175571","0.0-6.0-3.9","570","","","","","rectangles with change","null","null","","","critical","c","d","t","240","164","158.0083","227.1683","164","240","spektor","0.09","h","164","240","240","164","158.0083","227.1683","39360","39360","35894.4834","dc","null","null","null","null","null","null","[2,1]","502.5898567662391","111.54285479967902","498.61298667812343"
"","canvas-keyboard-response","73","175591","0.0-6.0-4.9","570","","","","","clear_screen","null","null","","","critical","c","d","t","240","164","158.0083","227.1683","164","240","spektor","0.09","h","164","240","240","164","158.0083","227.1683","39360","39360","35894.4834","dc","null","null","null","null","null","null","[2,1]","502.5898567662391","111.54285479967902","498.61298667812343"
"","canvas-keyboard-response","74","176243","0.0-6.0-5.9","570","","","","","make choice","645","1","","","critical","c","d","t","240","164","158.0083","227.1683","164","240","spektor","0.09","h","164","240","240","164","158.0083","227.1683","39360","39360","35894.4834","dc","null","null","null","null","null","null","[2,1]","","",""
"","canvas-keyboard-response","75","176262","0.0-6.0-6.9","570","","","","","clear_screen","null","null","","","critical","c","d","t","240","164","158.0083","227.1683","164","240","spektor","0.09","h","164","240","240","164","158.0083","227.1683","39360","39360","35894.4834","dc","null","null","null","null","null","null","[2,1]","","",""
"","canvas-keyboard-response","76","176464","0.0-6.0-0.10","570","","","","","pre trial waiting period","null","null","","","critical","t","c","d","164","240","240","164","162.6685","237.1485","spektor","0.02","h","164","240","240","164","162.6685","237.1485","39360","39360","38576.5967","dc","null","null","null","null","null","null","[3,2]","464.32994582000214","193.98298516000972","490.37820845313786"
"","canvas-keyboard-response","77","176487","0.0-6.0-1.10","570","","","","","clear_screen","null","null","","","critical","t","c","d","164","240","240","164","162.6685","237.1485","spektor","0.02","h","164","240","240","164","162.6685","237.1485","39360","39360","38576.5967","dc","null","null","null","null","null","null","[3,2]","464.32994582000214","193.98298516000972","490.37820845313786"
"","canvas-keyboard-response","78","176995","0.0-6.0-2.10","570","","","","","rectangles no change","null","null","","","critical","t","c","d","164","240","240","164","162.6685","237.1485","spektor","0.02","h","164","240","240","164","162.6685","237.1485","39360","39360","38576.5967","dc","null","null","null","null","null","null","[3,2]","464.32994582000214","193.98298516000972","490.37820845313786"
"","canvas-keyboard-response","79","178333","0.0-6.0-3.10","570","","","","","rectangles with change","null","null","","","critical","t","c","d","164","240","240","164","162.6685","237.1485","spektor","0.02","h","164","240","240","164","162.6685","237.1485","39360","39360","38576.5967","dc","null","null","null","null","null","null","[3,2]","464.32994582000214","193.98298516000972","490.37820845313786"
"","canvas-keyboard-response","80","178355","0.0-6.0-4.10","570","","","","","clear_screen","null","null","","","critical","t","c","d","164","240","240","164","162.6685","237.1485","spektor","0.02","h","164","240","240","164","162.6685","237.1485","39360","39360","38576.5967","dc","null","null","null","null","null","null","[3,2]","464.32994582000214","193.98298516000972","490.37820845313786"
"","canvas-keyboard-response","81","179883","0.0-6.0-5.10","570","","","","","make choice","1521","2","","","critical","t","c","d","164","240","240","164","162.6685","237.1485","spektor","0.02","h","164","240","240","164","162.6685","237.1485","39360","39360","38576.5967","dc","null","null","null","null","null","null","[3,2]","","",""
"","canvas-keyboard-response","82","179904","0.0-6.0-6.10","570","","","","","clear_screen","null","null","","","critical","t","c","d","164","240","240","164","162.6685","237.1485","spektor","0.02","h","164","240","240","164","162.6685","237.1485","39360","39360","38576.5967","dc","null","null","null","null","null","null","[3,2]","","",""
"","canvas-keyboard-response","83","180105","0.0-6.0-0.11","570","","","","","pre trial waiting period","null","null","","","critical","c","d","t","240","164","162.6685","237.1485","164","240","trueblood","0.02","h","164","240","240","164","162.6685","237.1485","39360","39360","38576.5967","tc","null","null","null","null","null","null","[3,1]","487.26913360093124","462.98199785356604","452.72362168069475"
"","canvas-keyboard-response","84","180126","0.0-6.0-1.11","570","","","","","clear_screen","null","null","","","critical","c","d","t","240","164","162.6685","237.1485","164","240","trueblood","0.02","h","164","240","240","164","162.6685","237.1485","39360","39360","38576.5967","tc","null","null","null","null","null","null","[3,1]","487.26913360093124","462.98199785356604","452.72362168069475"
"","canvas-keyboard-response","85","180633","0.0-6.0-2.11","570","","","","","rectangles no change","null","null","","","critical","c","d","t","240","164","162.6685","237.1485","164","240","trueblood","0.02","h","164","240","240","164","162.6685","237.1485","39360","39360","38576.5967","tc","null","null","null","null","null","null","[3,1]","487.26913360093124","462.98199785356604","452.72362168069475"
"","canvas-keyboard-response","86","181971","0.0-6.0-3.11","570","","","","","rectangles with change","null","null","","","critical","c","d","t","240","164","162.6685","237.1485","164","240","trueblood","0.02","h","164","240","240","164","162.6685","237.1485","39360","39360","38576.5967","tc","null","null","null","null","null","null","[3,1]","487.26913360093124","462.98199785356604","452.72362168069475"
"","canvas-keyboard-response","87","181995","0.0-6.0-4.11","570","","","","","clear_screen","null","null","","","critical","c","d","t","240","164","162.6685","237.1485","164","240","trueblood","0.02","h","164","240","240","164","162.6685","237.1485","39360","39360","38576.5967","tc","null","null","null","null","null","null","[3,1]","487.26913360093124","462.98199785356604","452.72362168069475"
"","canvas-keyboard-response","88","183050","0.0-6.0-5.11","570","","","","","make choice","1050","1","","","critical","c","d","t","240","164","162.6685","237.1485","164","240","trueblood","0.02","h","164","240","240","164","162.6685","237.1485","39360","39360","38576.5967","tc","null","null","null","null","null","null","[3,1]","","",""
"","canvas-keyboard-response","89","183074","0.0-6.0-6.11","570","","","","","clear_screen","null","null","","","critical","c","d","t","240","164","162.6685","237.1485","164","240","trueblood","0.02","h","164","240","240","164","162.6685","237.1485","39360","39360","38576.5967","tc","null","null","null","null","null","null","[3,1]","","",""
"","canvas-keyboard-response","90","183275","0.0-6.0-0.12","570","","","","","pre trial waiting period","null","null","","","critical","c","d","t","240","164","162.6685","237.1485","164","240","trueblood","0.02","h","164","240","240","164","162.6685","237.1485","39360","39360","38576.5967","dc","null","null","null","null","null","null","[2,1]","483.6534921044728","423.23372589794593","460.13863597475523"
"","canvas-keyboard-response","91","183296","0.0-6.0-1.12","570","","","","","clear_screen","null","null","","","critical","c","d","t","240","164","162.6685","237.1485","164","240","trueblood","0.02","h","164","240","240","164","162.6685","237.1485","39360","39360","38576.5967","dc","null","null","null","null","null","null","[2,1]","483.6534921044728","423.23372589794593","460.13863597475523"
"","canvas-keyboard-response","92","183805","0.0-6.0-2.12","570","","","","","rectangles no change","null","null","","","critical","c","d","t","240","164","162.6685","237.1485","164","240","trueblood","0.02","h","164","240","240","164","162.6685","237.1485","39360","39360","38576.5967","dc","null","null","null","null","null","null","[2,1]","483.6534921044728","423.23372589794593","460.13863597475523"
"","canvas-keyboard-response","93","185142","0.0-6.0-3.12","570","","","","","rectangles with change","null","null","","","critical","c","d","t","240","164","162.6685","237.1485","164","240","trueblood","0.02","h","164","240","240","164","162.6685","237.1485","39360","39360","38576.5967","dc","null","null","null","null","null","null","[2,1]","483.6534921044728","423.23372589794593","460.13863597475523"
"","canvas-keyboard-response","94","185163","0.0-6.0-4.12","570","","","","","clear_screen","null","null","","","critical","c","d","t","240","164","162.6685","237.1485","164","240","trueblood","0.02","h","164","240","240","164","162.6685","237.1485","39360","39360","38576.5967","dc","null","null","null","null","null","null","[2,1]","483.6534921044728","423.23372589794593","460.13863597475523"
"","canvas-keyboard-response","95","187107","0.0-6.0-5.12","570","","","","","make choice","1937","1","","","critical","c","d","t","240","164","162.6685","237.1485","164","240","trueblood","0.02","h","164","240","240","164","162.6685","237.1485","39360","39360","38576.5967","dc","null","null","null","null","null","null","[2,1]","","",""
"","canvas-keyboard-response","96","187128","0.0-6.0-6.12","570","","","","","clear_screen","null","null","","","critical","c","d","t","240","164","162.6685","237.1485","164","240","trueblood","0.02","h","164","240","240","164","162.6685","237.1485","39360","39360","38576.5967","dc","null","null","null","null","null","null","[2,1]","","",""
"","canvas-keyboard-response","97","187329","0.0-6.0-0.13","570","","","","","pre trial waiting period","null","null","","","critical","c","t","d","240","164","164","240","164","240","trueblood","0","h","164","240","240","164","164","240","39360","39360","39360","tc","null","null","null","null","null","null","[2,1]","489.2650211798691","454.35396713535084","419.357280148076"
"","canvas-keyboard-response","98","187352","0.0-6.0-1.13","570","","","","","clear_screen","null","null","","","critical","c","t","d","240","164","164","240","164","240","trueblood","0","h","164","240","240","164","164","240","39360","39360","39360","tc","null","null","null","null","null","null","[2,1]","489.2650211798691","454.35396713535084","419.357280148076"
"","canvas-keyboard-response","99","187859","0.0-6.0-2.13","570","","","","","rectangles no change","null","null","","","critical","c","t","d","240","164","164","240","164","240","trueblood","0","h","164","240","240","164","164","240","39360","39360","39360","tc","null","null","null","null","null","null","[2,1]","489.2650211798691","454.35396713535084","419.357280148076"
"","canvas-keyboard-response","100","189196","0.0-6.0-3.13","570","","","","","rectangles with change","null","null","","","critical","c","t","d","240","164","164","240","164","240","trueblood","0","h","164","240","240","164","164","240","39360","39360","39360","tc","null","null","null","null","null","null","[2,1]","489.2650211798691","454.35396713535084","419.357280148076"
"","canvas-keyboard-response","101","189215","0.0-6.0-4.13","570","","","","","clear_screen","null","null","","","critical","c","t","d","240","164","164","240","164","240","trueblood","0","h","164","240","240","164","164","240","39360","39360","39360","tc","null","null","null","null","null","null","[2,1]","489.2650211798691","454.35396713535084","419.357280148076"
"","canvas-keyboard-response","102","190923","0.0-6.0-5.13","570","","","","","make choice","1698","1","","","critical","c","t","d","240","164","164","240","164","240","trueblood","0","h","164","240","240","164","164","240","39360","39360","39360","tc","null","null","null","null","null","null","[2,1]","","",""
"","canvas-keyboard-response","103","190946","0.0-6.0-6.13","570","","","","","clear_screen","null","null","","","critical","c","t","d","240","164","164","240","164","240","trueblood","0","h","164","240","240","164","164","240","39360","39360","39360","tc","null","null","null","null","null","null","[2,1]","","",""
"","canvas-keyboard-response","104","191147","0.0-6.0-0.14","570","","","","","pre trial waiting period","null","null","","","critical","t","d","c","164","240","162.6685","237.1485","240","164","spektor","0.02","h","164","240","240","164","162.6685","237.1485","39360","39360","38576.5967","td","null","null","null","null","null","null","[1,2]","499.1278599999177","98.57436635916683","506.6868180411723"
"","canvas-keyboard-response","105","191167","0.0-6.0-1.14","570","","","","","clear_screen","null","null","","","critical","t","d","c","164","240","162.6685","237.1485","240","164","spektor","0.02","h","164","240","240","164","162.6685","237.1485","39360","39360","38576.5967","td","null","null","null","null","null","null","[1,2]","499.1278599999177","98.57436635916683","506.6868180411723"
"","canvas-keyboard-response","106","191676","0.0-6.0-2.14","570","","","","","rectangles no change","null","null","","","critical","t","d","c","164","240","162.6685","237.1485","240","164","spektor","0.02","h","164","240","240","164","162.6685","237.1485","39360","39360","38576.5967","td","null","null","null","null","null","null","[1,2]","499.1278599999177","98.57436635916683","506.6868180411723"
"","canvas-keyboard-response","107","193015","0.0-6.0-3.14","570","","","","","rectangles with change","null","null","","","critical","t","d","c","164","240","162.6685","237.1485","240","164","spektor","0.02","h","164","240","240","164","162.6685","237.1485","39360","39360","38576.5967","td","null","null","null","null","null","null","[1,2]","499.1278599999177","98.57436635916683","506.6868180411723"
"","canvas-keyboard-response","108","193035","0.0-6.0-4.14","570","","","","","clear_screen","null","null","","","critical","t","d","c","164","240","162.6685","237.1485","240","164","spektor","0.02","h","164","240","240","164","162.6685","237.1485","39360","39360","38576.5967","td","null","null","null","null","null","null","[1,2]","499.1278599999177","98.57436635916683","506.6868180411723"
"","canvas-keyboard-response","109","194715","0.0-6.0-5.14","570","","","","","make choice","1675","2","","","critical","t","d","c","164","240","162.6685","237.1485","240","164","spektor","0.02","h","164","240","240","164","162.6685","237.1485","39360","39360","38576.5967","td","null","null","null","null","null","null","[1,2]","","",""
"","canvas-keyboard-response","110","194734","0.0-6.0-6.14","570","","","","","clear_screen","null","null","","","critical","t","d","c","164","240","162.6685","237.1485","240","164","spektor","0.02","h","164","240","240","164","162.6685","237.1485","39360","39360","38576.5967","td","null","null","null","null","null","null","[1,2]","","",""
"","canvas-keyboard-response","111","194936","0.0-6.0-0.15","570","","","","","pre trial waiting period","null","null","","","critical","d","t","c","164","240","164","240","240","164","trueblood","0","h","164","240","240","164","164","240","39360","39360","39360","dc","null","null","null","null","null","null","[1,3]","464.9557980409357","440.74738546830974","505.8791616401688"
"","canvas-keyboard-response","112","194958","0.0-6.0-1.15","570","","","","","clear_screen","null","null","","","critical","d","t","c","164","240","164","240","240","164","trueblood","0","h","164","240","240","164","164","240","39360","39360","39360","dc","null","null","null","null","null","null","[1,3]","464.9557980409357","440.74738546830974","505.8791616401688"
"","canvas-keyboard-response","113","195465","0.0-6.0-2.15","570","","","","","rectangles no change","null","null","","","critical","d","t","c","164","240","164","240","240","164","trueblood","0","h","164","240","240","164","164","240","39360","39360","39360","dc","null","null","null","null","null","null","[1,3]","464.9557980409357","440.74738546830974","505.8791616401688"
"","canvas-keyboard-response","114","196801","0.0-6.0-3.15","570","","","","","rectangles with change","null","null","","","critical","d","t","c","164","240","164","240","240","164","trueblood","0","h","164","240","240","164","164","240","39360","39360","39360","dc","null","null","null","null","null","null","[1,3]","464.9557980409357","440.74738546830974","505.8791616401688"
"","canvas-keyboard-response","115","196820","0.0-6.0-4.15","570","","","","","clear_screen","null","null","","","critical","d","t","c","164","240","164","240","240","164","trueblood","0","h","164","240","240","164","164","240","39360","39360","39360","dc","null","null","null","null","null","null","[1,3]","464.9557980409357","440.74738546830974","505.8791616401688"
"","canvas-keyboard-response","116","198659","0.0-6.0-5.15","570","","","","","make choice","1831","3","","","critical","d","t","c","164","240","164","240","240","164","trueblood","0","h","164","240","240","164","164","240","39360","39360","39360","dc","null","null","null","null","null","null","[1,3]","","",""
"","canvas-keyboard-response","117","198680","0.0-6.0-6.15","570","","","","","clear_screen","null","null","","","critical","d","t","c","164","240","164","240","240","164","trueblood","0","h","164","240","240","164","164","240","39360","39360","39360","dc","null","null","null","null","null","null","[1,3]","","",""
"","canvas-keyboard-response","118","198880","0.0-6.0-0.16","570","","","","","pre trial waiting period","null","null","","","critical","d","c","t","154.6796","220.0396","240","164","164","240","trueblood","0.14","h","164","240","240","164","154.6796","220.0396","39360","39360","34035.6388","td","null","null","null","null","null","null","[3,1]","467.5072076326464","498.7707383498718","432.88065390582153"
"","canvas-keyboard-response","119","198903","0.0-6.0-1.16","570","","","","","clear_screen","null","null","","","critical","d","c","t","154.6796","220.0396","240","164","164","240","trueblood","0.14","h","164","240","240","164","154.6796","220.0396","39360","39360","34035.6388","td","null","null","null","null","null","null","[3,1]","467.5072076326464","498.7707383498718","432.88065390582153"
"","canvas-keyboard-response","120","199412","0.0-6.0-2.16","570","","","","","rectangles no change","null","null","","","critical","d","c","t","154.6796","220.0396","240","164","164","240","trueblood","0.14","h","164","240","240","164","154.6796","220.0396","39360","39360","34035.6388","td","null","null","null","null","null","null","[3,1]","467.5072076326464","498.7707383498718","432.88065390582153"
"","canvas-keyboard-response","121","200748","0.0-6.0-3.16","570","","","","","rectangles with change","null","null","","","critical","d","c","t","154.6796","220.0396","240","164","164","240","trueblood","0.14","h","164","240","240","164","154.6796","220.0396","39360","39360","34035.6388","td","null","null","null","null","null","null","[3,1]","467.5072076326464","498.7707383498718","432.88065390582153"
"","canvas-keyboard-response","122","200771","0.0-6.0-4.16","570","","","","","clear_screen","null","null","","","critical","d","c","t","154.6796","220.0396","240","164","164","240","trueblood","0.14","h","164","240","240","164","154.6796","220.0396","39360","39360","34035.6388","td","null","null","null","null","null","null","[3,1]","467.5072076326464","498.7707383498718","432.88065390582153"
"","canvas-keyboard-response","123","201435","0.0-6.0-5.16","570","","","","","make choice","659","3","","","critical","d","c","t","154.6796","220.0396","240","164","164","240","trueblood","0.14","h","164","240","240","164","154.6796","220.0396","39360","39360","34035.6388","td","null","null","null","null","null","null","[3,1]","","",""
"","canvas-keyboard-response","124","201455","0.0-6.0-6.16","570","","","","","clear_screen","null","null","","","critical","d","c","t","154.6796","220.0396","240","164","164","240","trueblood","0.14","h","164","240","240","164","154.6796","220.0396","39360","39360","34035.6388","td","null","null","null","null","null","null","[3,1]","","",""
"","canvas-keyboard-response","125","201656","0.0-6.0-0.17","570","","","","","pre trial waiting period","null","null","","","critical","d","c","t","240","164","164","240","240","164","spektor","0","w","240","164","164","240","240","164","39360","39360","39360","td","null","null","null","null","null","null","[3,1]","493.26959590809656","129.88255381844047","515.6525841617885"
"","canvas-keyboard-response","126","201677","0.0-6.0-1.17","570","","","","","clear_screen","null","null","","","critical","d","c","t","240","164","164","240","240","164","spektor","0","w","240","164","164","240","240","164","39360","39360","39360","td","null","null","null","null","null","null","[3,1]","493.26959590809656","129.88255381844047","515.6525841617885"
"","canvas-keyboard-response","127","202186","0.0-6.0-2.17","570","","","","","rectangles no change","null","null","","","critical","d","c","t","240","164","164","240","240","164","spektor","0","w","240","164","164","240","240","164","39360","39360","39360","td","null","null","null","null","null","null","[3,1]","493.26959590809656","129.88255381844047","515.6525841617885"
"","canvas-keyboard-response","128","203523","0.0-6.0-3.17","570","","","","","rectangles with change","null","null","","","critical","d","c","t","240","164","164","240","240","164","spektor","0","w","240","164","164","240","240","164","39360","39360","39360","td","null","null","null","null","null","null","[3,1]","493.26959590809656","129.88255381844047","515.6525841617885"
"","canvas-keyboard-response","129","203540","0.0-6.0-4.17","570","","","","","clear_screen","null","null","","","critical","d","c","t","240","164","164","240","240","164","spektor","0","w","240","164","164","240","240","164","39360","39360","39360","td","null","null","null","null","null","null","[3,1]","493.26959590809656","129.88255381844047","515.6525841617885"
"","canvas-keyboard-response","130","204868","0.0-6.0-5.17","570","","","","","make choice","1319","3","","","critical","d","c","t","240","164","164","240","240","164","spektor","0","w","240","164","164","240","240","164","39360","39360","39360","td","null","null","null","null","null","null","[3,1]","","",""
"","canvas-keyboard-response","131","204891","0.0-6.0-6.17","570","","","","","clear_screen","null","null","","","critical","d","c","t","240","164","164","240","240","164","spektor","0","w","240","164","164","240","240","164","39360","39360","39360","td","null","null","null","null","null","null","[3,1]","","",""
"","canvas-keyboard-response","132","205091","0.0-6.0-0.18","570","","","","","pre trial waiting period","null","null","","","critical","d","c","t","164","240","240","164","164","240","trueblood","0","h","164","240","240","164","164","240","39360","39360","39360","td","null","null","null","null","null","null","[3,1]","424.7206968583987","496.75961062022907","425.42408368315375"
"","canvas-keyboard-response","133","205111","0.0-6.0-1.18","570","","","","","clear_screen","null","null","","","critical","d","c","t","164","240","240","164","164","240","trueblood","0","h","164","240","240","164","164","240","39360","39360","39360","td","null","null","null","null","null","null","[3,1]","424.7206968583987","496.75961062022907","425.42408368315375"
"","canvas-keyboard-response","134","205617","0.0-6.0-2.18","570","","","","","rectangles no change","null","null","","","critical","d","c","t","164","240","240","164","164","240","trueblood","0","h","164","240","240","164","164","240","39360","39360","39360","td","null","null","null","null","null","null","[3,1]","424.7206968583987","496.75961062022907","425.42408368315375"
"","canvas-keyboard-response","135","206953","0.0-6.0-3.18","570","","","","","rectangles with change","null","null","","","critical","d","c","t","164","240","240","164","164","240","trueblood","0","h","164","240","240","164","164","240","39360","39360","39360","td","null","null","null","null","null","null","[3,1]","424.7206968583987","496.75961062022907","425.42408368315375"
"","canvas-keyboard-response","136","206975","0.0-6.0-4.18","570","","","","","clear_screen","null","null","","","critical","d","c","t","164","240","240","164","164","240","trueblood","0","h","164","240","240","164","164","240","39360","39360","39360","td","null","null","null","null","null","null","[3,1]","424.7206968583987","496.75961062022907","425.42408368315375"
"","canvas-keyboard-response","137","207554","0.0-6.0-5.18","570","","","","","make choice","573","3","","","critical","d","c","t","164","240","240","164","164","240","trueblood","0","h","164","240","240","164","164","240","39360","39360","39360","td","null","null","null","null","null","null","[3,1]","","",""
"","canvas-keyboard-response","138","207575","0.0-6.0-6.18","570","","","","","clear_screen","null","null","","","critical","d","c","t","164","240","240","164","164","240","trueblood","0","h","164","240","240","164","164","240","39360","39360","39360","td","null","null","null","null","null","null","[3,1]","","",""
"","canvas-keyboard-response","139","207776","0.0-6.0-0.19","570","","","","","pre trial waiting period","null","null","","","catch","l","sh","sw","295","164","202","153","219","173","spektor","null","null","null","null","null","null","null","null","null","null","null","","180","200","260","200","36000","52000","[1,2]","518.1012849041209","216.89790266485588","509.89349371663985"
"","canvas-keyboard-response","140","207796","0.0-6.0-1.19","570","","","","","clear_screen","null","null","","","catch","l","sh","sw","295","164","202","153","219","173","spektor","null","null","null","null","null","null","null","null","null","null","null","","180","200","260","200","36000","52000","[1,2]","518.1012849041209","216.89790266485588","509.89349371663985"
"","canvas-keyboard-response","141","208305","0.0-6.0-2.19","570","","","","","rectangles no change","null","null","","","catch","l","sh","sw","295","164","202","153","219","173","spektor","null","null","null","null","null","null","null","null","null","null","null","","180","200","260","200","36000","52000","[1,2]","518.1012849041209","216.89790266485588","509.89349371663985"
"","canvas-keyboard-response","142","209645","0.0-6.0-3.19","570","","","","","rectangles with change","null","null","","","catch","l","sh","sw","295","164","202","153","219","173","spektor","null","null","null","null","null","null","null","null","null","null","null","","180","200","260","200","36000","52000","[1,2]","518.1012849041209","216.89790266485588","509.89349371663985"
"","canvas-keyboard-response","143","209667","0.0-6.0-4.19","570","","","","","clear_screen","null","null","","","catch","l","sh","sw","295","164","202","153","219","173","spektor","null","null","null","null","null","null","null","null","null","null","null","","180","200","260","200","36000","52000","[1,2]","518.1012849041209","216.89790266485588","509.89349371663985"
"","canvas-keyboard-response","144","210267","0.0-6.0-5.19","570","","","","","make choice","594","1","","","catch","l","sh","sw","295","164","202","153","219","173","spektor","null","null","null","null","null","null","null","null","null","null","null","","180","200","260","200","36000","52000","[1,2]","","",""
"","canvas-keyboard-response","145","210286","0.0-6.0-6.19","570","","","","","clear_screen","null","null","","","catch","l","sh","sw","295","164","202","153","219","173","spektor","null","null","null","null","null","null","null","null","null","null","null","","180","200","260","200","36000","52000","[1,2]","","",""
"","canvas-keyboard-response","146","210488","0.0-6.0-0.20","570","","","","","pre trial waiting period","null","null","","","critical","t","d","c","240","164","220.0396","154.6796","164","240","spektor","0.14","w","240","164","164","240","220.0396","154.6796","39360","39360","34035.6388","td","null","null","null","null","null","null","[1,2]","538.1689799338068","184.61706995758573","476.33213947073193"
"","canvas-keyboard-response","147","210511","0.0-6.0-1.20","570","","","","","clear_screen","null","null","","","critical","t","d","c","240","164","220.0396","154.6796","164","240","spektor","0.14","w","240","164","164","240","220.0396","154.6796","39360","39360","34035.6388","td","null","null","null","null","null","null","[1,2]","538.1689799338068","184.61706995758573","476.33213947073193"
"","canvas-keyboard-response","148","211018","0.0-6.0-2.20","570","","","","","rectangles no change","null","null","","","critical","t","d","c","240","164","220.0396","154.6796","164","240","spektor","0.14","w","240","164","164","240","220.0396","154.6796","39360","39360","34035.6388","td","null","null","null","null","null","null","[1,2]","538.1689799338068","184.61706995758573","476.33213947073193"
"","canvas-keyboard-response","149","212356","0.0-6.0-3.20","570","","","","","rectangles with change","null","null","","","critical","t","d","c","240","164","220.0396","154.6796","164","240","spektor","0.14","w","240","164","164","240","220.0396","154.6796","39360","39360","34035.6388","td","null","null","null","null","null","null","[1,2]","538.1689799338068","184.61706995758573","476.33213947073193"
"","canvas-keyboard-response","150","212376","0.0-6.0-4.20","570","","","","","clear_screen","null","null","","","critical","t","d","c","240","164","220.0396","154.6796","164","240","spektor","0.14","w","240","164","164","240","220.0396","154.6796","39360","39360","34035.6388","td","null","null","null","null","null","null","[1,2]","538.1689799338068","184.61706995758573","476.33213947073193"
"","canvas-keyboard-response","151","212763","0.0-6.0-5.20","570","","","","","make choice","379","1","","","critical","t","d","c","240","164","220.0396","154.6796","164","240","spektor","0.14","w","240","164","164","240","220.0396","154.6796","39360","39360","34035.6388","td","null","null","null","null","null","null","[1,2]","","",""
"","canvas-keyboard-response","152","212784","0.0-6.0-6.20","570","","","","","clear_screen","null","null","","","critical","t","d","c","240","164","220.0396","154.6796","164","240","spektor","0.14","w","240","164","164","240","220.0396","154.6796","39360","39360","34035.6388","td","null","null","null","null","null","null","[1,2]","","",""
"","canvas-keyboard-response","153","212985","0.0-6.0-0.21","570","","","","","pre trial waiting period","null","null","","","catch","l","sw","sh","263","190","158","227","218","198","spektor","null","null","null","null","null","null","null","null","null","null","null","","180","200","260","200","36000","52000","[1,2]","526.3477775521169","126.05044858392728","485.58977558105056"
"","canvas-keyboard-response","154","213004","0.0-6.0-1.21","570","","","","","clear_screen","null","null","","","catch","l","sw","sh","263","190","158","227","218","198","spektor","null","null","null","null","null","null","null","null","null","null","null","","180","200","260","200","36000","52000","[1,2]","526.3477775521169","126.05044858392728","485.58977558105056"
"","canvas-keyboard-response","155","213513","0.0-6.0-2.21","570","","","","","rectangles no change","null","null","","","catch","l","sw","sh","263","190","158","227","218","198","spektor","null","null","null","null","null","null","null","null","null","null","null","","180","200","260","200","36000","52000","[1,2]","526.3477775521169","126.05044858392728","485.58977558105056"
"","canvas-keyboard-response","156","214853","0.0-6.0-3.21","570","","","","","rectangles with change","null","null","","","catch","l","sw","sh","263","190","158","227","218","198","spektor","null","null","null","null","null","null","null","null","null","null","null","","180","200","260","200","36000","52000","[1,2]","526.3477775521169","126.05044858392728","485.58977558105056"
"","canvas-keyboard-response","157","214872","0.0-6.0-4.21","570","","","","","clear_screen","null","null","","","catch","l","sw","sh","263","190","158","227","218","198","spektor","null","null","null","null","null","null","null","null","null","null","null","","180","200","260","200","36000","52000","[1,2]","526.3477775521169","126.05044858392728","485.58977558105056"
"","canvas-keyboard-response","158","215762","0.0-6.0-5.21","570","","","","","make choice","884","1","","","catch","l","sw","sh","263","190","158","227","218","198","spektor","null","null","null","null","null","null","null","null","null","null","null","","180","200","260","200","36000","52000","[1,2]","","",""
"","canvas-keyboard-response","159","215784","0.0-6.0-6.21","570","","","","","clear_screen","null","null","","","catch","l","sw","sh","263","190","158","227","218","198","spektor","null","null","null","null","null","null","null","null","null","null","null","","180","200","260","200","36000","52000","[1,2]","","",""
"","canvas-keyboard-response","160","215985","0.0-6.0-0.22","570","","","","","pre trial waiting period","null","null","","","critical","t","c","d","240","164","164","240","237.1485","162.6685","spektor","0.02","w","240","164","164","240","237.1485","162.6685","39360","39360","38576.5967","tc","null","null","null","null","null","null","[1,2]","510.4725439333661","115.89917787195785","542.6637310801481"
"","canvas-keyboard-response","161","216008","0.0-6.0-1.22","570","","","","","clear_screen","null","null","","","critical","t","c","d","240","164","164","240","237.1485","162.6685","spektor","0.02","w","240","164","164","240","237.1485","162.6685","39360","39360","38576.5967","tc","null","null","null","null","null","null","[1,2]","510.4725439333661","115.89917787195785","542.6637310801481"
"","canvas-keyboard-response","162","216520","0.0-6.0-2.22","570","","","","","rectangles no change","null","null","","","critical","t","c","d","240","164","164","240","237.1485","162.6685","spektor","0.02","w","240","164","164","240","237.1485","162.6685","39360","39360","38576.5967","tc","null","null","null","null","null","null","[1,2]","510.4725439333661","115.89917787195785","542.6637310801481"
"","canvas-keyboard-response","163","217857","0.0-6.0-3.22","570","","","","","rectangles with change","null","null","","","critical","t","c","d","240","164","164","240","237.1485","162.6685","spektor","0.02","w","240","164","164","240","237.1485","162.6685","39360","39360","38576.5967","tc","null","null","null","null","null","null","[1,2]","510.4725439333661","115.89917787195785","542.6637310801481"
"","canvas-keyboard-response","164","217876","0.0-6.0-4.22","570","","","","","clear_screen","null","null","","","critical","t","c","d","240","164","164","240","237.1485","162.6685","spektor","0.02","w","240","164","164","240","237.1485","162.6685","39360","39360","38576.5967","tc","null","null","null","null","null","null","[1,2]","510.4725439333661","115.89917787195785","542.6637310801481"
"","canvas-keyboard-response","165","218723","0.0-6.0-5.22","570","","","","","make choice","840","1","","","critical","t","c","d","240","164","164","240","237.1485","162.6685","spektor","0.02","w","240","164","164","240","237.1485","162.6685","39360","39360","38576.5967","tc","null","null","null","null","null","null","[1,2]","","",""
"","canvas-keyboard-response","166","218741","0.0-6.0-6.22","570","","","","","clear_screen","null","null","","","critical","t","c","d","240","164","164","240","237.1485","162.6685","spektor","0.02","w","240","164","164","240","237.1485","162.6685","39360","39360","38576.5967","tc","null","null","null","null","null","null","[1,2]","","",""
"","canvas-keyboard-response","167","218942","0.0-6.0-0.23","570","","","","","pre trial waiting period","null","null","","","critical","d","t","c","220.0396","154.6796","240","164","164","240","trueblood","0.14","w","240","164","164","240","220.0396","154.6796","39360","39360","34035.6388","dc","null","null","null","null","null","null","[1,3]","492.61070432429926","471.5740060857081","464.6405062675989"
"","canvas-keyboard-response","168","218965","0.0-6.0-1.23","570","","","","","clear_screen","null","null","","","critical","d","t","c","220.0396","154.6796","240","164","164","240","trueblood","0.14","w","240","164","164","240","220.0396","154.6796","39360","39360","34035.6388","dc","null","null","null","null","null","null","[1,3]","492.61070432429926","471.5740060857081","464.6405062675989"
"","canvas-keyboard-response","169","219472","0.0-6.0-2.23","570","","","","","rectangles no change","null","null","","","critical","d","t","c","220.0396","154.6796","240","164","164","240","trueblood","0.14","w","240","164","164","240","220.0396","154.6796","39360","39360","34035.6388","dc","null","null","null","null","null","null","[1,3]","492.61070432429926","471.5740060857081","464.6405062675989"
"","canvas-keyboard-response","170","220808","0.0-6.0-3.23","570","","","","","rectangles with change","null","null","","","critical","d","t","c","220.0396","154.6796","240","164","164","240","trueblood","0.14","w","240","164","164","240","220.0396","154.6796","39360","39360","34035.6388","dc","null","null","null","null","null","null","[1,3]","492.61070432429926","471.5740060857081","464.6405062675989"
"","canvas-keyboard-response","171","220831","0.0-6.0-4.23","570","","","","","clear_screen","null","null","","","critical","d","t","c","220.0396","154.6796","240","164","164","240","trueblood","0.14","w","240","164","164","240","220.0396","154.6796","39360","39360","34035.6388","dc","null","null","null","null","null","null","[1,3]","492.61070432429926","471.5740060857081","464.6405062675989"
"","canvas-keyboard-response","172","221907","0.0-6.0-5.23","570","","","","","make choice","1070","3","","","critical","d","t","c","220.0396","154.6796","240","164","164","240","trueblood","0.14","w","240","164","164","240","220.0396","154.6796","39360","39360","34035.6388","dc","null","null","null","null","null","null","[1,3]","","",""
"","canvas-keyboard-response","173","221925","0.0-6.0-6.23","570","","","","","clear_screen","null","null","","","critical","d","t","c","220.0396","154.6796","240","164","164","240","trueblood","0.14","w","240","164","164","240","220.0396","154.6796","39360","39360","34035.6388","dc","null","null","null","null","null","null","[1,3]","","",""
"","canvas-keyboard-response","174","222126","0.0-6.0-0.24","570","","","","","pre trial waiting period","null","null","","","critical","d","c","t","164","240","240","164","164","240","spektor","0","h","164","240","240","164","164","240","39360","39360","39360","td","null","null","null","null","null","null","[3,1]","456.95761976212196","150.05510330727785","484.85828813282905"
"","canvas-keyboard-response","175","222150","0.0-6.0-1.24","570","","","","","clear_screen","null","null","","","critical","d","c","t","164","240","240","164","164","240","spektor","0","h","164","240","240","164","164","240","39360","39360","39360","td","null","null","null","null","null","null","[3,1]","456.95761976212196","150.05510330727785","484.85828813282905"
"","canvas-keyboard-response","176","222660","0.0-6.0-2.24","570","","","","","rectangles no change","null","null","","","critical","d","c","t","164","240","240","164","164","240","spektor","0","h","164","240","240","164","164","240","39360","39360","39360","td","null","null","null","null","null","null","[3,1]","456.95761976212196","150.05510330727785","484.85828813282905"
"","canvas-keyboard-response","177","223996","0.0-6.0-3.24","570","","","","","rectangles with change","null","null","","","critical","d","c","t","164","240","240","164","164","240","spektor","0","h","164","240","240","164","164","240","39360","39360","39360","td","null","null","null","null","null","null","[3,1]","456.95761976212196","150.05510330727785","484.85828813282905"
"","canvas-keyboard-response","178","224019","0.0-6.0-4.24","570","","","","","clear_screen","null","null","","","critical","d","c","t","164","240","240","164","164","240","spektor","0","h","164","240","240","164","164","240","39360","39360","39360","td","null","null","null","null","null","null","[3,1]","456.95761976212196","150.05510330727785","484.85828813282905"
"","canvas-keyboard-response","179","224875","0.0-6.0-5.24","570","","","","","make choice","849","3","","","critical","d","c","t","164","240","240","164","164","240","spektor","0","h","164","240","240","164","164","240","39360","39360","39360","td","null","null","null","null","null","null","[3,1]","","",""
"","canvas-keyboard-response","180","224897","0.0-6.0-6.24","570","","","","","clear_screen","null","null","","","critical","d","c","t","164","240","240","164","164","240","spektor","0","h","164","240","240","164","164","240","39360","39360","39360","td","null","null","null","null","null","null","[3,1]","","",""
"","canvas-keyboard-response","181","225097","0.0-6.0-0.25","570","","","","","pre trial waiting period","null","null","","","critical","t","d","c","164","240","160.6713","232.8713","240","164","spektor","0.05","h","164","240","240","164","160.6713","232.8713","39360","39360","37415.7294","tc","null","null","null","null","null","null","[1,3]","492.4845506186308","133.05198917307501","535.4321687425347"
"","canvas-keyboard-response","182","225120","0.0-6.0-1.25","570","","","","","clear_screen","null","null","","","critical","t","d","c","164","240","160.6713","232.8713","240","164","spektor","0.05","h","164","240","240","164","160.6713","232.8713","39360","39360","37415.7294","tc","null","null","null","null","null","null","[1,3]","492.4845506186308","133.05198917307501","535.4321687425347"
"","canvas-keyboard-response","183","225629","0.0-6.0-2.25","570","","","","","rectangles no change","null","null","","","critical","t","d","c","164","240","160.6713","232.8713","240","164","spektor","0.05","h","164","240","240","164","160.6713","232.8713","39360","39360","37415.7294","tc","null","null","null","null","null","null","[1,3]","492.4845506186308","133.05198917307501","535.4321687425347"
"","canvas-keyboard-response","184","226965","0.0-6.0-3.25","570","","","","","rectangles with change","null","null","","","critical","t","d","c","164","240","160.6713","232.8713","240","164","spektor","0.05","h","164","240","240","164","160.6713","232.8713","39360","39360","37415.7294","tc","null","null","null","null","null","null","[1,3]","492.4845506186308","133.05198917307501","535.4321687425347"
"","canvas-keyboard-response","185","226987","0.0-6.0-4.25","570","","","","","clear_screen","null","null","","","critical","t","d","c","164","240","160.6713","232.8713","240","164","spektor","0.05","h","164","240","240","164","160.6713","232.8713","39360","39360","37415.7294","tc","null","null","null","null","null","null","[1,3]","492.4845506186308","133.05198917307501","535.4321687425347"
"","canvas-keyboard-response","186","227603","0.0-6.0-5.25","570","","","","","make choice","609","3","","","critical","t","d","c","164","240","160.6713","232.8713","240","164","spektor","0.05","h","164","240","240","164","160.6713","232.8713","39360","39360","37415.7294","tc","null","null","null","null","null","null","[1,3]","","",""
"","canvas-keyboard-response","187","227622","0.0-6.0-6.25","570","","","","","clear_screen","null","null","","","critical","t","d","c","164","240","160.6713","232.8713","240","164","spektor","0.05","h","164","240","240","164","160.6713","232.8713","39360","39360","37415.7294","tc","null","null","null","null","null","null","[1,3]","","",""
"","canvas-keyboard-response","188","227823","0.0-6.0-0.26","570","","","","","pre trial waiting period","null","null","","","critical","c","t","d","164","240","240","164","232.8713","160.6713","spektor","0.05","w","240","164","164","240","232.8713","160.6713","39360","39360","37415.7294","dc","null","null","null","null","null","null","[3,1]","457.47710197245385","168.94068328851213","542.9919659289343"
"","canvas-keyboard-response","189","227844","0.0-6.0-1.26","570","","","","","clear_screen","null","null","","","critical","c","t","d","164","240","240","164","232.8713","160.6713","spektor","0.05","w","240","164","164","240","232.8713","160.6713","39360","39360","37415.7294","dc","null","null","null","null","null","null","[3,1]","457.47710197245385","168.94068328851213","542.9919659289343"
"","canvas-keyboard-response","190","228352","0.0-6.0-2.26","570","","","","","rectangles no change","null","null","","","critical","c","t","d","164","240","240","164","232.8713","160.6713","spektor","0.05","w","240","164","164","240","232.8713","160.6713","39360","39360","37415.7294","dc","null","null","null","null","null","null","[3,1]","457.47710197245385","168.94068328851213","542.9919659289343"
"","canvas-keyboard-response","191","229691","0.0-6.0-3.26","570","","","","","rectangles with change","null","null","","","critical","c","t","d","164","240","240","164","232.8713","160.6713","spektor","0.05","w","240","164","164","240","232.8713","160.6713","39360","39360","37415.7294","dc","null","null","null","null","null","null","[3,1]","457.47710197245385","168.94068328851213","542.9919659289343"
"","canvas-keyboard-response","192","229713","0.0-6.0-4.26","570","","","","","clear_screen","null","null","","","critical","c","t","d","164","240","240","164","232.8713","160.6713","spektor","0.05","w","240","164","164","240","232.8713","160.6713","39360","39360","37415.7294","dc","null","null","null","null","null","null","[3,1]","457.47710197245385","168.94068328851213","542.9919659289343"
"","canvas-keyboard-response","193","230403","0.0-6.0-5.26","570","","","","","make choice","684","3","","","critical","c","t","d","164","240","240","164","232.8713","160.6713","spektor","0.05","w","240","164","164","240","232.8713","160.6713","39360","39360","37415.7294","dc","null","null","null","null","null","null","[3,1]","","",""
"","canvas-keyboard-response","194","230424","0.0-6.0-6.26","570","","","","","clear_screen","null","null","","","critical","c","t","d","164","240","240","164","232.8713","160.6713","spektor","0.05","w","240","164","164","240","232.8713","160.6713","39360","39360","37415.7294","dc","null","null","null","null","null","null","[3,1]","","",""
"","canvas-keyboard-response","195","230625","0.0-6.0-0.27","570","","","","","pre trial waiting period","null","null","","","critical","c","t","d","164","240","240","164","227.1683","158.0083","trueblood","0.09","w","240","164","164","240","227.1683","158.0083","39360","39360","35894.4834","tc","null","null","null","null","null","null","[2,1]","449.6252311407312","496.60343620354877","487.03142748145797"
"","canvas-keyboard-response","196","230644","0.0-6.0-1.27","570","","","","","clear_screen","null","null","","","critical","c","t","d","164","240","240","164","227.1683","158.0083","trueblood","0.09","w","240","164","164","240","227.1683","158.0083","39360","39360","35894.4834","tc","null","null","null","null","null","null","[2,1]","449.6252311407312","496.60343620354877","487.03142748145797"
"","canvas-keyboard-response","197","231152","0.0-6.0-2.27","570","","","","","rectangles no change","null","null","","","critical","c","t","d","164","240","240","164","227.1683","158.0083","trueblood","0.09","w","240","164","164","240","227.1683","158.0083","39360","39360","35894.4834","tc","null","null","null","null","null","null","[2,1]","449.6252311407312","496.60343620354877","487.03142748145797"
"","canvas-keyboard-response","198","232489","0.0-6.0-3.27","570","","","","","rectangles with change","null","null","","","critical","c","t","d","164","240","240","164","227.1683","158.0083","trueblood","0.09","w","240","164","164","240","227.1683","158.0083","39360","39360","35894.4834","tc","null","null","null","null","null","null","[2,1]","449.6252311407312","496.60343620354877","487.03142748145797"
"","canvas-keyboard-response","199","232508","0.0-6.0-4.27","570","","","","","clear_screen","null","null","","","critical","c","t","d","164","240","240","164","227.1683","158.0083","trueblood","0.09","w","240","164","164","240","227.1683","158.0083","39360","39360","35894.4834","tc","null","null","null","null","null","null","[2,1]","449.6252311407312","496.60343620354877","487.03142748145797"
"","canvas-keyboard-response","200","233163","0.0-6.0-5.27","570","","","","","make choice","643","2","","","critical","c","t","d","164","240","240","164","227.1683","158.0083","trueblood","0.09","w","240","164","164","240","227.1683","158.0083","39360","39360","35894.4834","tc","null","null","null","null","null","null","[2,1]","","",""
"","canvas-keyboard-response","201","233183","0.0-6.0-6.27","570","","","","","clear_screen","null","null","","","critical","c","t","d","164","240","240","164","227.1683","158.0083","trueblood","0.09","w","240","164","164","240","227.1683","158.0083","39360","39360","35894.4834","tc","null","null","null","null","null","null","[2,1]","","",""
"","canvas-keyboard-response","202","233384","0.0-6.0-0.28","570","","","","","pre trial waiting period","null","null","","","critical","t","c","d","164","240","240","164","158.0083","227.1683","trueblood","0.09","h","164","240","240","164","158.0083","227.1683","39360","39360","35894.4834","dc","null","null","null","null","null","null","[3,2]","460.0261749450794","506.43392935927596","436.4900711689344"
"","canvas-keyboard-response","203","233404","0.0-6.0-1.28","570","","","","","clear_screen","null","null","","","critical","t","c","d","164","240","240","164","158.0083","227.1683","trueblood","0.09","h","164","240","240","164","158.0083","227.1683","39360","39360","35894.4834","dc","null","null","null","null","null","null","[3,2]","460.0261749450794","506.43392935927596","436.4900711689344"
"","canvas-keyboard-response","204","233913","0.0-6.0-2.28","570","","","","","rectangles no change","null","null","","","critical","t","c","d","164","240","240","164","158.0083","227.1683","trueblood","0.09","h","164","240","240","164","158.0083","227.1683","39360","39360","35894.4834","dc","null","null","null","null","null","null","[3,2]","460.0261749450794","506.43392935927596","436.4900711689344"
"","canvas-keyboard-response","205","235251","0.0-6.0-3.28","570","","","","","rectangles with change","null","null","","","critical","t","c","d","164","240","240","164","158.0083","227.1683","trueblood","0.09","h","164","240","240","164","158.0083","227.1683","39360","39360","35894.4834","dc","null","null","null","null","null","null","[3,2]","460.0261749450794","506.43392935927596","436.4900711689344"
"","canvas-keyboard-response","206","235270","0.0-6.0-4.28","570","","","","","clear_screen","null","null","","","critical","t","c","d","164","240","240","164","158.0083","227.1683","trueblood","0.09","h","164","240","240","164","158.0083","227.1683","39360","39360","35894.4834","dc","null","null","null","null","null","null","[3,2]","460.0261749450794","506.43392935927596","436.4900711689344"
"","canvas-keyboard-response","207","236722","0.0-6.0-5.28","570","","","","","make choice","1446","2","","","critical","t","c","d","164","240","240","164","158.0083","227.1683","trueblood","0.09","h","164","240","240","164","158.0083","227.1683","39360","39360","35894.4834","dc","null","null","null","null","null","null","[3,2]","","",""
"","canvas-keyboard-response","208","236742","0.0-6.0-6.28","570","","","","","clear_screen","null","null","","","critical","t","c","d","164","240","240","164","158.0083","227.1683","trueblood","0.09","h","164","240","240","164","158.0083","227.1683","39360","39360","35894.4834","dc","null","null","null","null","null","null","[3,2]","","",""
"","canvas-keyboard-response","209","236943","0.0-6.0-0.29","570","","","","","pre trial waiting period","null","null","","","catch","sh","l","sw","161","163","191","292","161","215","trueblood","null","null","null","null","null","null","null","null","null","null","null","","180","200","260","200","36000","52000","[1,2]","497.89951479865425","403.71602016635404","483.4374461649859"
"","canvas-keyboard-response","210","236966","0.0-6.0-1.29","570","","","","","clear_screen","null","null","","","catch","sh","l","sw","161","163","191","292","161","215","trueblood","null","null","null","null","null","null","null","null","null","null","null","","180","200","260","200","36000","52000","[1,2]","497.89951479865425","403.71602016635404","483.4374461649859"
"","canvas-keyboard-response","211","237473","0.0-6.0-2.29","570","","","","","rectangles no change","null","null","","","catch","sh","l","sw","161","163","191","292","161","215","trueblood","null","null","null","null","null","null","null","null","null","null","null","","180","200","260","200","36000","52000","[1,2]","497.89951479865425","403.71602016635404","483.4374461649859"
"","canvas-keyboard-response","212","238808","0.0-6.0-3.29","570","","","","","rectangles with change","null","null","","","catch","sh","l","sw","161","163","191","292","161","215","trueblood","null","null","null","null","null","null","null","null","null","null","null","","180","200","260","200","36000","52000","[1,2]","497.89951479865425","403.71602016635404","483.4374461649859"
"","canvas-keyboard-response","213","238828","0.0-6.0-4.29","570","","","","","clear_screen","null","null","","","catch","sh","l","sw","161","163","191","292","161","215","trueblood","null","null","null","null","null","null","null","null","null","null","null","","180","200","260","200","36000","52000","[1,2]","497.89951479865425","403.71602016635404","483.4374461649859"
"","canvas-keyboard-response","214","239819","0.0-6.0-5.29","570","","","","","make choice","984","2","","","catch","sh","l","sw","161","163","191","292","161","215","trueblood","null","null","null","null","null","null","null","null","null","null","null","","180","200","260","200","36000","52000","[1,2]","","",""
"","canvas-keyboard-response","215","239842","0.0-6.0-6.29","570","","","","","clear_screen","null","null","","","catch","sh","l","sw","161","163","191","292","161","215","trueblood","null","null","null","null","null","null","null","null","null","null","null","","180","200","260","200","36000","52000","[1,2]","","",""
"","canvas-keyboard-response","216","240042","0.0-6.0-0.30","570","","","","","pre trial waiting period","null","null","","","critical","c","t","d","164","240","240","164","240","164","spektor","0","w","240","164","164","240","240","164","39360","39360","39360","dc","null","null","null","null","null","null","[3,1]","494.6762115399793","170.69565504687174","498.95516077076263"
"","canvas-keyboard-response","217","240064","0.0-6.0-1.30","570","","","","","clear_screen","null","null","","","critical","c","t","d","164","240","240","164","240","164","spektor","0","w","240","164","164","240","240","164","39360","39360","39360","dc","null","null","null","null","null","null","[3,1]","494.6762115399793","170.69565504687174","498.95516077076263"
"","canvas-keyboard-response","218","240572","0.0-6.0-2.30","570","","","","","rectangles no change","null","null","","","critical","c","t","d","164","240","240","164","240","164","spektor","0","w","240","164","164","240","240","164","39360","39360","39360","dc","null","null","null","null","null","null","[3,1]","494.6762115399793","170.69565504687174","498.95516077076263"
"","canvas-keyboard-response","219","241911","0.0-6.0-3.30","570","","","","","rectangles with change","null","null","","","critical","c","t","d","164","240","240","164","240","164","spektor","0","w","240","164","164","240","240","164","39360","39360","39360","dc","null","null","null","null","null","null","[3,1]","494.6762115399793","170.69565504687174","498.95516077076263"
"","canvas-keyboard-response","220","241935","0.0-6.0-4.30","570","","","","","clear_screen","null","null","","","critical","c","t","d","164","240","240","164","240","164","spektor","0","w","240","164","164","240","240","164","39360","39360","39360","dc","null","null","null","null","null","null","[3,1]","494.6762115399793","170.69565504687174","498.95516077076263"
"","canvas-keyboard-response","221","245331","0.0-6.0-5.30","570","","","","","make choice","3390","3","","","critical","c","t","d","164","240","240","164","240","164","spektor","0","w","240","164","164","240","240","164","39360","39360","39360","dc","null","null","null","null","null","null","[3,1]","","",""
"","canvas-keyboard-response","222","245350","0.0-6.0-6.30","570","","","","","clear_screen","null","null","","","critical","c","t","d","164","240","240","164","240","164","spektor","0","w","240","164","164","240","240","164","39360","39360","39360","dc","null","null","null","null","null","null","[3,1]","","",""
"","canvas-keyboard-response","223","245551","0.0-6.0-0.31","570","","","","","pre trial waiting period","null","null","","","critical","t","c","d","240","164","164","240","220.0396","154.6796","trueblood","0.14","w","240","164","164","240","220.0396","154.6796","39360","39360","34035.6388","tc","null","null","null","null","null","null","[1,2]","512.9753510201461","419.617816862718","478.6080047708789"
"","canvas-keyboard-response","224","245572","0.0-6.0-1.31","570","","","","","clear_screen","null","null","","","critical","t","c","d","240","164","164","240","220.0396","154.6796","trueblood","0.14","w","240","164","164","240","220.0396","154.6796","39360","39360","34035.6388","tc","null","null","null","null","null","null","[1,2]","512.9753510201461","419.617816862718","478.6080047708789"
"","canvas-keyboard-response","225","246080","0.0-6.0-2.31","570","","","","","rectangles no change","null","null","","","critical","t","c","d","240","164","164","240","220.0396","154.6796","trueblood","0.14","w","240","164","164","240","220.0396","154.6796","39360","39360","34035.6388","tc","null","null","null","null","null","null","[1,2]","512.9753510201461","419.617816862718","478.6080047708789"
"","canvas-keyboard-response","226","247419","0.0-6.0-3.31","570","","","","","rectangles with change","null","null","","","critical","t","c","d","240","164","164","240","220.0396","154.6796","trueblood","0.14","w","240","164","164","240","220.0396","154.6796","39360","39360","34035.6388","tc","null","null","null","null","null","null","[1,2]","512.9753510201461","419.617816862718","478.6080047708789"
"","canvas-keyboard-response","227","247443","0.0-6.0-4.31","570","","","","","clear_screen","null","null","","","critical","t","c","d","240","164","164","240","220.0396","154.6796","trueblood","0.14","w","240","164","164","240","220.0396","154.6796","39360","39360","34035.6388","tc","null","null","null","null","null","null","[1,2]","512.9753510201461","419.617816862718","478.6080047708789"
"","canvas-keyboard-response","228","248475","0.0-6.0-5.31","570","","","","","make choice","1026","1","","","critical","t","c","d","240","164","164","240","220.0396","154.6796","trueblood","0.14","w","240","164","164","240","220.0396","154.6796","39360","39360","34035.6388","tc","null","null","null","null","null","null","[1,2]","","",""
"","canvas-keyboard-response","229","248492","0.0-6.0-6.31","570","","","","","clear_screen","null","null","","","critical","t","c","d","240","164","164","240","220.0396","154.6796","trueblood","0.14","w","240","164","164","240","220.0396","154.6796","39360","39360","34035.6388","tc","null","null","null","null","null","null","[1,2]","","",""
"","canvas-keyboard-response","230","248693","0.0-6.0-0.32","570","","","","","pre trial waiting period","null","null","","","critical","c","d","t","240","164","158.0083","227.1683","164","240","trueblood","0.09","h","164","240","240","164","158.0083","227.1683","39360","39360","35894.4834","tc","null","null","null","null","null","null","[3,1]","483.34010710661437","436.97842510158836","436.7193108582904"
"","canvas-keyboard-response","231","248715","0.0-6.0-1.32","570","","","","","clear_screen","null","null","","","critical","c","d","t","240","164","158.0083","227.1683","164","240","trueblood","0.09","h","164","240","240","164","158.0083","227.1683","39360","39360","35894.4834","tc","null","null","null","null","null","null","[3,1]","483.34010710661437","436.97842510158836","436.7193108582904"
"","canvas-keyboard-response","232","249223","0.0-6.0-2.32","570","","","","","rectangles no change","null","null","","","critical","c","d","t","240","164","158.0083","227.1683","164","240","trueblood","0.09","h","164","240","240","164","158.0083","227.1683","39360","39360","35894.4834","tc","null","null","null","null","null","null","[3,1]","483.34010710661437","436.97842510158836","436.7193108582904"
"","canvas-keyboard-response","233","250563","0.0-6.0-3.32","570","","","","","rectangles with change","null","null","","","critical","c","d","t","240","164","158.0083","227.1683","164","240","trueblood","0.09","h","164","240","240","164","158.0083","227.1683","39360","39360","35894.4834","tc","null","null","null","null","null","null","[3,1]","483.34010710661437","436.97842510158836","436.7193108582904"
"","canvas-keyboard-response","234","250587","0.0-6.0-4.32","570","","","","","clear_screen","null","null","","","critical","c","d","t","240","164","158.0083","227.1683","164","240","trueblood","0.09","h","164","240","240","164","158.0083","227.1683","39360","39360","35894.4834","tc","null","null","null","null","null","null","[3,1]","483.34010710661437","436.97842510158836","436.7193108582904"
"","canvas-keyboard-response","235","251931","0.0-6.0-5.32","570","","","","","make choice","1338","1","","","critical","c","d","t","240","164","158.0083","227.1683","164","240","trueblood","0.09","h","164","240","240","164","158.0083","227.1683","39360","39360","35894.4834","tc","null","null","null","null","null","null","[3,1]","","",""
"","canvas-keyboard-response","236","251948","0.0-6.0-6.32","570","","","","","clear_screen","null","null","","","critical","c","d","t","240","164","158.0083","227.1683","164","240","trueblood","0.09","h","164","240","240","164","158.0083","227.1683","39360","39360","35894.4834","tc","null","null","null","null","null","null","[3,1]","","",""
"","canvas-keyboard-response","237","252150","0.0-6.0-0.33","570","","","","","pre trial waiting period","null","null","","","catch","sw","sh","l","180","200","211","211","209","293","spektor","null","null","null","null","null","null","null","null","null","null","null","","180","200","260","200","36000","52000","[2,3]","500.13142281490633","116.13561303639932","435.4057690469861"
"","canvas-keyboard-response","238","252175","0.0-6.0-1.33","570","","","","","clear_screen","null","null","","","catch","sw","sh","l","180","200","211","211","209","293","spektor","null","null","null","null","null","null","null","null","null","null","null","","180","200","260","200","36000","52000","[2,3]","500.13142281490633","116.13561303639932","435.4057690469861"
"","canvas-keyboard-response","239","252686","0.0-6.0-2.33","570","","","","","rectangles no change","null","null","","","catch","sw","sh","l","180","200","211","211","209","293","spektor","null","null","null","null","null","null","null","null","null","null","null","","180","200","260","200","36000","52000","[2,3]","500.13142281490633","116.13561303639932","435.4057690469861"
"","canvas-keyboard-response","240","254026","0.0-6.0-3.33","570","","","","","rectangles with change","null","null","","","catch","sw","sh","l","180","200","211","211","209","293","spektor","null","null","null","null","null","null","null","null","null","null","null","","180","200","260","200","36000","52000","[2,3]","500.13142281490633","116.13561303639932","435.4057690469861"
"","canvas-keyboard-response","241","254048","0.0-6.0-4.33","570","","","","","clear_screen","null","null","","","catch","sw","sh","l","180","200","211","211","209","293","spektor","null","null","null","null","null","null","null","null","null","null","null","","180","200","260","200","36000","52000","[2,3]","500.13142281490633","116.13561303639932","435.4057690469861"
"","canvas-keyboard-response","242","255875","0.0-6.0-5.33","570","","","","","make choice","1821","3","","","catch","sw","sh","l","180","200","211","211","209","293","spektor","null","null","null","null","null","null","null","null","null","null","null","","180","200","260","200","36000","52000","[2,3]","","",""
"","canvas-keyboard-response","243","255895","0.0-6.0-6.33","570","","","","","clear_screen","null","null","","","catch","sw","sh","l","180","200","211","211","209","293","spektor","null","null","null","null","null","null","null","null","null","null","null","","180","200","260","200","36000","52000","[2,3]","","",""
"","canvas-keyboard-response","244","256095","0.0-6.0-0.34","570","","","","","pre trial waiting period","null","null","","","critical","t","d","c","240","164","220.0396","154.6796","164","240","trueblood","0.14","w","240","164","164","240","220.0396","154.6796","39360","39360","34035.6388","td","null","null","null","null","null","null","[1,2]","473.36829397290495","487.5282916500197","451.4278099638328"
"","canvas-keyboard-response","245","256119","0.0-6.0-1.34","570","","","","","clear_screen","null","null","","","critical","t","d","c","240","164","220.0396","154.6796","164","240","trueblood","0.14","w","240","164","164","240","220.0396","154.6796","39360","39360","34035.6388","td","null","null","null","null","null","null","[1,2]","473.36829397290495","487.5282916500197","451.4278099638328"
"","canvas-keyboard-response","246","256627","0.0-6.0-2.34","570","","","","","rectangles no change","null","null","","","critical","t","d","c","240","164","220.0396","154.6796","164","240","trueblood","0.14","w","240","164","164","240","220.0396","154.6796","39360","39360","34035.6388","td","null","null","null","null","null","null","[1,2]","473.36829397290495","487.5282916500197","451.4278099638328"
"","canvas-keyboard-response","247","257967","0.0-6.0-3.34","570","","","","","rectangles with change","null","null","","","critical","t","d","c","240","164","220.0396","154.6796","164","240","trueblood","0.14","w","240","164","164","240","220.0396","154.6796","39360","39360","34035.6388","td","null","null","null","null","null","null","[1,2]","473.36829397290495","487.5282916500197","451.4278099638328"
"","canvas-keyboard-response","248","257985","0.0-6.0-4.34","570","","","","","clear_screen","null","null","","","critical","t","d","c","240","164","220.0396","154.6796","164","240","trueblood","0.14","w","240","164","164","240","220.0396","154.6796","39360","39360","34035.6388","td","null","null","null","null","null","null","[1,2]","473.36829397290495","487.5282916500197","451.4278099638328"
"","canvas-keyboard-response","249","258891","0.0-6.0-5.34","570","","","","","make choice","896","1","","","critical","t","d","c","240","164","220.0396","154.6796","164","240","trueblood","0.14","w","240","164","164","240","220.0396","154.6796","39360","39360","34035.6388","td","null","null","null","null","null","null","[1,2]","","",""
"","canvas-keyboard-response","250","258912","0.0-6.0-6.34","570","","","","","clear_screen","null","null","","","critical","t","d","c","240","164","220.0396","154.6796","164","240","trueblood","0.14","w","240","164","164","240","220.0396","154.6796","39360","39360","34035.6388","td","null","null","null","null","null","null","[1,2]","","",""
"","canvas-keyboard-response","251","259113","0.0-6.0-0.35","570","","","","","pre trial waiting period","null","null","","","critical","d","c","t","154.6796","220.0396","240","164","164","240","trueblood","0.14","h","164","240","240","164","154.6796","220.0396","39360","39360","34035.6388","dc","null","null","null","null","null","null","[1,2]","442.48304321147066","515.1904149286464","425.152202786136"
"","canvas-keyboard-response","252","259132","0.0-6.0-1.35","570","","","","","clear_screen","null","null","","","critical","d","c","t","154.6796","220.0396","240","164","164","240","trueblood","0.14","h","164","240","240","164","154.6796","220.0396","39360","39360","34035.6388","dc","null","null","null","null","null","null","[1,2]","442.48304321147066","515.1904149286464","425.152202786136"
"","canvas-keyboard-response","253","259640","0.0-6.0-2.35","570","","","","","rectangles no change","null","null","","","critical","d","c","t","154.6796","220.0396","240","164","164","240","trueblood","0.14","h","164","240","240","164","154.6796","220.0396","39360","39360","34035.6388","dc","null","null","null","null","null","null","[1,2]","442.48304321147066","515.1904149286464","425.152202786136"
"","canvas-keyboard-response","254","260975","0.0-6.0-3.35","570","","","","","rectangles with change","null","null","","","critical","d","c","t","154.6796","220.0396","240","164","164","240","trueblood","0.14","h","164","240","240","164","154.6796","220.0396","39360","39360","34035.6388","dc","null","null","null","null","null","null","[1,2]","442.48304321147066","515.1904149286464","425.152202786136"
"","canvas-keyboard-response","255","260999","0.0-6.0-4.35","570","","","","","clear_screen","null","null","","","critical","d","c","t","154.6796","220.0396","240","164","164","240","trueblood","0.14","h","164","240","240","164","154.6796","220.0396","39360","39360","34035.6388","dc","null","null","null","null","null","null","[1,2]","442.48304321147066","515.1904149286464","425.152202786136"
"","canvas-keyboard-response","256","262131","0.0-6.0-5.35","570","","","","","make choice","1125","2","","","critical","d","c","t","154.6796","220.0396","240","164","164","240","trueblood","0.14","h","164","240","240","164","154.6796","220.0396","39360","39360","34035.6388","dc","null","null","null","null","null","null","[1,2]","","",""
"","canvas-keyboard-response","257","262149","0.0-6.0-6.35","570","","","","","clear_screen","null","null","","","critical","d","c","t","154.6796","220.0396","240","164","164","240","trueblood","0.14","h","164","240","240","164","154.6796","220.0396","39360","39360","34035.6388","dc","null","null","null","null","null","null","[1,2]","","",""
"","canvas-keyboard-response","258","262350","0.0-6.0-0.36","570","","","","","pre trial waiting period","null","null","","","critical","d","t","c","237.1485","162.6685","240","164","164","240","trueblood","0.02","w","240","164","164","240","237.1485","162.6685","39360","39360","38576.5967","tc","null","null","null","null","null","null","[2,3]","500.94662349167754","506.55036386969164","445.2313865416395"
"","canvas-keyboard-response","259","262373","0.0-6.0-1.36","570","","","","","clear_screen","null","null","","","critical","d","t","c","237.1485","162.6685","240","164","164","240","trueblood","0.02","w","240","164","164","240","237.1485","162.6685","39360","39360","38576.5967","tc","null","null","null","null","null","null","[2,3]","500.94662349167754","506.55036386969164","445.2313865416395"
"","canvas-keyboard-response","260","262880","0.0-6.0-2.36","570","","","","","rectangles no change","null","null","","","critical","d","t","c","237.1485","162.6685","240","164","164","240","trueblood","0.02","w","240","164","164","240","237.1485","162.6685","39360","39360","38576.5967","tc","null","null","null","null","null","null","[2,3]","500.94662349167754","506.55036386969164","445.2313865416395"
"","canvas-keyboard-response","261","264219","0.0-6.0-3.36","570","","","","","rectangles with change","null","null","","","critical","d","t","c","237.1485","162.6685","240","164","164","240","trueblood","0.02","w","240","164","164","240","237.1485","162.6685","39360","39360","38576.5967","tc","null","null","null","null","null","null","[2,3]","500.94662349167754","506.55036386969164","445.2313865416395"
"","canvas-keyboard-response","262","264242","0.0-6.0-4.36","570","","","","","clear_screen","null","null","","","critical","d","t","c","237.1485","162.6685","240","164","164","240","trueblood","0.02","w","240","164","164","240","237.1485","162.6685","39360","39360","38576.5967","tc","null","null","null","null","null","null","[2,3]","500.94662349167754","506.55036386969164","445.2313865416395"
"","canvas-keyboard-response","263","266874","0.0-6.0-5.36","570","","","","","make choice","2627","2","","","critical","d","t","c","237.1485","162.6685","240","164","164","240","trueblood","0.02","w","240","164","164","240","237.1485","162.6685","39360","39360","38576.5967","tc","null","null","null","null","null","null","[2,3]","","",""
"","canvas-keyboard-response","264","266895","0.0-6.0-6.36","570","","","","","clear_screen","null","null","","","critical","d","t","c","237.1485","162.6685","240","164","164","240","trueblood","0.02","w","240","164","164","240","237.1485","162.6685","39360","39360","38576.5967","tc","null","null","null","null","null","null","[2,3]","","",""
"","canvas-keyboard-response","265","267097","0.0-6.0-0.37","570","","","","","pre trial waiting period","null","null","","","critical","d","t","c","240","164","240","164","164","240","trueblood","0","w","240","164","164","240","240","164","39360","39360","39360","dc","null","null","null","null","null","null","[1,3]","470.25153374755376","511.9910070146226","430.54742349194936"
"","canvas-keyboard-response","266","267119","0.0-6.0-1.37","570","","","","","clear_screen","null","null","","","critical","d","t","c","240","164","240","164","164","240","trueblood","0","w","240","164","164","240","240","164","39360","39360","39360","dc","null","null","null","null","null","null","[1,3]","470.25153374755376","511.9910070146226","430.54742349194936"
