"success","trial_type","trial_index","time_elapsed","internal_node_id","sub_n","timeout","failed_images","failed_audio","failed_video","screen_id","rt","response","stimulus","view_history","trial","r1","r2","r3","w1","h1","w2","h2","w3","h3","display","tdd","tdo","tw","th","cw","ch","dw","dh","ta","ca","da","probe","csls","csss","clls","clss","sa","la","probe_rects","r1yloc","r2yloc","r3yloc"
"true","fullscreen","0","3420","0.0-0.0","504","","","","","","","","","","","","","","","","","","","","","","","","","","","","","","","","","","","","","","","","","",""
"true","preload","1","3457","0.0-1.0","504","false","[]","[]","[]","img preload","","","","","","","","","","","","","","","","","","","","","","","","","","","","","","","","","","","","",""
"","survey-html-form","2","7749","0.0-2.0","504","","","","","enter-sub-number","4284","{""response"":""504""}","","","","","","","","","","","","","","","","","","","","","","","","","","","","","","","","","","",""
"","image-button-response","3","40819","0.0-3.0","504","","","","","","33001","0","consent.png","","","","","","","","","","","","","","","","","","","","","","","","","","","","","","","","","",""
"","html-button-response","4","47322","0.0-4.0","504","","","","","intro mssg","6496","0","<div style= ""font-size:25px;"" <p> <strong> Welcome! </strong><br> <p style=""color:#8B0000; font-size:25px;""><strong> Please do NOT exit full screen until you are done with the experiment. </strong> </p><p style=""font-size:25px;color:#8B0000;""> <strong> Your data will be lost <br> if you try to go back or refresh the page after the experiment starts. Feel free to click ""previous"" during the instructions, however.</strong> </p><br><p> <strong> Thanks in advance for your contribution to our research! </strong></p>","","","","","","","","","","","","","","","","","","","","","","","","","","","","","","","","","",""
"","instructions","5","113419","0.0-5.0","504","","","","","instructions","66088","","","[{""page_index"":0,""viewing_time"":8160},{""page_index"":1,""viewing_time"":8344},{""page_index"":2,""viewing_time"":4040},{""page_index"":3,""viewing_time"":28231},{""page_index"":4,""viewing_time"":7648},{""page_index"":5,""viewing_time"":5433},{""page_index"":6,""viewing_time"":2407},{""page_index"":7,""viewing_time"":1824}]","","","","","","","","","","","","","","","","","","","","","","","","","","","","","","","","",""
"","canvas-keyboard-response","6","113625","0.0-6.0-0.0","504","","","","","pre trial waiting period","null","null","","","critical","c","d","t","164","240","240","164","240","164","trueblood","0","w","240","164","164","240","240","164","39360","39360","39360","tc","null","null","null","null","null","null","[3,1]","442.08626247683577","491.98119365771106","492.42310182653506"
"","canvas-keyboard-response","7","113648","0.0-6.0-1.0","504","","","","","clear_screen","null","null","","","critical","c","d","t","164","240","240","164","240","164","trueblood","0","w","240","164","164","240","240","164","39360","39360","39360","tc","null","null","null","null","null","null","[3,1]","442.08626247683577","491.98119365771106","492.42310182653506"
"","canvas-keyboard-response","8","114160","0.0-6.0-2.0","504","","","","","rectangles no change","null","null","","","critical","c","d","t","164","240","240","164","240","164","trueblood","0","w","240","164","164","240","240","164","39360","39360","39360","tc","null","null","null","null","null","null","[3,1]","442.08626247683577","491.98119365771106","492.42310182653506"
"","canvas-keyboard-response","9","115502","0.0-6.0-3.0","504","","","","","rectangles with change","null","null","","","critical","c","d","t","164","240","240","164","240","164","trueblood","0","w","240","164","164","240","240","164","39360","39360","39360","tc","null","null","null","null","null","null","[3,1]","442.08626247683577","491.98119365771106","492.42310182653506"
"","canvas-keyboard-response","10","115525","0.0-6.0-4.0","504","","","","","clear_screen","null","null","","","critical","c","d","t","164","240","240","164","240","164","trueblood","0","w","240","164","164","240","240","164","39360","39360","39360","tc","null","null","null","null","null","null","[3,1]","442.08626247683577","491.98119365771106","492.42310182653506"
"","canvas-keyboard-response","11","118930","0.0-6.0-5.0","504","","","","","make choice","3395","1","","","critical","c","d","t","164","240","240","164","240","164","trueblood","0","w","240","164","164","240","240","164","39360","39360","39360","tc","null","null","null","null","null","null","[3,1]","","",""
"","canvas-keyboard-response","12","118951","0.0-6.0-6.0","504","","","","","clear_screen","null","null","","","critical","c","d","t","164","240","240","164","240","164","trueblood","0","w","240","164","164","240","240","164","39360","39360","39360","tc","null","null","null","null","null","null","[3,1]","","",""
"","canvas-keyboard-response","13","119153","0.0-6.0-0.1","504","","","","","pre trial waiting period","null","null","","","critical","t","d","c","240","164","232.8713","160.6713","164","240","spektor","0.05","w","240","164","164","240","232.8713","160.6713","39360","39360","37415.7294","td","null","null","null","null","null","null","[1,2]","511.5661003433843","203.5905897873486","499.5849057347551"
"","canvas-keyboard-response","14","119175","0.0-6.0-1.1","504","","","","","clear_screen","null","null","","","critical","t","d","c","240","164","232.8713","160.6713","164","240","spektor","0.05","w","240","164","164","240","232.8713","160.6713","39360","39360","37415.7294","td","null","null","null","null","null","null","[1,2]","511.5661003433843","203.5905897873486","499.5849057347551"
"","canvas-keyboard-response","15","119683","0.0-6.0-2.1","504","","","","","rectangles no change","null","null","","","critical","t","d","c","240","164","232.8713","160.6713","164","240","spektor","0.05","w","240","164","164","240","232.8713","160.6713","39360","39360","37415.7294","td","null","null","null","null","null","null","[1,2]","511.5661003433843","203.5905897873486","499.5849057347551"
"","canvas-keyboard-response","16","121020","0.0-6.0-3.1","504","","","","","rectangles with change","null","null","","","critical","t","d","c","240","164","232.8713","160.6713","164","240","spektor","0.05","w","240","164","164","240","232.8713","160.6713","39360","39360","37415.7294","td","null","null","null","null","null","null","[1,2]","511.5661003433843","203.5905897873486","499.5849057347551"
"","canvas-keyboard-response","17","121040","0.0-6.0-4.1","504","","","","","clear_screen","null","null","","","critical","t","d","c","240","164","232.8713","160.6713","164","240","spektor","0.05","w","240","164","164","240","232.8713","160.6713","39360","39360","37415.7294","td","null","null","null","null","null","null","[1,2]","511.5661003433843","203.5905897873486","499.5849057347551"
"","canvas-keyboard-response","18","124393","0.0-6.0-5.1","504","","","","","make choice","3342","1","","","critical","t","d","c","240","164","232.8713","160.6713","164","240","spektor","0.05","w","240","164","164","240","232.8713","160.6713","39360","39360","37415.7294","td","null","null","null","null","null","null","[1,2]","","",""
"","canvas-keyboard-response","19","124412","0.0-6.0-6.1","504","","","","","clear_screen","null","null","","","critical","t","d","c","240","164","232.8713","160.6713","164","240","spektor","0.05","w","240","164","164","240","232.8713","160.6713","39360","39360","37415.7294","td","null","null","null","null","null","null","[1,2]","","",""
"","canvas-keyboard-response","20","124614","0.0-6.0-0.2","504","","","","","pre trial waiting period","null","null","","","critical","t","d","c","164","240","162.6685","237.1485","240","164","spektor","0.02","h","164","240","240","164","162.6685","237.1485","39360","39360","38576.5967","dc","null","null","null","null","null","null","[2,3]","494.6685421817533","116.50645691743873","530.6853290438512"
"","canvas-keyboard-response","21","124633","0.0-6.0-1.2","504","","","","","clear_screen","null","null","","","critical","t","d","c","164","240","162.6685","237.1485","240","164","spektor","0.02","h","164","240","240","164","162.6685","237.1485","39360","39360","38576.5967","dc","null","null","null","null","null","null","[2,3]","494.6685421817533","116.50645691743873","530.6853290438512"
"","canvas-keyboard-response","22","125141","0.0-6.0-2.2","504","","","","","rectangles no change","null","null","","","critical","t","d","c","164","240","162.6685","237.1485","240","164","spektor","0.02","h","164","240","240","164","162.6685","237.1485","39360","39360","38576.5967","dc","null","null","null","null","null","null","[2,3]","494.6685421817533","116.50645691743873","530.6853290438512"
"","canvas-keyboard-response","23","126479","0.0-6.0-3.2","504","","","","","rectangles with change","null","null","","","critical","t","d","c","164","240","162.6685","237.1485","240","164","spektor","0.02","h","164","240","240","164","162.6685","237.1485","39360","39360","38576.5967","dc","null","null","null","null","null","null","[2,3]","494.6685421817533","116.50645691743873","530.6853290438512"
"","canvas-keyboard-response","24","126502","0.0-6.0-4.2","504","","","","","clear_screen","null","null","","","critical","t","d","c","164","240","162.6685","237.1485","240","164","spektor","0.02","h","164","240","240","164","162.6685","237.1485","39360","39360","38576.5967","dc","null","null","null","null","null","null","[2,3]","494.6685421817533","116.50645691743873","530.6853290438512"
"","canvas-keyboard-response","25","127929","0.0-6.0-5.2","504","","","","","make choice","1421","3","","","critical","t","d","c","164","240","162.6685","237.1485","240","164","spektor","0.02","h","164","240","240","164","162.6685","237.1485","39360","39360","38576.5967","dc","null","null","null","null","null","null","[2,3]","","",""
"","canvas-keyboard-response","26","127948","0.0-6.0-6.2","504","","","","","clear_screen","null","null","","","critical","t","d","c","164","240","162.6685","237.1485","240","164","spektor","0.02","h","164","240","240","164","162.6685","237.1485","39360","39360","38576.5967","dc","null","null","null","null","null","null","[2,3]","","",""
"","canvas-keyboard-response","27","128149","0.0-6.0-0.3","504","","","","","pre trial waiting period","null","null","","","critical","t","c","d","164","240","240","164","154.6796","220.0396","trueblood","0.14","h","164","240","240","164","154.6796","220.0396","39360","39360","34035.6388","tc","null","null","null","null","null","null","[1,2]","420.86018074428597","509.0720286087767","460.32150563534134"
"","canvas-keyboard-response","28","128170","0.0-6.0-1.3","504","","","","","clear_screen","null","null","","","critical","t","c","d","164","240","240","164","154.6796","220.0396","trueblood","0.14","h","164","240","240","164","154.6796","220.0396","39360","39360","34035.6388","tc","null","null","null","null","null","null","[1,2]","420.86018074428597","509.0720286087767","460.32150563534134"
"","canvas-keyboard-response","29","128676","0.0-6.0-2.3","504","","","","","rectangles no change","null","null","","","critical","t","c","d","164","240","240","164","154.6796","220.0396","trueblood","0.14","h","164","240","240","164","154.6796","220.0396","39360","39360","34035.6388","tc","null","null","null","null","null","null","[1,2]","420.86018074428597","509.0720286087767","460.32150563534134"
"","canvas-keyboard-response","30","130015","0.0-6.0-3.3","504","","","","","rectangles with change","null","null","","","critical","t","c","d","164","240","240","164","154.6796","220.0396","trueblood","0.14","h","164","240","240","164","154.6796","220.0396","39360","39360","34035.6388","tc","null","null","null","null","null","null","[1,2]","420.86018074428597","509.0720286087767","460.32150563534134"
"","canvas-keyboard-response","31","130037","0.0-6.0-4.3","504","","","","","clear_screen","null","null","","","critical","t","c","d","164","240","240","164","154.6796","220.0396","trueblood","0.14","h","164","240","240","164","154.6796","220.0396","39360","39360","34035.6388","tc","null","null","null","null","null","null","[1,2]","420.86018074428597","509.0720286087767","460.32150563534134"
"","canvas-keyboard-response","32","131017","0.0-6.0-5.3","504","","","","","make choice","972","2","","","critical","t","c","d","164","240","240","164","154.6796","220.0396","trueblood","0.14","h","164","240","240","164","154.6796","220.0396","39360","39360","34035.6388","tc","null","null","null","null","null","null","[1,2]","","",""
"","canvas-keyboard-response","33","131035","0.0-6.0-6.3","504","","","","","clear_screen","null","null","","","critical","t","c","d","164","240","240","164","154.6796","220.0396","trueblood","0.14","h","164","240","240","164","154.6796","220.0396","39360","39360","34035.6388","tc","null","null","null","null","null","null","[1,2]","","",""
"","canvas-keyboard-response","34","131236","0.0-6.0-0.4","504","","","","","pre trial waiting period","null","null","","","critical","c","t","d","164","240","240","164","240","164","spektor","0","w","240","164","164","240","240","164","39360","39360","39360","td","null","null","null","null","null","null","[2,3]","474.16961413025393","198.29503704743178","536.9891209878143"
"","canvas-keyboard-response","35","131257","0.0-6.0-1.4","504","","","","","clear_screen","null","null","","","critical","c","t","d","164","240","240","164","240","164","spektor","0","w","240","164","164","240","240","164","39360","39360","39360","td","null","null","null","null","null","null","[2,3]","474.16961413025393","198.29503704743178","536.9891209878143"
"","canvas-keyboard-response","36","131766","0.0-6.0-2.4","504","","","","","rectangles no change","null","null","","","critical","c","t","d","164","240","240","164","240","164","spektor","0","w","240","164","164","240","240","164","39360","39360","39360","td","null","null","null","null","null","null","[2,3]","474.16961413025393","198.29503704743178","536.9891209878143"
"","canvas-keyboard-response","37","133105","0.0-6.0-3.4","504","","","","","rectangles with change","null","null","","","critical","c","t","d","164","240","240","164","240","164","spektor","0","w","240","164","164","240","240","164","39360","39360","39360","td","null","null","null","null","null","null","[2,3]","474.16961413025393","198.29503704743178","536.9891209878143"
"","canvas-keyboard-response","38","133126","0.0-6.0-4.4","504","","","","","clear_screen","null","null","","","critical","c","t","d","164","240","240","164","240","164","spektor","0","w","240","164","164","240","240","164","39360","39360","39360","td","null","null","null","null","null","null","[2,3]","474.16961413025393","198.29503704743178","536.9891209878143"
"","canvas-keyboard-response","39","135233","0.0-6.0-5.4","504","","","","","make choice","2101","3","","","critical","c","t","d","164","240","240","164","240","164","spektor","0","w","240","164","164","240","240","164","39360","39360","39360","td","null","null","null","null","null","null","[2,3]","","",""
"","canvas-keyboard-response","40","135251","0.0-6.0-6.4","504","","","","","clear_screen","null","null","","","critical","c","t","d","164","240","240","164","240","164","spektor","0","w","240","164","164","240","240","164","39360","39360","39360","td","null","null","null","null","null","null","[2,3]","","",""
"","canvas-keyboard-response","41","135453","0.0-6.0-0.5","504","","","","","pre trial waiting period","null","null","","","catch","l","sw","sh","184","274","140","218","222","184","spektor","null","null","null","null","null","null","null","null","null","null","null","","180","200","260","200","36000","52000","[1,2]","487.0472755887021","118.07404390138902","521.676369137507"
"","canvas-keyboard-response","42","135474","0.0-6.0-1.5","504","","","","","clear_screen","null","null","","","catch","l","sw","sh","184","274","140","218","222","184","spektor","null","null","null","null","null","null","null","null","null","null","null","","180","200","260","200","36000","52000","[1,2]","487.0472755887021","118.07404390138902","521.676369137507"
"","canvas-keyboard-response","43","135983","0.0-6.0-2.5","504","","","","","rectangles no change","null","null","","","catch","l","sw","sh","184","274","140","218","222","184","spektor","null","null","null","null","null","null","null","null","null","null","null","","180","200","260","200","36000","52000","[1,2]","487.0472755887021","118.07404390138902","521.676369137507"
"","canvas-keyboard-response","44","137322","0.0-6.0-3.5","504","","","","","rectangles with change","null","null","","","catch","l","sw","sh","184","274","140","218","222","184","spektor","null","null","null","null","null","null","null","null","null","null","null","","180","200","260","200","36000","52000","[1,2]","487.0472755887021","118.07404390138902","521.676369137507"
"","canvas-keyboard-response","45","137345","0.0-6.0-4.5","504","","","","","clear_screen","null","null","","","catch","l","sw","sh","184","274","140","218","222","184","spektor","null","null","null","null","null","null","null","null","null","null","null","","180","200","260","200","36000","52000","[1,2]","487.0472755887021","118.07404390138902","521.676369137507"
"","canvas-keyboard-response","46","138279","0.0-6.0-5.5","504","","","","","make choice","927","1","","","catch","l","sw","sh","184","274","140","218","222","184","spektor","null","null","null","null","null","null","null","null","null","null","null","","180","200","260","200","36000","52000","[1,2]","","",""
"","canvas-keyboard-response","47","138295","0.0-6.0-6.5","504","","","","","clear_screen","null","null","","","catch","l","sw","sh","184","274","140","218","222","184","spektor","null","null","null","null","null","null","null","null","null","null","null","","180","200","260","200","36000","52000","[1,2]","","",""
"","canvas-keyboard-response","48","138495","0.0-6.0-0.6","504","","","","","pre trial waiting period","null","null","","","catch","l","sh","sw","239","170","239","186","184","236","spektor","null","null","null","null","null","null","null","null","null","null","null","","180","200","260","200","36000","52000","[1,2]","508.57875999344634","182.66766497365614","494.1541329909988"
"","canvas-keyboard-response","49","138517","0.0-6.0-1.6","504","","","","","clear_screen","null","null","","","catch","l","sh","sw","239","170","239","186","184","236","spektor","null","null","null","null","null","null","null","null","null","null","null","","180","200","260","200","36000","52000","[1,2]","508.57875999344634","182.66766497365614","494.1541329909988"
"","canvas-keyboard-response","50","139025","0.0-6.0-2.6","504","","","","","rectangles no change","null","null","","","catch","l","sh","sw","239","170","239","186","184","236","spektor","null","null","null","null","null","null","null","null","null","null","null","","180","200","260","200","36000","52000","[1,2]","508.57875999344634","182.66766497365614","494.1541329909988"
"","canvas-keyboard-response","51","140363","0.0-6.0-3.6","504","","","","","rectangles with change","null","null","","","catch","l","sh","sw","239","170","239","186","184","236","spektor","null","null","null","null","null","null","null","null","null","null","null","","180","200","260","200","36000","52000","[1,2]","508.57875999344634","182.66766497365614","494.1541329909988"
"","canvas-keyboard-response","52","140383","0.0-6.0-4.6","504","","","","","clear_screen","null","null","","","catch","l","sh","sw","239","170","239","186","184","236","spektor","null","null","null","null","null","null","null","null","null","null","null","","180","200","260","200","36000","52000","[1,2]","508.57875999344634","182.66766497365614","494.1541329909988"
"","canvas-keyboard-response","53","141729","0.0-6.0-5.6","504","","","","","make choice","1340","2","","","catch","l","sh","sw","239","170","239","186","184","236","spektor","null","null","null","null","null","null","null","null","null","null","null","","180","200","260","200","36000","52000","[1,2]","","",""
"","canvas-keyboard-response","54","141747","0.0-6.0-6.6","504","","","","","clear_screen","null","null","","","catch","l","sh","sw","239","170","239","186","184","236","spektor","null","null","null","null","null","null","null","null","null","null","null","","180","200","260","200","36000","52000","[1,2]","","",""
"","canvas-keyboard-response","55","141948","0.0-6.0-0.7","504","","","","","pre trial waiting period","null","null","","","critical","d","c","t","154.6796","220.0396","240","164","164","240","spektor","0.14","h","164","240","240","164","154.6796","220.0396","39360","39360","34035.6388","tc","null","null","null","null","null","null","[3,2]","469.5819039206214","170.32446902907964","493.5911883175169"
"","canvas-keyboard-response","56","141971","0.0-6.0-1.7","504","","","","","clear_screen","null","null","","","critical","d","c","t","154.6796","220.0396","240","164","164","240","spektor","0.14","h","164","240","240","164","154.6796","220.0396","39360","39360","34035.6388","tc","null","null","null","null","null","null","[3,2]","469.5819039206214","170.32446902907964","493.5911883175169"
"","canvas-keyboard-response","57","142481","0.0-6.0-2.7","504","","","","","rectangles no change","null","null","","","critical","d","c","t","154.6796","220.0396","240","164","164","240","spektor","0.14","h","164","240","240","164","154.6796","220.0396","39360","39360","34035.6388","tc","null","null","null","null","null","null","[3,2]","469.5819039206214","170.32446902907964","493.5911883175169"
"","canvas-keyboard-response","58","143821","0.0-6.0-3.7","504","","","","","rectangles with change","null","null","","","critical","d","c","t","154.6796","220.0396","240","164","164","240","spektor","0.14","h","164","240","240","164","154.6796","220.0396","39360","39360","34035.6388","tc","null","null","null","null","null","null","[3,2]","469.5819039206214","170.32446902907964","493.5911883175169"
"","canvas-keyboard-response","59","143844","0.0-6.0-4.7","504","","","","","clear_screen","null","null","","","critical","d","c","t","154.6796","220.0396","240","164","164","240","spektor","0.14","h","164","240","240","164","154.6796","220.0396","39360","39360","34035.6388","tc","null","null","null","null","null","null","[3,2]","469.5819039206214","170.32446902907964","493.5911883175169"
"","canvas-keyboard-response","60","145193","0.0-6.0-5.7","504","","","","","make choice","1343","2","","","critical","d","c","t","154.6796","220.0396","240","164","164","240","spektor","0.14","h","164","240","240","164","154.6796","220.0396","39360","39360","34035.6388","tc","null","null","null","null","null","null","[3,2]","","",""
"","canvas-keyboard-response","61","145212","0.0-6.0-6.7","504","","","","","clear_screen","null","null","","","critical","d","c","t","154.6796","220.0396","240","164","164","240","spektor","0.14","h","164","240","240","164","154.6796","220.0396","39360","39360","34035.6388","tc","null","null","null","null","null","null","[3,2]","","",""
"","canvas-keyboard-response","62","145413","0.0-6.0-0.8","504","","","","","pre trial waiting period","null","null","","","catch","l","sw","sh","161","223","213","172","239","205","spektor","null","null","null","null","null","null","null","null","null","null","null","","180","200","260","200","36000","52000","[1,3]","505.47483421036185","183.25693826250537","483.77108400329223"
"","canvas-keyboard-response","63","145434","0.0-6.0-1.8","504","","","","","clear_screen","null","null","","","catch","l","sw","sh","161","223","213","172","239","205","spektor","null","null","null","null","null","null","null","null","null","null","null","","180","200","260","200","36000","52000","[1,3]","505.47483421036185","183.25693826250537","483.77108400329223"
"","canvas-keyboard-response","64","145941","0.0-6.0-2.8","504","","","","","rectangles no change","null","null","","","catch","l","sw","sh","161","223","213","172","239","205","spektor","null","null","null","null","null","null","null","null","null","null","null","","180","200","260","200","36000","52000","[1,3]","505.47483421036185","183.25693826250537","483.77108400329223"
"","canvas-keyboard-response","65","147277","0.0-6.0-3.8","504","","","","","rectangles with change","null","null","","","catch","l","sw","sh","161","223","213","172","239","205","spektor","null","null","null","null","null","null","null","null","null","null","null","","180","200","260","200","36000","52000","[1,3]","505.47483421036185","183.25693826250537","483.77108400329223"
"","canvas-keyboard-response","66","147295","0.0-6.0-4.8","504","","","","","clear_screen","null","null","","","catch","l","sw","sh","161","223","213","172","239","205","spektor","null","null","null","null","null","null","null","null","null","null","null","","180","200","260","200","36000","52000","[1,3]","505.47483421036185","183.25693826250537","483.77108400329223"
"","canvas-keyboard-response","67","148241","0.0-6.0-5.8","504","","","","","make choice","938","3","","","catch","l","sw","sh","161","223","213","172","239","205","spektor","null","null","null","null","null","null","null","null","null","null","null","","180","200","260","200","36000","52000","[1,3]","","",""
"","canvas-keyboard-response","68","148261","0.0-6.0-6.8","504","","","","","clear_screen","null","null","","","catch","l","sw","sh","161","223","213","172","239","205","spektor","null","null","null","null","null","null","null","null","null","null","null","","180","200","260","200","36000","52000","[1,3]","","",""
"","canvas-keyboard-response","69","148461","0.0-6.0-0.9","504","","","","","pre trial waiting period","null","null","","","critical","t","c","d","164","240","240","164","160.6713","232.8713","spektor","0.05","h","164","240","240","164","160.6713","232.8713","39360","39360","37415.7294","td","null","null","null","null","null","null","[1,3]","481.9385870677493","191.0875374884896","481.8965274248907"
"","canvas-keyboard-response","70","148481","0.0-6.0-1.9","504","","","","","clear_screen","null","null","","","critical","t","c","d","164","240","240","164","160.6713","232.8713","spektor","0.05","h","164","240","240","164","160.6713","232.8713","39360","39360","37415.7294","td","null","null","null","null","null","null","[1,3]","481.9385870677493","191.0875374884896","481.8965274248907"
"","canvas-keyboard-response","71","148990","0.0-6.0-2.9","504","","","","","rectangles no change","null","null","","","critical","t","c","d","164","240","240","164","160.6713","232.8713","spektor","0.05","h","164","240","240","164","160.6713","232.8713","39360","39360","37415.7294","td","null","null","null","null","null","null","[1,3]","481.9385870677493","191.0875374884896","481.8965274248907"
"","canvas-keyboard-response","72","150327","0.0-6.0-3.9","504","","","","","rectangles with change","null","null","","","critical","t","c","d","164","240","240","164","160.6713","232.8713","spektor","0.05","h","164","240","240","164","160.6713","232.8713","39360","39360","37415.7294","td","null","null","null","null","null","null","[1,3]","481.9385870677493","191.0875374884896","481.8965274248907"
"","canvas-keyboard-response","73","150343","0.0-6.0-4.9","504","","","","","clear_screen","null","null","","","critical","t","c","d","164","240","240","164","160.6713","232.8713","spektor","0.05","h","164","240","240","164","160.6713","232.8713","39360","39360","37415.7294","td","null","null","null","null","null","null","[1,3]","481.9385870677493","191.0875374884896","481.8965274248907"
"","canvas-keyboard-response","74","151362","0.0-6.0-5.9","504","","","","","make choice","1009","1","","","critical","t","c","d","164","240","240","164","160.6713","232.8713","spektor","0.05","h","164","240","240","164","160.6713","232.8713","39360","39360","37415.7294","td","null","null","null","null","null","null","[1,3]","","",""
"","canvas-keyboard-response","75","151382","0.0-6.0-6.9","504","","","","","clear_screen","null","null","","","critical","t","c","d","164","240","240","164","160.6713","232.8713","spektor","0.05","h","164","240","240","164","160.6713","232.8713","39360","39360","37415.7294","td","null","null","null","null","null","null","[1,3]","","",""
"","canvas-keyboard-response","76","151583","0.0-6.0-0.10","504","","","","","pre trial waiting period","null","null","","","critical","d","t","c","162.6685","237.1485","164","240","240","164","trueblood","0.02","h","164","240","240","164","162.6685","237.1485","39360","39360","38576.5967","td","null","null","null","null","null","null","[2,1]","433.93832719143563","448.7263778154222","509.008021991687"
"","canvas-keyboard-response","77","151606","0.0-6.0-1.10","504","","","","","clear_screen","null","null","","","critical","d","t","c","162.6685","237.1485","164","240","240","164","trueblood","0.02","h","164","240","240","164","162.6685","237.1485","39360","39360","38576.5967","td","null","null","null","null","null","null","[2,1]","433.93832719143563","448.7263778154222","509.008021991687"
"","canvas-keyboard-response","78","152114","0.0-6.0-2.10","504","","","","","rectangles no change","null","null","","","critical","d","t","c","162.6685","237.1485","164","240","240","164","trueblood","0.02","h","164","240","240","164","162.6685","237.1485","39360","39360","38576.5967","td","null","null","null","null","null","null","[2,1]","433.93832719143563","448.7263778154222","509.008021991687"
"","canvas-keyboard-response","79","153449","0.0-6.0-3.10","504","","","","","rectangles with change","null","null","","","critical","d","t","c","162.6685","237.1485","164","240","240","164","trueblood","0.02","h","164","240","240","164","162.6685","237.1485","39360","39360","38576.5967","td","null","null","null","null","null","null","[2,1]","433.93832719143563","448.7263778154222","509.008021991687"
"","canvas-keyboard-response","80","153468","0.0-6.0-4.10","504","","","","","clear_screen","null","null","","","critical","d","t","c","162.6685","237.1485","164","240","240","164","trueblood","0.02","h","164","240","240","164","162.6685","237.1485","39360","39360","38576.5967","td","null","null","null","null","null","null","[2,1]","433.93832719143563","448.7263778154222","509.008021991687"
"","canvas-keyboard-response","81","154417","0.0-6.0-5.10","504","","","","","make choice","940","1","","","critical","d","t","c","162.6685","237.1485","164","240","240","164","trueblood","0.02","h","164","240","240","164","162.6685","237.1485","39360","39360","38576.5967","td","null","null","null","null","null","null","[2,1]","","",""
"","canvas-keyboard-response","82","154438","0.0-6.0-6.10","504","","","","","clear_screen","null","null","","","critical","d","t","c","162.6685","237.1485","164","240","240","164","trueblood","0.02","h","164","240","240","164","162.6685","237.1485","39360","39360","38576.5967","td","null","null","null","null","null","null","[2,1]","","",""
"","canvas-keyboard-response","83","154639","0.0-6.0-0.11","504","","","","","pre trial waiting period","null","null","","","critical","c","t","d","164","240","240","164","232.8713","160.6713","trueblood","0.05","w","240","164","164","240","232.8713","160.6713","39360","39360","37415.7294","tc","null","null","null","null","null","null","[2,1]","455.69820824335403","514.1458186522964","514.9576624519178"
"","canvas-keyboard-response","84","154662","0.0-6.0-1.11","504","","","","","clear_screen","null","null","","","critical","c","t","d","164","240","240","164","232.8713","160.6713","trueblood","0.05","w","240","164","164","240","232.8713","160.6713","39360","39360","37415.7294","tc","null","null","null","null","null","null","[2,1]","455.69820824335403","514.1458186522964","514.9576624519178"
"","canvas-keyboard-response","85","155171","0.0-6.0-2.11","504","","","","","rectangles no change","null","null","","","critical","c","t","d","164","240","240","164","232.8713","160.6713","trueblood","0.05","w","240","164","164","240","232.8713","160.6713","39360","39360","37415.7294","tc","null","null","null","null","null","null","[2,1]","455.69820824335403","514.1458186522964","514.9576624519178"
"","canvas-keyboard-response","86","156507","0.0-6.0-3.11","504","","","","","rectangles with change","null","null","","","critical","c","t","d","164","240","240","164","232.8713","160.6713","trueblood","0.05","w","240","164","164","240","232.8713","160.6713","39360","39360","37415.7294","tc","null","null","null","null","null","null","[2,1]","455.69820824335403","514.1458186522964","514.9576624519178"
"","canvas-keyboard-response","87","156529","0.0-6.0-4.11","504","","","","","clear_screen","null","null","","","critical","c","t","d","164","240","240","164","232.8713","160.6713","trueblood","0.05","w","240","164","164","240","232.8713","160.6713","39360","39360","37415.7294","tc","null","null","null","null","null","null","[2,1]","455.69820824335403","514.1458186522964","514.9576624519178"
"","canvas-keyboard-response","88","157152","0.0-6.0-5.11","504","","","","","make choice","617","2","","","critical","c","t","d","164","240","240","164","232.8713","160.6713","trueblood","0.05","w","240","164","164","240","232.8713","160.6713","39360","39360","37415.7294","tc","null","null","null","null","null","null","[2,1]","","",""
"","canvas-keyboard-response","89","157174","0.0-6.0-6.11","504","","","","","clear_screen","null","null","","","critical","c","t","d","164","240","240","164","232.8713","160.6713","trueblood","0.05","w","240","164","164","240","232.8713","160.6713","39360","39360","37415.7294","tc","null","null","null","null","null","null","[2,1]","","",""
"","canvas-keyboard-response","90","157374","0.0-6.0-0.12","504","","","","","pre trial waiting period","null","null","","","critical","d","t","c","232.8713","160.6713","240","164","164","240","trueblood","0.05","w","240","164","164","240","232.8713","160.6713","39360","39360","37415.7294","td","null","null","null","null","null","null","[2,1]","498.954407964474","477.93998591830444","421.09728929621673"
"","canvas-keyboard-response","91","157394","0.0-6.0-1.12","504","","","","","clear_screen","null","null","","","critical","d","t","c","232.8713","160.6713","240","164","164","240","trueblood","0.05","w","240","164","164","240","232.8713","160.6713","39360","39360","37415.7294","td","null","null","null","null","null","null","[2,1]","498.954407964474","477.93998591830444","421.09728929621673"
"","canvas-keyboard-response","92","157902","0.0-6.0-2.12","504","","","","","rectangles no change","null","null","","","critical","d","t","c","232.8713","160.6713","240","164","164","240","trueblood","0.05","w","240","164","164","240","232.8713","160.6713","39360","39360","37415.7294","td","null","null","null","null","null","null","[2,1]","498.954407964474","477.93998591830444","421.09728929621673"
"","canvas-keyboard-response","93","159240","0.0-6.0-3.12","504","","","","","rectangles with change","null","null","","","critical","d","t","c","232.8713","160.6713","240","164","164","240","trueblood","0.05","w","240","164","164","240","232.8713","160.6713","39360","39360","37415.7294","td","null","null","null","null","null","null","[2,1]","498.954407964474","477.93998591830444","421.09728929621673"
"","canvas-keyboard-response","94","159260","0.0-6.0-4.12","504","","","","","clear_screen","null","null","","","critical","d","t","c","232.8713","160.6713","240","164","164","240","trueblood","0.05","w","240","164","164","240","232.8713","160.6713","39360","39360","37415.7294","td","null","null","null","null","null","null","[2,1]","498.954407964474","477.93998591830444","421.09728929621673"
"","canvas-keyboard-response","95","160345","0.0-6.0-5.12","504","","","","","make choice","1075","2","","","critical","d","t","c","232.8713","160.6713","240","164","164","240","trueblood","0.05","w","240","164","164","240","232.8713","160.6713","39360","39360","37415.7294","td","null","null","null","null","null","null","[2,1]","","",""
"","canvas-keyboard-response","96","160364","0.0-6.0-6.12","504","","","","","clear_screen","null","null","","","critical","d","t","c","232.8713","160.6713","240","164","164","240","trueblood","0.05","w","240","164","164","240","232.8713","160.6713","39360","39360","37415.7294","td","null","null","null","null","null","null","[2,1]","","",""
"","canvas-keyboard-response","97","160565","0.0-6.0-0.13","504","","","","","pre trial waiting period","null","null","","","critical","t","c","d","240","164","164","240","227.1683","158.0083","spektor","0.09","w","240","164","164","240","227.1683","158.0083","39360","39360","35894.4834","dc","null","null","null","null","null","null","[3,2]","499.53027067817044","157.26964242054336","512.8935656530793"
"","canvas-keyboard-response","98","160590","0.0-6.0-1.13","504","","","","","clear_screen","null","null","","","critical","t","c","d","240","164","164","240","227.1683","158.0083","spektor","0.09","w","240","164","164","240","227.1683","158.0083","39360","39360","35894.4834","dc","null","null","null","null","null","null","[3,2]","499.53027067817044","157.26964242054336","512.8935656530793"
"","canvas-keyboard-response","99","161098","0.0-6.0-2.13","504","","","","","rectangles no change","null","null","","","critical","t","c","d","240","164","164","240","227.1683","158.0083","spektor","0.09","w","240","164","164","240","227.1683","158.0083","39360","39360","35894.4834","dc","null","null","null","null","null","null","[3,2]","499.53027067817044","157.26964242054336","512.8935656530793"
"","canvas-keyboard-response","100","162438","0.0-6.0-3.13","504","","","","","rectangles with change","null","null","","","critical","t","c","d","240","164","164","240","227.1683","158.0083","spektor","0.09","w","240","164","164","240","227.1683","158.0083","39360","39360","35894.4834","dc","null","null","null","null","null","null","[3,2]","499.53027067817044","157.26964242054336","512.8935656530793"
"","canvas-keyboard-response","101","162456","0.0-6.0-4.13","504","","","","","clear_screen","null","null","","","critical","t","c","d","240","164","164","240","227.1683","158.0083","spektor","0.09","w","240","164","164","240","227.1683","158.0083","39360","39360","35894.4834","dc","null","null","null","null","null","null","[3,2]","499.53027067817044","157.26964242054336","512.8935656530793"
"","canvas-keyboard-response","102","163136","0.0-6.0-5.13","504","","","","","make choice","673","3","","","critical","t","c","d","240","164","164","240","227.1683","158.0083","spektor","0.09","w","240","164","164","240","227.1683","158.0083","39360","39360","35894.4834","dc","null","null","null","null","null","null","[3,2]","","",""
"","canvas-keyboard-response","103","163159","0.0-6.0-6.13","504","","","","","clear_screen","null","null","","","critical","t","c","d","240","164","164","240","227.1683","158.0083","spektor","0.09","w","240","164","164","240","227.1683","158.0083","39360","39360","35894.4834","dc","null","null","null","null","null","null","[3,2]","","",""
"","canvas-keyboard-response","104","163360","0.0-6.0-0.14","504","","","","","pre trial waiting period","null","null","","","critical","t","c","d","240","164","164","240","227.1683","158.0083","spektor","0.09","w","240","164","164","240","227.1683","158.0083","39360","39360","35894.4834","tc","null","null","null","null","null","null","[1,2]","499.6252988283638","110.66558421395315","537.2532319079261"
"","canvas-keyboard-response","105","163382","0.0-6.0-1.14","504","","","","","clear_screen","null","null","","","critical","t","c","d","240","164","164","240","227.1683","158.0083","spektor","0.09","w","240","164","164","240","227.1683","158.0083","39360","39360","35894.4834","tc","null","null","null","null","null","null","[1,2]","499.6252988283638","110.66558421395315","537.2532319079261"
"","canvas-keyboard-response","106","163888","0.0-6.0-2.14","504","","","","","rectangles no change","null","null","","","critical","t","c","d","240","164","164","240","227.1683","158.0083","spektor","0.09","w","240","164","164","240","227.1683","158.0083","39360","39360","35894.4834","tc","null","null","null","null","null","null","[1,2]","499.6252988283638","110.66558421395315","537.2532319079261"
"","canvas-keyboard-response","107","165226","0.0-6.0-3.14","504","","","","","rectangles with change","null","null","","","critical","t","c","d","240","164","164","240","227.1683","158.0083","spektor","0.09","w","240","164","164","240","227.1683","158.0083","39360","39360","35894.4834","tc","null","null","null","null","null","null","[1,2]","499.6252988283638","110.66558421395315","537.2532319079261"
"","canvas-keyboard-response","108","165247","0.0-6.0-4.14","504","","","","","clear_screen","null","null","","","critical","t","c","d","240","164","164","240","227.1683","158.0083","spektor","0.09","w","240","164","164","240","227.1683","158.0083","39360","39360","35894.4834","tc","null","null","null","null","null","null","[1,2]","499.6252988283638","110.66558421395315","537.2532319079261"
"","canvas-keyboard-response","109","166289","0.0-6.0-5.14","504","","","","","make choice","1036","1","","","critical","t","c","d","240","164","164","240","227.1683","158.0083","spektor","0.09","w","240","164","164","240","227.1683","158.0083","39360","39360","35894.4834","tc","null","null","null","null","null","null","[1,2]","","",""
"","canvas-keyboard-response","110","166310","0.0-6.0-6.14","504","","","","","clear_screen","null","null","","","critical","t","c","d","240","164","164","240","227.1683","158.0083","spektor","0.09","w","240","164","164","240","227.1683","158.0083","39360","39360","35894.4834","tc","null","null","null","null","null","null","[1,2]","","",""
"","canvas-keyboard-response","111","166511","0.0-6.0-0.15","504","","","","","pre trial waiting period","null","null","","","critical","c","t","d","240","164","164","240","164","240","spektor","0","h","164","240","240","164","164","240","39360","39360","39360","td","null","null","null","null","null","null","[2,3]","498.9784055300641","106.57791049493292","488.63381739119603"
"","canvas-keyboard-response","112","166532","0.0-6.0-1.15","504","","","","","clear_screen","null","null","","","critical","c","t","d","240","164","164","240","164","240","spektor","0","h","164","240","240","164","164","240","39360","39360","39360","td","null","null","null","null","null","null","[2,3]","498.9784055300641","106.57791049493292","488.63381739119603"
"","canvas-keyboard-response","113","167041","0.0-6.0-2.15","504","","","","","rectangles no change","null","null","","","critical","c","t","d","240","164","164","240","164","240","spektor","0","h","164","240","240","164","164","240","39360","39360","39360","td","null","null","null","null","null","null","[2,3]","498.9784055300641","106.57791049493292","488.63381739119603"
"","canvas-keyboard-response","114","168378","0.0-6.0-3.15","504","","","","","rectangles with change","null","null","","","critical","c","t","d","240","164","164","240","164","240","spektor","0","h","164","240","240","164","164","240","39360","39360","39360","td","null","null","null","null","null","null","[2,3]","498.9784055300641","106.57791049493292","488.63381739119603"
"","canvas-keyboard-response","115","168399","0.0-6.0-4.15","504","","","","","clear_screen","null","null","","","critical","c","t","d","240","164","164","240","164","240","spektor","0","h","164","240","240","164","164","240","39360","39360","39360","td","null","null","null","null","null","null","[2,3]","498.9784055300641","106.57791049493292","488.63381739119603"
"","canvas-keyboard-response","116","168777","0.0-6.0-5.15","504","","","","","make choice","371","3","","","critical","c","t","d","240","164","164","240","164","240","spektor","0","h","164","240","240","164","164","240","39360","39360","39360","td","null","null","null","null","null","null","[2,3]","","",""
"","canvas-keyboard-response","117","168798","0.0-6.0-6.15","504","","","","","clear_screen","null","null","","","critical","c","t","d","240","164","164","240","164","240","spektor","0","h","164","240","240","164","164","240","39360","39360","39360","td","null","null","null","null","null","null","[2,3]","","",""
"","canvas-keyboard-response","118","168999","0.0-6.0-0.16","504","","","","","pre trial waiting period","null","null","","","critical","t","d","c","240","164","237.1485","162.6685","164","240","spektor","0.02","w","240","164","164","240","237.1485","162.6685","39360","39360","38576.5967","tc","null","null","null","null","null","null","[1,3]","502.32965180902136","212.08523789656584","470.76891507461045"
"","canvas-keyboard-response","119","169022","0.0-6.0-1.16","504","","","","","clear_screen","null","null","","","critical","t","d","c","240","164","237.1485","162.6685","164","240","spektor","0.02","w","240","164","164","240","237.1485","162.6685","39360","39360","38576.5967","tc","null","null","null","null","null","null","[1,3]","502.32965180902136","212.08523789656584","470.76891507461045"
"","canvas-keyboard-response","120","169530","0.0-6.0-2.16","504","","","","","rectangles no change","null","null","","","critical","t","d","c","240","164","237.1485","162.6685","164","240","spektor","0.02","w","240","164","164","240","237.1485","162.6685","39360","39360","38576.5967","tc","null","null","null","null","null","null","[1,3]","502.32965180902136","212.08523789656584","470.76891507461045"
"","canvas-keyboard-response","121","170861","0.0-6.0-3.16","504","","","","","rectangles with change","null","null","","","critical","t","d","c","240","164","237.1485","162.6685","164","240","spektor","0.02","w","240","164","164","240","237.1485","162.6685","39360","39360","38576.5967","tc","null","null","null","null","null","null","[1,3]","502.32965180902136","212.08523789656584","470.76891507461045"
"","canvas-keyboard-response","122","170885","0.0-6.0-4.16","504","","","","","clear_screen","null","null","","","critical","t","d","c","240","164","237.1485","162.6685","164","240","spektor","0.02","w","240","164","164","240","237.1485","162.6685","39360","39360","38576.5967","tc","null","null","null","null","null","null","[1,3]","502.32965180902136","212.08523789656584","470.76891507461045"
"","canvas-keyboard-response","123","171345","0.0-6.0-5.16","504","","","","","make choice","452","1","","","critical","t","d","c","240","164","237.1485","162.6685","164","240","spektor","0.02","w","240","164","164","240","237.1485","162.6685","39360","39360","38576.5967","tc","null","null","null","null","null","null","[1,3]","","",""
"","canvas-keyboard-response","124","171366","0.0-6.0-6.16","504","","","","","clear_screen","null","null","","","critical","t","d","c","240","164","237.1485","162.6685","164","240","spektor","0.02","w","240","164","164","240","237.1485","162.6685","39360","39360","38576.5967","tc","null","null","null","null","null","null","[1,3]","","",""
"","canvas-keyboard-response","125","171567","0.0-6.0-0.17","504","","","","","pre trial waiting period","null","null","","","catch","sh","l","sw","208","140","250","203","198","166","spektor","null","null","null","null","null","null","null","null","null","null","null","","180","200","260","200","36000","52000","[2,3]","518.0465091301019","167.08846852700916","526.9767727118247"
"","canvas-keyboard-response","126","171587","0.0-6.0-1.17","504","","","","","clear_screen","null","null","","","catch","sh","l","sw","208","140","250","203","198","166","spektor","null","null","null","null","null","null","null","null","null","null","null","","180","200","260","200","36000","52000","[2,3]","518.0465091301019","167.08846852700916","526.9767727118247"
"","canvas-keyboard-response","127","172096","0.0-6.0-2.17","504","","","","","rectangles no change","null","null","","","catch","sh","l","sw","208","140","250","203","198","166","spektor","null","null","null","null","null","null","null","null","null","null","null","","180","200","260","200","36000","52000","[2,3]","518.0465091301019","167.08846852700916","526.9767727118247"
"","canvas-keyboard-response","128","173437","0.0-6.0-3.17","504","","","","","rectangles with change","null","null","","","catch","sh","l","sw","208","140","250","203","198","166","spektor","null","null","null","null","null","null","null","null","null","null","null","","180","200","260","200","36000","52000","[2,3]","518.0465091301019","167.08846852700916","526.9767727118247"
"","canvas-keyboard-response","129","173459","0.0-6.0-4.17","504","","","","","clear_screen","null","null","","","catch","sh","l","sw","208","140","250","203","198","166","spektor","null","null","null","null","null","null","null","null","null","null","null","","180","200","260","200","36000","52000","[2,3]","518.0465091301019","167.08846852700916","526.9767727118247"
"","canvas-keyboard-response","130","174010","0.0-6.0-5.17","504","","","","","make choice","544","2","","","catch","sh","l","sw","208","140","250","203","198","166","spektor","null","null","null","null","null","null","null","null","null","null","null","","180","200","260","200","36000","52000","[2,3]","","",""
"","canvas-keyboard-response","131","174028","0.0-6.0-6.17","504","","","","","clear_screen","null","null","","","catch","sh","l","sw","208","140","250","203","198","166","spektor","null","null","null","null","null","null","null","null","null","null","null","","180","200","260","200","36000","52000","[2,3]","","",""
"","canvas-keyboard-response","132","174229","0.0-6.0-0.18","504","","","","","pre trial waiting period","null","null","","","critical","t","d","c","240","164","220.0396","154.6796","164","240","spektor","0.14","w","240","164","164","240","220.0396","154.6796","39360","39360","34035.6388","tc","null","null","null","null","null","null","[1,3]","513.5857915218173","183.41117658385534","485.6230040757233"
"","canvas-keyboard-response","133","174253","0.0-6.0-1.18","504","","","","","clear_screen","null","null","","","critical","t","d","c","240","164","220.0396","154.6796","164","240","spektor","0.14","w","240","164","164","240","220.0396","154.6796","39360","39360","34035.6388","tc","null","null","null","null","null","null","[1,3]","513.5857915218173","183.41117658385534","485.6230040757233"
"","canvas-keyboard-response","134","174761","0.0-6.0-2.18","504","","","","","rectangles no change","null","null","","","critical","t","d","c","240","164","220.0396","154.6796","164","240","spektor","0.14","w","240","164","164","240","220.0396","154.6796","39360","39360","34035.6388","tc","null","null","null","null","null","null","[1,3]","513.5857915218173","183.41117658385534","485.6230040757233"
"","canvas-keyboard-response","135","176098","0.0-6.0-3.18","504","","","","","rectangles with change","null","null","","","critical","t","d","c","240","164","220.0396","154.6796","164","240","spektor","0.14","w","240","164","164","240","220.0396","154.6796","39360","39360","34035.6388","tc","null","null","null","null","null","null","[1,3]","513.5857915218173","183.41117658385534","485.6230040757233"
"","canvas-keyboard-response","136","176117","0.0-6.0-4.18","504","","","","","clear_screen","null","null","","","critical","t","d","c","240","164","220.0396","154.6796","164","240","spektor","0.14","w","240","164","164","240","220.0396","154.6796","39360","39360","34035.6388","tc","null","null","null","null","null","null","[1,3]","513.5857915218173","183.41117658385534","485.6230040757233"
"","canvas-keyboard-response","137","176865","0.0-6.0-5.18","504","","","","","make choice","742","1","","","critical","t","d","c","240","164","220.0396","154.6796","164","240","spektor","0.14","w","240","164","164","240","220.0396","154.6796","39360","39360","34035.6388","tc","null","null","null","null","null","null","[1,3]","","",""
"","canvas-keyboard-response","138","176886","0.0-6.0-6.18","504","","","","","clear_screen","null","null","","","critical","t","d","c","240","164","220.0396","154.6796","164","240","spektor","0.14","w","240","164","164","240","220.0396","154.6796","39360","39360","34035.6388","tc","null","null","null","null","null","null","[1,3]","","",""
"","canvas-keyboard-response","139","177086","0.0-6.0-0.19","504","","","","","pre trial waiting period","null","null","","","catch","sh","sw","l","193","218","154","220","171","254","trueblood","null","null","null","null","null","null","null","null","null","null","null","","180","200","260","200","36000","52000","[2,3]","466.75641825414056","462.6771194736694","430.42326576773934"
"","canvas-keyboard-response","140","177107","0.0-6.0-1.19","504","","","","","clear_screen","null","null","","","catch","sh","sw","l","193","218","154","220","171","254","trueblood","null","null","null","null","null","null","null","null","null","null","null","","180","200","260","200","36000","52000","[2,3]","466.75641825414056","462.6771194736694","430.42326576773934"
"","canvas-keyboard-response","141","177616","0.0-6.0-2.19","504","","","","","rectangles no change","null","null","","","catch","sh","sw","l","193","218","154","220","171","254","trueblood","null","null","null","null","null","null","null","null","null","null","null","","180","200","260","200","36000","52000","[2,3]","466.75641825414056","462.6771194736694","430.42326576773934"
"","canvas-keyboard-response","142","178954","0.0-6.0-3.19","504","","","","","rectangles with change","null","null","","","catch","sh","sw","l","193","218","154","220","171","254","trueblood","null","null","null","null","null","null","null","null","null","null","null","","180","200","260","200","36000","52000","[2,3]","466.75641825414056","462.6771194736694","430.42326576773934"
"","canvas-keyboard-response","143","178972","0.0-6.0-4.19","504","","","","","clear_screen","null","null","","","catch","sh","sw","l","193","218","154","220","171","254","trueblood","null","null","null","null","null","null","null","null","null","null","null","","180","200","260","200","36000","52000","[2,3]","466.75641825414056","462.6771194736694","430.42326576773934"
"","canvas-keyboard-response","144","179233","0.0-6.0-5.19","504","","","","","make choice","254","3","","","catch","sh","sw","l","193","218","154","220","171","254","trueblood","null","null","null","null","null","null","null","null","null","null","null","","180","200","260","200","36000","52000","[2,3]","","",""
"","canvas-keyboard-response","145","179251","0.0-6.0-6.19","504","","","","","clear_screen","null","null","","","catch","sh","sw","l","193","218","154","220","171","254","trueblood","null","null","null","null","null","null","null","null","null","null","null","","180","200","260","200","36000","52000","[2,3]","","",""
"","canvas-keyboard-response","146","179452","0.0-6.0-0.20","504","","","","","pre trial waiting period","null","null","","","critical","t","d","c","164","240","158.0083","227.1683","240","164","trueblood","0.09","h","164","240","240","164","158.0083","227.1683","39360","39360","35894.4834","tc","null","null","null","null","null","null","[1,3]","426.0497153739762","476.5175224242764","483.5747772003479"
"","canvas-keyboard-response","147","179466","0.0-6.0-1.20","504","","","","","clear_screen","null","null","","","critical","t","d","c","164","240","158.0083","227.1683","240","164","trueblood","0.09","h","164","240","240","164","158.0083","227.1683","39360","39360","35894.4834","tc","null","null","null","null","null","null","[1,3]","426.0497153739762","476.5175224242764","483.5747772003479"
"","canvas-keyboard-response","148","179973","0.0-6.0-2.20","504","","","","","rectangles no change","null","null","","","critical","t","d","c","164","240","158.0083","227.1683","240","164","trueblood","0.09","h","164","240","240","164","158.0083","227.1683","39360","39360","35894.4834","tc","null","null","null","null","null","null","[1,3]","426.0497153739762","476.5175224242764","483.5747772003479"
"","canvas-keyboard-response","149","181313","0.0-6.0-3.20","504","","","","","rectangles with change","null","null","","","critical","t","d","c","164","240","158.0083","227.1683","240","164","trueblood","0.09","h","164","240","240","164","158.0083","227.1683","39360","39360","35894.4834","tc","null","null","null","null","null","null","[1,3]","426.0497153739762","476.5175224242764","483.5747772003479"
"","canvas-keyboard-response","150","181336","0.0-6.0-4.20","504","","","","","clear_screen","null","null","","","critical","t","d","c","164","240","158.0083","227.1683","240","164","trueblood","0.09","h","164","240","240","164","158.0083","227.1683","39360","39360","35894.4834","tc","null","null","null","null","null","null","[1,3]","426.0497153739762","476.5175224242764","483.5747772003479"
"","canvas-keyboard-response","151","181761","0.0-6.0-5.20","504","","","","","make choice","419","3","","","critical","t","d","c","164","240","158.0083","227.1683","240","164","trueblood","0.09","h","164","240","240","164","158.0083","227.1683","39360","39360","35894.4834","tc","null","null","null","null","null","null","[1,3]","","",""
"","canvas-keyboard-response","152","181782","0.0-6.0-6.20","504","","","","","clear_screen","null","null","","","critical","t","d","c","164","240","158.0083","227.1683","240","164","trueblood","0.09","h","164","240","240","164","158.0083","227.1683","39360","39360","35894.4834","tc","null","null","null","null","null","null","[1,3]","","",""
"","canvas-keyboard-response","153","181983","0.0-6.0-0.21","504","","","","","pre trial waiting period","null","null","","","critical","c","t","d","164","240","240","164","240","164","trueblood","0","w","240","164","164","240","240","164","39360","39360","39360","dc","null","null","null","null","null","null","[3,1]","424.54040921219905","487.5566244953026","502.2826352178588"
"","canvas-keyboard-response","154","182007","0.0-6.0-1.21","504","","","","","clear_screen","null","null","","","critical","c","t","d","164","240","240","164","240","164","trueblood","0","w","240","164","164","240","240","164","39360","39360","39360","dc","null","null","null","null","null","null","[3,1]","424.54040921219905","487.5566244953026","502.2826352178588"
"","canvas-keyboard-response","155","182516","0.0-6.0-2.21","504","","","","","rectangles no change","null","null","","","critical","c","t","d","164","240","240","164","240","164","trueblood","0","w","240","164","164","240","240","164","39360","39360","39360","dc","null","null","null","null","null","null","[3,1]","424.54040921219905","487.5566244953026","502.2826352178588"
"","canvas-keyboard-response","156","183852","0.0-6.0-3.21","504","","","","","rectangles with change","null","null","","","critical","c","t","d","164","240","240","164","240","164","trueblood","0","w","240","164","164","240","240","164","39360","39360","39360","dc","null","null","null","null","null","null","[3,1]","424.54040921219905","487.5566244953026","502.2826352178588"
"","canvas-keyboard-response","157","183873","0.0-6.0-4.21","504","","","","","clear_screen","null","null","","","critical","c","t","d","164","240","240","164","240","164","trueblood","0","w","240","164","164","240","240","164","39360","39360","39360","dc","null","null","null","null","null","null","[3,1]","424.54040921219905","487.5566244953026","502.2826352178588"
"","canvas-keyboard-response","158","184513","0.0-6.0-5.21","504","","","","","make choice","633","3","","","critical","c","t","d","164","240","240","164","240","164","trueblood","0","w","240","164","164","240","240","164","39360","39360","39360","dc","null","null","null","null","null","null","[3,1]","","",""
"","canvas-keyboard-response","159","184531","0.0-6.0-6.21","504","","","","","clear_screen","null","null","","","critical","c","t","d","164","240","240","164","240","164","trueblood","0","w","240","164","164","240","240","164","39360","39360","39360","dc","null","null","null","null","null","null","[3,1]","","",""
"","canvas-keyboard-response","160","184732","0.0-6.0-0.22","504","","","","","pre trial waiting period","null","null","","","critical","c","d","t","240","164","164","240","164","240","spektor","0","h","164","240","240","164","164","240","39360","39360","39360","tc","null","null","null","null","null","null","[3,1]","529.5070492411418","137.79877716734643","479.103549954975"
"","canvas-keyboard-response","161","184751","0.0-6.0-1.22","504","","","","","clear_screen","null","null","","","critical","c","d","t","240","164","164","240","164","240","spektor","0","h","164","240","240","164","164","240","39360","39360","39360","tc","null","null","null","null","null","null","[3,1]","529.5070492411418","137.79877716734643","479.103549954975"
"","canvas-keyboard-response","162","185261","0.0-6.0-2.22","504","","","","","rectangles no change","null","null","","","critical","c","d","t","240","164","164","240","164","240","spektor","0","h","164","240","240","164","164","240","39360","39360","39360","tc","null","null","null","null","null","null","[3,1]","529.5070492411418","137.79877716734643","479.103549954975"
"","canvas-keyboard-response","163","186596","0.0-6.0-3.22","504","","","","","rectangles with change","null","null","","","critical","c","d","t","240","164","164","240","164","240","spektor","0","h","164","240","240","164","164","240","39360","39360","39360","tc","null","null","null","null","null","null","[3,1]","529.5070492411418","137.79877716734643","479.103549954975"
"","canvas-keyboard-response","164","186615","0.0-6.0-4.22","504","","","","","clear_screen","null","null","","","critical","c","d","t","240","164","164","240","164","240","spektor","0","h","164","240","240","164","164","240","39360","39360","39360","tc","null","null","null","null","null","null","[3,1]","529.5070492411418","137.79877716734643","479.103549954975"
"","canvas-keyboard-response","165","187361","0.0-6.0-5.22","504","","","","","make choice","740","1","","","critical","c","d","t","240","164","164","240","164","240","spektor","0","h","164","240","240","164","164","240","39360","39360","39360","tc","null","null","null","null","null","null","[3,1]","","",""
"","canvas-keyboard-response","166","187379","0.0-6.0-6.22","504","","","","","clear_screen","null","null","","","critical","c","d","t","240","164","164","240","164","240","spektor","0","h","164","240","240","164","164","240","39360","39360","39360","tc","null","null","null","null","null","null","[3,1]","","",""
"","canvas-keyboard-response","167","187580","0.0-6.0-0.23","504","","","","","pre trial waiting period","null","null","","","catch","sw","sh","l","180","200","230","148","230","222","trueblood","null","null","null","null","null","null","null","null","null","null","null","","180","200","260","200","36000","52000","[2,3]","493.2631187627873","510.3194618133368","456.60870844538"
"","canvas-keyboard-response","168","187602","0.0-6.0-1.23","504","","","","","clear_screen","null","null","","","catch","sw","sh","l","180","200","230","148","230","222","trueblood","null","null","null","null","null","null","null","null","null","null","null","","180","200","260","200","36000","52000","[2,3]","493.2631187627873","510.3194618133368","456.60870844538"
"","canvas-keyboard-response","169","188112","0.0-6.0-2.23","504","","","","","rectangles no change","null","null","","","catch","sw","sh","l","180","200","230","148","230","222","trueblood","null","null","null","null","null","null","null","null","null","null","null","","180","200","260","200","36000","52000","[2,3]","493.2631187627873","510.3194618133368","456.60870844538"
"","canvas-keyboard-response","170","189450","0.0-6.0-3.23","504","","","","","rectangles with change","null","null","","","catch","sw","sh","l","180","200","230","148","230","222","trueblood","null","null","null","null","null","null","null","null","null","null","null","","180","200","260","200","36000","52000","[2,3]","493.2631187627873","510.3194618133368","456.60870844538"
"","canvas-keyboard-response","171","189472","0.0-6.0-4.23","504","","","","","clear_screen","null","null","","","catch","sw","sh","l","180","200","230","148","230","222","trueblood","null","null","null","null","null","null","null","null","null","null","null","","180","200","260","200","36000","52000","[2,3]","493.2631187627873","510.3194618133368","456.60870844538"
"","canvas-keyboard-response","172","189865","0.0-6.0-5.23","504","","","","","make choice","387","3","","","catch","sw","sh","l","180","200","230","148","230","222","trueblood","null","null","null","null","null","null","null","null","null","null","null","","180","200","260","200","36000","52000","[2,3]","","",""
"","canvas-keyboard-response","173","189885","0.0-6.0-6.23","504","","","","","clear_screen","null","null","","","catch","sw","sh","l","180","200","230","148","230","222","trueblood","null","null","null","null","null","null","null","null","null","null","null","","180","200","260","200","36000","52000","[2,3]","","",""
"","canvas-keyboard-response","174","190086","0.0-6.0-0.24","504","","","","","pre trial waiting period","null","null","","","critical","c","d","t","164","240","227.1683","158.0083","240","164","spektor","0.09","w","240","164","164","240","227.1683","158.0083","39360","39360","35894.4834","td","null","null","null","null","null","null","[3,2]","461.7277810716476","182.26398193576236","502.6272051469874"
"","canvas-keyboard-response","175","190109","0.0-6.0-1.24","504","","","","","clear_screen","null","null","","","critical","c","d","t","164","240","227.1683","158.0083","240","164","spektor","0.09","w","240","164","164","240","227.1683","158.0083","39360","39360","35894.4834","td","null","null","null","null","null","null","[3,2]","461.7277810716476","182.26398193576236","502.6272051469874"
"","canvas-keyboard-response","176","190623","0.0-6.0-2.24","504","","","","","rectangles no change","null","null","","","critical","c","d","t","164","240","227.1683","158.0083","240","164","spektor","0.09","w","240","164","164","240","227.1683","158.0083","39360","39360","35894.4834","td","null","null","null","null","null","null","[3,2]","461.7277810716476","182.26398193576236","502.6272051469874"
"","canvas-keyboard-response","177","191962","0.0-6.0-3.24","504","","","","","rectangles with change","null","null","","","critical","c","d","t","164","240","227.1683","158.0083","240","164","spektor","0.09","w","240","164","164","240","227.1683","158.0083","39360","39360","35894.4834","td","null","null","null","null","null","null","[3,2]","461.7277810716476","182.26398193576236","502.6272051469874"
"","canvas-keyboard-response","178","191985","0.0-6.0-4.24","504","","","","","clear_screen","null","null","","","critical","c","d","t","164","240","227.1683","158.0083","240","164","spektor","0.09","w","240","164","164","240","227.1683","158.0083","39360","39360","35894.4834","td","null","null","null","null","null","null","[3,2]","461.7277810716476","182.26398193576236","502.6272051469874"
"","canvas-keyboard-response","179","192650","0.0-6.0-5.24","504","","","","","make choice","659","3","","","critical","c","d","t","164","240","227.1683","158.0083","240","164","spektor","0.09","w","240","164","164","240","227.1683","158.0083","39360","39360","35894.4834","td","null","null","null","null","null","null","[3,2]","","",""
"","canvas-keyboard-response","180","192670","0.0-6.0-6.24","504","","","","","clear_screen","null","null","","","critical","c","d","t","164","240","227.1683","158.0083","240","164","spektor","0.09","w","240","164","164","240","227.1683","158.0083","39360","39360","35894.4834","td","null","null","null","null","null","null","[3,2]","","",""
"","canvas-keyboard-response","181","192871","0.0-6.0-0.25","504","","","","","pre trial waiting period","null","null","","","critical","t","c","d","240","164","164","240","237.1485","162.6685","trueblood","0.02","w","240","164","164","240","237.1485","162.6685","39360","39360","38576.5967","tc","null","null","null","null","null","null","[1,2]","498.67524694173375","456.03029164914403","492.49414428367675"
"","canvas-keyboard-response","182","192892","0.0-6.0-1.25","504","","","","","clear_screen","null","null","","","critical","t","c","d","240","164","164","240","237.1485","162.6685","trueblood","0.02","w","240","164","164","240","237.1485","162.6685","39360","39360","38576.5967","tc","null","null","null","null","null","null","[1,2]","498.67524694173375","456.03029164914403","492.49414428367675"
"","canvas-keyboard-response","183","193400","0.0-6.0-2.25","504","","","","","rectangles no change","null","null","","","critical","t","c","d","240","164","164","240","237.1485","162.6685","trueblood","0.02","w","240","164","164","240","237.1485","162.6685","39360","39360","38576.5967","tc","null","null","null","null","null","null","[1,2]","498.67524694173375","456.03029164914403","492.49414428367675"
"","canvas-keyboard-response","184","194738","0.0-6.0-3.25","504","","","","","rectangles with change","null","null","","","critical","t","c","d","240","164","164","240","237.1485","162.6685","trueblood","0.02","w","240","164","164","240","237.1485","162.6685","39360","39360","38576.5967","tc","null","null","null","null","null","null","[1,2]","498.67524694173375","456.03029164914403","492.49414428367675"
"","canvas-keyboard-response","185","194755","0.0-6.0-4.25","504","","","","","clear_screen","null","null","","","critical","t","c","d","240","164","164","240","237.1485","162.6685","trueblood","0.02","w","240","164","164","240","237.1485","162.6685","39360","39360","38576.5967","tc","null","null","null","null","null","null","[1,2]","498.67524694173375","456.03029164914403","492.49414428367675"
"","canvas-keyboard-response","186","196137","0.0-6.0-5.25","504","","","","","make choice","1375","1","","","critical","t","c","d","240","164","164","240","237.1485","162.6685","trueblood","0.02","w","240","164","164","240","237.1485","162.6685","39360","39360","38576.5967","tc","null","null","null","null","null","null","[1,2]","","",""
"","canvas-keyboard-response","187","196158","0.0-6.0-6.25","504","","","","","clear_screen","null","null","","","critical","t","c","d","240","164","164","240","237.1485","162.6685","trueblood","0.02","w","240","164","164","240","237.1485","162.6685","39360","39360","38576.5967","tc","null","null","null","null","null","null","[1,2]","","",""
"","canvas-keyboard-response","188","196360","0.0-6.0-0.26","504","","","","","pre trial waiting period","null","null","","","critical","t","d","c","164","240","160.6713","232.8713","240","164","trueblood","0.05","h","164","240","240","164","160.6713","232.8713","39360","39360","37415.7294","dc","null","null","null","null","null","null","[2,3]","420.0364983621123","463.2627877340244","482.7684005160899"
"","canvas-keyboard-response","189","196382","0.0-6.0-1.26","504","","","","","clear_screen","null","null","","","critical","t","d","c","164","240","160.6713","232.8713","240","164","trueblood","0.05","h","164","240","240","164","160.6713","232.8713","39360","39360","37415.7294","dc","null","null","null","null","null","null","[2,3]","420.0364983621123","463.2627877340244","482.7684005160899"
"","canvas-keyboard-response","190","196891","0.0-6.0-2.26","504","","","","","rectangles no change","null","null","","","critical","t","d","c","164","240","160.6713","232.8713","240","164","trueblood","0.05","h","164","240","240","164","160.6713","232.8713","39360","39360","37415.7294","dc","null","null","null","null","null","null","[2,3]","420.0364983621123","463.2627877340244","482.7684005160899"
"","canvas-keyboard-response","191","198230","0.0-6.0-3.26","504","","","","","rectangles with change","null","null","","","critical","t","d","c","164","240","160.6713","232.8713","240","164","trueblood","0.05","h","164","240","240","164","160.6713","232.8713","39360","39360","37415.7294","dc","null","null","null","null","null","null","[2,3]","420.0364983621123","463.2627877340244","482.7684005160899"
"","canvas-keyboard-response","192","198254","0.0-6.0-4.26","504","","","","","clear_screen","null","null","","","critical","t","d","c","164","240","160.6713","232.8713","240","164","trueblood","0.05","h","164","240","240","164","160.6713","232.8713","39360","39360","37415.7294","dc","null","null","null","null","null","null","[2,3]","420.0364983621123","463.2627877340244","482.7684005160899"
"","canvas-keyboard-response","193","199177","0.0-6.0-5.26","504","","","","","make choice","918","2","","","critical","t","d","c","164","240","160.6713","232.8713","240","164","trueblood","0.05","h","164","240","240","164","160.6713","232.8713","39360","39360","37415.7294","dc","null","null","null","null","null","null","[2,3]","","",""
"","canvas-keyboard-response","194","199199","0.0-6.0-6.26","504","","","","","clear_screen","null","null","","","critical","t","d","c","164","240","160.6713","232.8713","240","164","trueblood","0.05","h","164","240","240","164","160.6713","232.8713","39360","39360","37415.7294","dc","null","null","null","null","null","null","[2,3]","","",""
"","canvas-keyboard-response","195","199400","0.0-6.0-0.27","504","","","","","pre trial waiting period","null","null","","","critical","c","d","t","240","164","154.6796","220.0396","164","240","spektor","0.14","h","164","240","240","164","154.6796","220.0396","39360","39360","34035.6388","dc","null","null","null","null","null","null","[2,1]","534.6853325780595","136.25968328864312","459.08166785010167"
"","canvas-keyboard-response","196","199423","0.0-6.0-1.27","504","","","","","clear_screen","null","null","","","critical","c","d","t","240","164","154.6796","220.0396","164","240","spektor","0.14","h","164","240","240","164","154.6796","220.0396","39360","39360","34035.6388","dc","null","null","null","null","null","null","[2,1]","534.6853325780595","136.25968328864312","459.08166785010167"
"","canvas-keyboard-response","197","199929","0.0-6.0-2.27","504","","","","","rectangles no change","null","null","","","critical","c","d","t","240","164","154.6796","220.0396","164","240","spektor","0.14","h","164","240","240","164","154.6796","220.0396","39360","39360","34035.6388","dc","null","null","null","null","null","null","[2,1]","534.6853325780595","136.25968328864312","459.08166785010167"
"","canvas-keyboard-response","198","201267","0.0-6.0-3.27","504","","","","","rectangles with change","null","null","","","critical","c","d","t","240","164","154.6796","220.0396","164","240","spektor","0.14","h","164","240","240","164","154.6796","220.0396","39360","39360","34035.6388","dc","null","null","null","null","null","null","[2,1]","534.6853325780595","136.25968328864312","459.08166785010167"
"","canvas-keyboard-response","199","201286","0.0-6.0-4.27","504","","","","","clear_screen","null","null","","","critical","c","d","t","240","164","154.6796","220.0396","164","240","spektor","0.14","h","164","240","240","164","154.6796","220.0396","39360","39360","34035.6388","dc","null","null","null","null","null","null","[2,1]","534.6853325780595","136.25968328864312","459.08166785010167"
"","canvas-keyboard-response","200","202153","0.0-6.0-5.27","504","","","","","make choice","861","1","","","critical","c","d","t","240","164","154.6796","220.0396","164","240","spektor","0.14","h","164","240","240","164","154.6796","220.0396","39360","39360","34035.6388","dc","null","null","null","null","null","null","[2,1]","","",""
"","canvas-keyboard-response","201","202174","0.0-6.0-6.27","504","","","","","clear_screen","null","null","","","critical","c","d","t","240","164","154.6796","220.0396","164","240","spektor","0.14","h","164","240","240","164","154.6796","220.0396","39360","39360","34035.6388","dc","null","null","null","null","null","null","[2,1]","","",""
"","canvas-keyboard-response","202","202375","0.0-6.0-0.28","504","","","","","pre trial waiting period","null","null","","","critical","t","c","d","164","240","240","164","162.6685","237.1485","trueblood","0.02","h","164","240","240","164","162.6685","237.1485","39360","39360","38576.5967","tc","null","null","null","null","null","null","[1,2]","433.08362630351786","480.3595338366483","444.984822329613"
"","canvas-keyboard-response","203","202395","0.0-6.0-1.28","504","","","","","clear_screen","null","null","","","critical","t","c","d","164","240","240","164","162.6685","237.1485","trueblood","0.02","h","164","240","240","164","162.6685","237.1485","39360","39360","38576.5967","tc","null","null","null","null","null","null","[1,2]","433.08362630351786","480.3595338366483","444.984822329613"
"","canvas-keyboard-response","204","202903","0.0-6.0-2.28","504","","","","","rectangles no change","null","null","","","critical","t","c","d","164","240","240","164","162.6685","237.1485","trueblood","0.02","h","164","240","240","164","162.6685","237.1485","39360","39360","38576.5967","tc","null","null","null","null","null","null","[1,2]","433.08362630351786","480.3595338366483","444.984822329613"
"","canvas-keyboard-response","205","204239","0.0-6.0-3.28","504","","","","","rectangles with change","null","null","","","critical","t","c","d","164","240","240","164","162.6685","237.1485","trueblood","0.02","h","164","240","240","164","162.6685","237.1485","39360","39360","38576.5967","tc","null","null","null","null","null","null","[1,2]","433.08362630351786","480.3595338366483","444.984822329613"
"","canvas-keyboard-response","206","204262","0.0-6.0-4.28","504","","","","","clear_screen","null","null","","","critical","t","c","d","164","240","240","164","162.6685","237.1485","trueblood","0.02","h","164","240","240","164","162.6685","237.1485","39360","39360","38576.5967","tc","null","null","null","null","null","null","[1,2]","433.08362630351786","480.3595338366483","444.984822329613"
"","canvas-keyboard-response","207","204993","0.0-6.0-5.28","504","","","","","make choice","727","2","","","critical","t","c","d","164","240","240","164","162.6685","237.1485","trueblood","0.02","h","164","240","240","164","162.6685","237.1485","39360","39360","38576.5967","tc","null","null","null","null","null","null","[1,2]","","",""
"","canvas-keyboard-response","208","205014","0.0-6.0-6.28","504","","","","","clear_screen","null","null","","","critical","t","c","d","164","240","240","164","162.6685","237.1485","trueblood","0.02","h","164","240","240","164","162.6685","237.1485","39360","39360","38576.5967","tc","null","null","null","null","null","null","[1,2]","","",""
"","canvas-keyboard-response","209","205215","0.0-6.0-0.29","504","","","","","pre trial waiting period","null","null","","","catch","sw","sh","l","180","200","231","170","186","238","trueblood","null","null","null","null","null","null","null","null","null","null","null","","180","200","260","200","36000","52000","[2,3]","465.4099350673991","494.90142368846233","450.90951440437897"
"","canvas-keyboard-response","210","205239","0.0-6.0-1.29","504","","","","","clear_screen","null","null","","","catch","sw","sh","l","180","200","231","170","186","238","trueblood","null","null","null","null","null","null","null","null","null","null","null","","180","200","260","200","36000","52000","[2,3]","465.4099350673991","494.90142368846233","450.90951440437897"
"","canvas-keyboard-response","211","205746","0.0-6.0-2.29","504","","","","","rectangles no change","null","null","","","catch","sw","sh","l","180","200","231","170","186","238","trueblood","null","null","null","null","null","null","null","null","null","null","null","","180","200","260","200","36000","52000","[2,3]","465.4099350673991","494.90142368846233","450.90951440437897"
"","canvas-keyboard-response","212","207079","0.0-6.0-3.29","504","","","","","rectangles with change","null","null","","","catch","sw","sh","l","180","200","231","170","186","238","trueblood","null","null","null","null","null","null","null","null","null","null","null","","180","200","260","200","36000","52000","[2,3]","465.4099350673991","494.90142368846233","450.90951440437897"
"","canvas-keyboard-response","213","207100","0.0-6.0-4.29","504","","","","","clear_screen","null","null","","","catch","sw","sh","l","180","200","231","170","186","238","trueblood","null","null","null","null","null","null","null","null","null","null","null","","180","200","260","200","36000","52000","[2,3]","465.4099350673991","494.90142368846233","450.90951440437897"
"","canvas-keyboard-response","214","207689","0.0-6.0-5.29","504","","","","","make choice","580","3","","","catch","sw","sh","l","180","200","231","170","186","238","trueblood","null","null","null","null","null","null","null","null","null","null","null","","180","200","260","200","36000","52000","[2,3]","","",""
"","canvas-keyboard-response","215","207707","0.0-6.0-6.29","504","","","","","clear_screen","null","null","","","catch","sw","sh","l","180","200","231","170","186","238","trueblood","null","null","null","null","null","null","null","null","null","null","null","","180","200","260","200","36000","52000","[2,3]","","",""
"","canvas-keyboard-response","216","207908","0.0-6.0-0.30","504","","","","","pre trial waiting period","null","null","","","catch","sh","sw","l","213","169","204","161","239","226","trueblood","null","null","null","null","null","null","null","null","null","null","null","","180","200","260","200","36000","52000","[1,3]","489.73522679565673","509.1597489071263","449.33801766657035"
"","canvas-keyboard-response","217","207928","0.0-6.0-1.30","504","","","","","clear_screen","null","null","","","catch","sh","sw","l","213","169","204","161","239","226","trueblood","null","null","null","null","null","null","null","null","null","null","null","","180","200","260","200","36000","52000","[1,3]","489.73522679565673","509.1597489071263","449.33801766657035"
"","canvas-keyboard-response","218","208437","0.0-6.0-2.30","504","","","","","rectangles no change","null","null","","","catch","sh","sw","l","213","169","204","161","239","226","trueblood","null","null","null","null","null","null","null","null","null","null","null","","180","200","260","200","36000","52000","[1,3]","489.73522679565673","509.1597489071263","449.33801766657035"
"","canvas-keyboard-response","219","209774","0.0-6.0-3.30","504","","","","","rectangles with change","null","null","","","catch","sh","sw","l","213","169","204","161","239","226","trueblood","null","null","null","null","null","null","null","null","null","null","null","","180","200","260","200","36000","52000","[1,3]","489.73522679565673","509.1597489071263","449.33801766657035"
"","canvas-keyboard-response","220","209794","0.0-6.0-4.30","504","","","","","clear_screen","null","null","","","catch","sh","sw","l","213","169","204","161","239","226","trueblood","null","null","null","null","null","null","null","null","null","null","null","","180","200","260","200","36000","52000","[1,3]","489.73522679565673","509.1597489071263","449.33801766657035"
"","canvas-keyboard-response","221","211241","0.0-6.0-5.30","504","","","","","make choice","1441","3","","","catch","sh","sw","l","213","169","204","161","239","226","trueblood","null","null","null","null","null","null","null","null","null","null","null","","180","200","260","200","36000","52000","[1,3]","","",""
"","canvas-keyboard-response","222","211261","0.0-6.0-6.30","504","","","","","clear_screen","null","null","","","catch","sh","sw","l","213","169","204","161","239","226","trueblood","null","null","null","null","null","null","null","null","null","null","null","","180","200","260","200","36000","52000","[1,3]","","",""
"","canvas-keyboard-response","223","211461","0.0-6.0-0.31","504","","","","","pre trial waiting period","null","null","","","catch","sh","l","sw","178","162","286","223","170","168","spektor","null","null","null","null","null","null","null","null","null","null","null","","180","200","260","200","36000","52000","[2,3]","513.7708239248728","169.5971621255845","495.74097978296925"
"","canvas-keyboard-response","224","211481","0.0-6.0-1.31","504","","","","","clear_screen","null","null","","","catch","sh","l","sw","178","162","286","223","170","168","spektor","null","null","null","null","null","null","null","null","null","null","null","","180","200","260","200","36000","52000","[2,3]","513.7708239248728","169.5971621255845","495.74097978296925"
"","canvas-keyboard-response","225","211991","0.0-6.0-2.31","504","","","","","rectangles no change","null","null","","","catch","sh","l","sw","178","162","286","223","170","168","spektor","null","null","null","null","null","null","null","null","null","null","null","","180","200","260","200","36000","52000","[2,3]","513.7708239248728","169.5971621255845","495.74097978296925"
"","canvas-keyboard-response","226","213327","0.0-6.0-3.31","504","","","","","rectangles with change","null","null","","","catch","sh","l","sw","178","162","286","223","170","168","spektor","null","null","null","null","null","null","null","null","null","null","null","","180","200","260","200","36000","52000","[2,3]","513.7708239248728","169.5971621255845","495.74097978296925"
"","canvas-keyboard-response","227","213348","0.0-6.0-4.31","504","","","","","clear_screen","null","null","","","catch","sh","l","sw","178","162","286","223","170","168","spektor","null","null","null","null","null","null","null","null","null","null","null","","180","200","260","200","36000","52000","[2,3]","513.7708239248728","169.5971621255845","495.74097978296925"
"","canvas-keyboard-response","228","214001","0.0-6.0-5.31","504","","","","","make choice","648","2","","","catch","sh","l","sw","178","162","286","223","170","168","spektor","null","null","null","null","null","null","null","null","null","null","null","","180","200","260","200","36000","52000","[2,3]","","",""
"","canvas-keyboard-response","229","214022","0.0-6.0-6.31","504","","","","","clear_screen","null","null","","","catch","sh","l","sw","178","162","286","223","170","168","spektor","null","null","null","null","null","null","null","null","null","null","null","","180","200","260","200","36000","52000","[2,3]","","",""
"","canvas-keyboard-response","230","214223","0.0-6.0-0.32","504","","","","","pre trial waiting period","null","null","","","critical","t","d","c","240","164","227.1683","158.0083","164","240","trueblood","0.09","w","240","164","164","240","227.1683","158.0083","39360","39360","35894.4834","dc","null","null","null","null","null","null","[2,3]","497.8424952966328","496.2058599297984","468.25538056331067"
"","canvas-keyboard-response","231","214244","0.0-6.0-1.32","504","","","","","clear_screen","null","null","","","critical","t","d","c","240","164","227.1683","158.0083","164","240","trueblood","0.09","w","240","164","164","240","227.1683","158.0083","39360","39360","35894.4834","dc","null","null","null","null","null","null","[2,3]","497.8424952966328","496.2058599297984","468.25538056331067"
"","canvas-keyboard-response","232","214750","0.0-6.0-2.32","504","","","","","rectangles no change","null","null","","","critical","t","d","c","240","164","227.1683","158.0083","164","240","trueblood","0.09","w","240","164","164","240","227.1683","158.0083","39360","39360","35894.4834","dc","null","null","null","null","null","null","[2,3]","497.8424952966328","496.2058599297984","468.25538056331067"
"","canvas-keyboard-response","233","216086","0.0-6.0-3.32","504","","","","","rectangles with change","null","null","","","critical","t","d","c","240","164","227.1683","158.0083","164","240","trueblood","0.09","w","240","164","164","240","227.1683","158.0083","39360","39360","35894.4834","dc","null","null","null","null","null","null","[2,3]","497.8424952966328","496.2058599297984","468.25538056331067"
"","canvas-keyboard-response","234","216105","0.0-6.0-4.32","504","","","","","clear_screen","null","null","","","critical","t","d","c","240","164","227.1683","158.0083","164","240","trueblood","0.09","w","240","164","164","240","227.1683","158.0083","39360","39360","35894.4834","dc","null","null","null","null","null","null","[2,3]","497.8424952966328","496.2058599297984","468.25538056331067"
"","canvas-keyboard-response","235","217601","0.0-6.0-5.32","504","","","","","make choice","1488","2","","","critical","t","d","c","240","164","227.1683","158.0083","164","240","trueblood","0.09","w","240","164","164","240","227.1683","158.0083","39360","39360","35894.4834","dc","null","null","null","null","null","null","[2,3]","","",""
"","canvas-keyboard-response","236","217624","0.0-6.0-6.32","504","","","","","clear_screen","null","null","","","critical","t","d","c","240","164","227.1683","158.0083","164","240","trueblood","0.09","w","240","164","164","240","227.1683","158.0083","39360","39360","35894.4834","dc","null","null","null","null","null","null","[2,3]","","",""
"","canvas-keyboard-response","237","217826","0.0-6.0-0.33","504","","","","","pre trial waiting period","null","null","","","critical","c","t","d","240","164","164","240","158.0083","227.1683","spektor","0.09","h","164","240","240","164","158.0083","227.1683","39360","39360","35894.4834","dc","null","null","null","null","null","null","[3,1]","521.0905004328921","102.84784045286547","496.2333357656896"
"","canvas-keyboard-response","238","217844","0.0-6.0-1.33","504","","","","","clear_screen","null","null","","","critical","c","t","d","240","164","164","240","158.0083","227.1683","spektor","0.09","h","164","240","240","164","158.0083","227.1683","39360","39360","35894.4834","dc","null","null","null","null","null","null","[3,1]","521.0905004328921","102.84784045286547","496.2333357656896"
"","canvas-keyboard-response","239","218353","0.0-6.0-2.33","504","","","","","rectangles no change","null","null","","","critical","c","t","d","240","164","164","240","158.0083","227.1683","spektor","0.09","h","164","240","240","164","158.0083","227.1683","39360","39360","35894.4834","dc","null","null","null","null","null","null","[3,1]","521.0905004328921","102.84784045286547","496.2333357656896"
"","canvas-keyboard-response","240","219689","0.0-6.0-3.33","504","","","","","rectangles with change","null","null","","","critical","c","t","d","240","164","164","240","158.0083","227.1683","spektor","0.09","h","164","240","240","164","158.0083","227.1683","39360","39360","35894.4834","dc","null","null","null","null","null","null","[3,1]","521.0905004328921","102.84784045286547","496.2333357656896"
"","canvas-keyboard-response","241","219711","0.0-6.0-4.33","504","","","","","clear_screen","null","null","","","critical","c","t","d","240","164","164","240","158.0083","227.1683","spektor","0.09","h","164","240","240","164","158.0083","227.1683","39360","39360","35894.4834","dc","null","null","null","null","null","null","[3,1]","521.0905004328921","102.84784045286547","496.2333357656896"
"","canvas-keyboard-response","242","222689","0.0-6.0-5.33","504","","","","","make choice","2974","3","","","critical","c","t","d","240","164","164","240","158.0083","227.1683","spektor","0.09","h","164","240","240","164","158.0083","227.1683","39360","39360","35894.4834","dc","null","null","null","null","null","null","[3,1]","","",""
"","canvas-keyboard-response","243","222708","0.0-6.0-6.33","504","","","","","clear_screen","null","null","","","critical","c","t","d","240","164","164","240","158.0083","227.1683","spektor","0.09","h","164","240","240","164","158.0083","227.1683","39360","39360","35894.4834","dc","null","null","null","null","null","null","[3,1]","","",""
"","canvas-keyboard-response","244","222909","0.0-6.0-0.34","504","","","","","pre trial waiting period","null","null","","","critical","t","c","d","164","240","240","164","158.0083","227.1683","trueblood","0.09","h","164","240","240","164","158.0083","227.1683","39360","39360","35894.4834","dc","null","null","null","null","null","null","[3,2]","427.78982488099996","480.33675342652845","443.003786757424"
"","canvas-keyboard-response","245","222929","0.0-6.0-1.34","504","","","","","clear_screen","null","null","","","critical","t","c","d","164","240","240","164","158.0083","227.1683","trueblood","0.09","h","164","240","240","164","158.0083","227.1683","39360","39360","35894.4834","dc","null","null","null","null","null","null","[3,2]","427.78982488099996","480.33675342652845","443.003786757424"
"","canvas-keyboard-response","246","223436","0.0-6.0-2.34","504","","","","","rectangles no change","null","null","","","critical","t","c","d","164","240","240","164","158.0083","227.1683","trueblood","0.09","h","164","240","240","164","158.0083","227.1683","39360","39360","35894.4834","dc","null","null","null","null","null","null","[3,2]","427.78982488099996","480.33675342652845","443.003786757424"
"","canvas-keyboard-response","247","224777","0.0-6.0-3.34","504","","","","","rectangles with change","null","null","","","critical","t","c","d","164","240","240","164","158.0083","227.1683","trueblood","0.09","h","164","240","240","164","158.0083","227.1683","39360","39360","35894.4834","dc","null","null","null","null","null","null","[3,2]","427.78982488099996","480.33675342652845","443.003786757424"
"","canvas-keyboard-response","248","224800","0.0-6.0-4.34","504","","","","","clear_screen","null","null","","","critical","t","c","d","164","240","240","164","158.0083","227.1683","trueblood","0.09","h","164","240","240","164","158.0083","227.1683","39360","39360","35894.4834","dc","null","null","null","null","null","null","[3,2]","427.78982488099996","480.33675342652845","443.003786757424"
"","canvas-keyboard-response","249","227098","0.0-6.0-5.34","504","","","","","make choice","2292","2","","","critical","t","c","d","164","240","240","164","158.0083","227.1683","trueblood","0.09","h","164","240","240","164","158.0083","227.1683","39360","39360","35894.4834","dc","null","null","null","null","null","null","[3,2]","","",""
"","canvas-keyboard-response","250","227119","0.0-6.0-6.34","504","","","","","clear_screen","null","null","","","critical","t","c","d","164","240","240","164","158.0083","227.1683","trueblood","0.09","h","164","240","240","164","158.0083","227.1683","39360","39360","35894.4834","dc","null","null","null","null","null","null","[3,2]","","",""
"","canvas-keyboard-response","251","227320","0.0-6.0-0.35","504","","","","","pre trial waiting period","null","null","","","critical","c","t","d","164","240","240","164","237.1485","162.6685","spektor","0.02","w","240","164","164","240","237.1485","162.6685","39360","39360","38576.5967","td","null","null","null","null","null","null","[2,3]","462.9359004668111","215.6830552640377","520.4889850869214"
"","canvas-keyboard-response","252","227340","0.0-6.0-1.35","504","","","","","clear_screen","null","null","","","critical","c","t","d","164","240","240","164","237.1485","162.6685","spektor","0.02","w","240","164","164","240","237.1485","162.6685","39360","39360","38576.5967","td","null","null","null","null","null","null","[2,3]","462.9359004668111","215.6830552640377","520.4889850869214"
"","canvas-keyboard-response","253","227854","0.0-6.0-2.35","504","","","","","rectangles no change","null","null","","","critical","c","t","d","164","240","240","164","237.1485","162.6685","spektor","0.02","w","240","164","164","240","237.1485","162.6685","39360","39360","38576.5967","td","null","null","null","null","null","null","[2,3]","462.9359004668111","215.6830552640377","520.4889850869214"
"","canvas-keyboard-response","254","229193","0.0-6.0-3.35","504","","","","","rectangles with change","null","null","","","critical","c","t","d","164","240","240","164","237.1485","162.6685","spektor","0.02","w","240","164","164","240","237.1485","162.6685","39360","39360","38576.5967","td","null","null","null","null","null","null","[2,3]","462.9359004668111","215.6830552640377","520.4889850869214"
"","canvas-keyboard-response","255","229211","0.0-6.0-4.35","504","","","","","clear_screen","null","null","","","critical","c","t","d","164","240","240","164","237.1485","162.6685","spektor","0.02","w","240","164","164","240","237.1485","162.6685","39360","39360","38576.5967","td","null","null","null","null","null","null","[2,3]","462.9359004668111","215.6830552640377","520.4889850869214"
"","canvas-keyboard-response","256","230353","0.0-6.0-5.35","504","","","","","make choice","1134","3","","","critical","c","t","d","164","240","240","164","237.1485","162.6685","spektor","0.02","w","240","164","164","240","237.1485","162.6685","39360","39360","38576.5967","td","null","null","null","null","null","null","[2,3]","","",""
"","canvas-keyboard-response","257","230372","0.0-6.0-6.35","504","","","","","clear_screen","null","null","","","critical","c","t","d","164","240","240","164","237.1485","162.6685","spektor","0.02","w","240","164","164","240","237.1485","162.6685","39360","39360","38576.5967","td","null","null","null","null","null","null","[2,3]","","",""
"","canvas-keyboard-response","258","230572","0.0-6.0-0.36","504","","","","","pre trial waiting period","null","null","","","catch","sw","l","sh","180","200","214","235","185","208","trueblood","null","null","null","null","null","null","null","null","null","null","null","","180","200","260","200","36000","52000","[2,3]","477.06197205721537","455.1434076660763","442.0488270363016"
"","canvas-keyboard-response","259","230593","0.0-6.0-1.36","504","","","","","clear_screen","null","null","","","catch","sw","l","sh","180","200","214","235","185","208","trueblood","null","null","null","null","null","null","null","null","null","null","null","","180","200","260","200","36000","52000","[2,3]","477.06197205721537","455.1434076660763","442.0488270363016"
"","canvas-keyboard-response","260","231100","0.0-6.0-2.36","504","","","","","rectangles no change","null","null","","","catch","sw","l","sh","180","200","214","235","185","208","trueblood","null","null","null","null","null","null","null","null","null","null","null","","180","200","260","200","36000","52000","[2,3]","477.06197205721537","455.1434076660763","442.0488270363016"
"","canvas-keyboard-response","261","232435","0.0-6.0-3.36","504","","","","","rectangles with change","null","null","","","catch","sw","l","sh","180","200","214","235","185","208","trueblood","null","null","null","null","null","null","null","null","null","null","null","","180","200","260","200","36000","52000","[2,3]","477.06197205721537","455.1434076660763","442.0488270363016"
"","canvas-keyboard-response","262","232458","0.0-6.0-4.36","504","","","","","clear_screen","null","null","","","catch","sw","l","sh","180","200","214","235","185","208","trueblood","null","null","null","null","null","null","null","null","null","null","null","","180","200","260","200","36000","52000","[2,3]","477.06197205721537","455.1434076660763","442.0488270363016"
"","canvas-keyboard-response","263","235401","0.0-6.0-5.36","504","","","","","make choice","2936","2","","","catch","sw","l","sh","180","200","214","235","185","208","trueblood","null","null","null","null","null","null","null","null","null","null","null","","180","200","260","200","36000","52000","[2,3]","","",""
"","canvas-keyboard-response","264","235420","0.0-6.0-6.36","504","","","","","clear_screen","null","null","","","catch","sw","l","sh","180","200","214","235","185","208","trueblood","null","null","null","null","null","null","null","null","null","null","null","","180","200","260","200","36000","52000","[2,3]","","",""
"","canvas-keyboard-response","265","235622","0.0-6.0-0.37","504","","","","","pre trial waiting period","null","null","","","catch","sw","l","sh","180","200","264","239","188","155","spektor","null","null","null","null","null","null","null","null","null","null","null","","180","200","260","200","36000","52000","[1,2]","494.6732106096974","150.37892536436064","538.2404658232674"
