"success","trial_type","trial_index","time_elapsed","internal_node_id","sub_n","timeout","failed_images","failed_audio","failed_video","screen_id","rt","response","stimulus","view_history","trial","r1","r2","r3","w1","h1","w2","h2","w3","h3","display","tdd","tdo","tw","th","cw","ch","dw","dh","ta","ca","da","probe","csls","csss","clls","clss","sa","la","probe_rects","r1yloc","r2yloc","r3yloc"
"true","fullscreen","0","2408","0.0-0.0","547","","","","","","","","","","","","","","","","","","","","","","","","","","","","","","","","","","","","","","","","","",""
"true","preload","1","2418","0.0-1.0","547","false","[]","[]","[]","img preload","","","","","","","","","","","","","","","","","","","","","","","","","","","","","","","","","","","","",""
"","survey-html-form","2","4692","0.0-2.0","547","","","","","enter-sub-number","2267","{""response"":""547""}","","","","","","","","","","","","","","","","","","","","","","","","","","","","","","","","","","",""
"","image-button-response","3","51873","0.0-3.0","547","","","","","","47100","0","consent.png","","","","","","","","","","","","","","","","","","","","","","","","","","","","","","","","","",""
"","html-button-response","4","72146","0.0-4.0","547","","","","","intro mssg","20265","0","<div style= ""font-size:25px;"" <p> <strong> Welcome! </strong><br> <p style=""color:#8B0000; font-size:25px;""><strong> Please do NOT exit full screen until you are done with the experiment. </strong> </p><p style=""font-size:25px;color:#8B0000;""> <strong> Your data will be lost <br> if you try to go back or refresh the page after the experiment starts. Feel free to click ""previous"" during the instructions, however.</strong> </p><br><p> <strong> Thanks in advance for your contribution to our research! </strong></p>","","","","","","","","","","","","","","","","","","","","","","","","","","","","","","","","","",""
"","instructions","5","164162","0.0-5.0","547","","","","","instructions","92012","","","[{""page_index"":0,""viewing_time"":14620},{""page_index"":1,""viewing_time"":17256},{""page_index"":2,""viewing_time"":4928},{""page_index"":3,""viewing_time"":29799},{""page_index"":4,""viewing_time"":13154},{""page_index"":5,""viewing_time"":4335},{""page_index"":6,""viewing_time"":3640},{""page_index"":7,""viewing_time"":4280}]","","","","","","","","","","","","","","","","","","","","","","","","","","","","","","","","",""
"","canvas-keyboard-response","6","164366","0.0-6.0-0.0","547","","","","","pre trial waiting period","null","null","","","critical","t","c","d","240","164","164","240","237.1485","162.6685","trueblood","0.02","w","240","164","164","240","237.1485","162.6685","39360","39360","38576.5967","tc","null","null","null","null","null","null","[1,2]","495.6099070691063","430.77365149159084","495.98959465148084"
"","canvas-keyboard-response","7","164389","0.0-6.0-1.0","547","","","","","clear_screen","null","null","","","critical","t","c","d","240","164","164","240","237.1485","162.6685","trueblood","0.02","w","240","164","164","240","237.1485","162.6685","39360","39360","38576.5967","tc","null","null","null","null","null","null","[1,2]","495.6099070691063","430.77365149159084","495.98959465148084"
"","canvas-keyboard-response","8","164919","0.0-6.0-2.0","547","","","","","rectangles no change","null","null","","","critical","t","c","d","240","164","164","240","237.1485","162.6685","trueblood","0.02","w","240","164","164","240","237.1485","162.6685","39360","39360","38576.5967","tc","null","null","null","null","null","null","[1,2]","495.6099070691063","430.77365149159084","495.98959465148084"
"","canvas-keyboard-response","9","166256","0.0-6.0-3.0","547","","","","","rectangles with change","null","null","","","critical","t","c","d","240","164","164","240","237.1485","162.6685","trueblood","0.02","w","240","164","164","240","237.1485","162.6685","39360","39360","38576.5967","tc","null","null","null","null","null","null","[1,2]","495.6099070691063","430.77365149159084","495.98959465148084"
"","canvas-keyboard-response","10","166274","0.0-6.0-4.0","547","","","","","clear_screen","null","null","","","critical","t","c","d","240","164","164","240","237.1485","162.6685","trueblood","0.02","w","240","164","164","240","237.1485","162.6685","39360","39360","38576.5967","tc","null","null","null","null","null","null","[1,2]","495.6099070691063","430.77365149159084","495.98959465148084"
"","canvas-keyboard-response","11","171681","0.0-6.0-5.0","547","","","","","make choice","5401","2","","","critical","t","c","d","240","164","164","240","237.1485","162.6685","trueblood","0.02","w","240","164","164","240","237.1485","162.6685","39360","39360","38576.5967","tc","null","null","null","null","null","null","[1,2]","","",""
"","canvas-keyboard-response","12","171700","0.0-6.0-6.0","547","","","","","clear_screen","null","null","","","critical","t","c","d","240","164","164","240","237.1485","162.6685","trueblood","0.02","w","240","164","164","240","237.1485","162.6685","39360","39360","38576.5967","tc","null","null","null","null","null","null","[1,2]","","",""
"","canvas-keyboard-response","13","171902","0.0-6.0-0.1","547","","","","","pre trial waiting period","null","null","","","catch","sh","l","sw","234","202","287","200","170","166","trueblood","null","null","null","null","null","null","null","null","null","null","null","","180","200","260","200","36000","52000","[1,2]","467.08556367179756","461.5628611967744","503.2667091163921"
"","canvas-keyboard-response","14","171920","0.0-6.0-1.1","547","","","","","clear_screen","null","null","","","catch","sh","l","sw","234","202","287","200","170","166","trueblood","null","null","null","null","null","null","null","null","null","null","null","","180","200","260","200","36000","52000","[1,2]","467.08556367179756","461.5628611967744","503.2667091163921"
"","canvas-keyboard-response","15","172426","0.0-6.0-2.1","547","","","","","rectangles no change","null","null","","","catch","sh","l","sw","234","202","287","200","170","166","trueblood","null","null","null","null","null","null","null","null","null","null","null","","180","200","260","200","36000","52000","[1,2]","467.08556367179756","461.5628611967744","503.2667091163921"
"","canvas-keyboard-response","16","173765","0.0-6.0-3.1","547","","","","","rectangles with change","null","null","","","catch","sh","l","sw","234","202","287","200","170","166","trueblood","null","null","null","null","null","null","null","null","null","null","null","","180","200","260","200","36000","52000","[1,2]","467.08556367179756","461.5628611967744","503.2667091163921"
"","canvas-keyboard-response","17","173785","0.0-6.0-4.1","547","","","","","clear_screen","null","null","","","catch","sh","l","sw","234","202","287","200","170","166","trueblood","null","null","null","null","null","null","null","null","null","null","null","","180","200","260","200","36000","52000","[1,2]","467.08556367179756","461.5628611967744","503.2667091163921"
"","canvas-keyboard-response","18","175473","0.0-6.0-5.1","547","","","","","make choice","1676","2","","","catch","sh","l","sw","234","202","287","200","170","166","trueblood","null","null","null","null","null","null","null","null","null","null","null","","180","200","260","200","36000","52000","[1,2]","","",""
"","canvas-keyboard-response","19","175490","0.0-6.0-6.1","547","","","","","clear_screen","null","null","","","catch","sh","l","sw","234","202","287","200","170","166","trueblood","null","null","null","null","null","null","null","null","null","null","null","","180","200","260","200","36000","52000","[1,2]","","",""
"","canvas-keyboard-response","20","175691","0.0-6.0-0.2","547","","","","","pre trial waiting period","null","null","","","critical","t","d","c","240","164","220.0396","154.6796","164","240","trueblood","0.14","w","240","164","164","240","220.0396","154.6796","39360","39360","34035.6388","td","null","null","null","null","null","null","[1,2]","508.57898535692055","491.7789692006438","454.1550899785477"
"","canvas-keyboard-response","21","175711","0.0-6.0-1.2","547","","","","","clear_screen","null","null","","","critical","t","d","c","240","164","220.0396","154.6796","164","240","trueblood","0.14","w","240","164","164","240","220.0396","154.6796","39360","39360","34035.6388","td","null","null","null","null","null","null","[1,2]","508.57898535692055","491.7789692006438","454.1550899785477"
"","canvas-keyboard-response","22","176221","0.0-6.0-2.2","547","","","","","rectangles no change","null","null","","","critical","t","d","c","240","164","220.0396","154.6796","164","240","trueblood","0.14","w","240","164","164","240","220.0396","154.6796","39360","39360","34035.6388","td","null","null","null","null","null","null","[1,2]","508.57898535692055","491.7789692006438","454.1550899785477"
"","canvas-keyboard-response","23","177555","0.0-6.0-3.2","547","","","","","rectangles with change","null","null","","","critical","t","d","c","240","164","220.0396","154.6796","164","240","trueblood","0.14","w","240","164","164","240","220.0396","154.6796","39360","39360","34035.6388","td","null","null","null","null","null","null","[1,2]","508.57898535692055","491.7789692006438","454.1550899785477"
"","canvas-keyboard-response","24","177576","0.0-6.0-4.2","547","","","","","clear_screen","null","null","","","critical","t","d","c","240","164","220.0396","154.6796","164","240","trueblood","0.14","w","240","164","164","240","220.0396","154.6796","39360","39360","34035.6388","td","null","null","null","null","null","null","[1,2]","508.57898535692055","491.7789692006438","454.1550899785477"
"","canvas-keyboard-response","25","178936","0.0-6.0-5.2","547","","","","","make choice","1354","1","","","critical","t","d","c","240","164","220.0396","154.6796","164","240","trueblood","0.14","w","240","164","164","240","220.0396","154.6796","39360","39360","34035.6388","td","null","null","null","null","null","null","[1,2]","","",""
"","canvas-keyboard-response","26","178955","0.0-6.0-6.2","547","","","","","clear_screen","null","null","","","critical","t","d","c","240","164","220.0396","154.6796","164","240","trueblood","0.14","w","240","164","164","240","220.0396","154.6796","39360","39360","34035.6388","td","null","null","null","null","null","null","[1,2]","","",""
"","canvas-keyboard-response","27","179156","0.0-6.0-0.3","547","","","","","pre trial waiting period","null","null","","","critical","t","d","c","164","240","154.6796","220.0396","240","164","trueblood","0.14","h","164","240","240","164","154.6796","220.0396","39360","39360","34035.6388","tc","null","null","null","null","null","null","[1,3]","461.2022970119956","473.3563096410566","480.80698082909475"
"","canvas-keyboard-response","28","179175","0.0-6.0-1.3","547","","","","","clear_screen","null","null","","","critical","t","d","c","164","240","154.6796","220.0396","240","164","trueblood","0.14","h","164","240","240","164","154.6796","220.0396","39360","39360","34035.6388","tc","null","null","null","null","null","null","[1,3]","461.2022970119956","473.3563096410566","480.80698082909475"
"","canvas-keyboard-response","29","179681","0.0-6.0-2.3","547","","","","","rectangles no change","null","null","","","critical","t","d","c","164","240","154.6796","220.0396","240","164","trueblood","0.14","h","164","240","240","164","154.6796","220.0396","39360","39360","34035.6388","tc","null","null","null","null","null","null","[1,3]","461.2022970119956","473.3563096410566","480.80698082909475"
"","canvas-keyboard-response","30","181019","0.0-6.0-3.3","547","","","","","rectangles with change","null","null","","","critical","t","d","c","164","240","154.6796","220.0396","240","164","trueblood","0.14","h","164","240","240","164","154.6796","220.0396","39360","39360","34035.6388","tc","null","null","null","null","null","null","[1,3]","461.2022970119956","473.3563096410566","480.80698082909475"
"","canvas-keyboard-response","31","181039","0.0-6.0-4.3","547","","","","","clear_screen","null","null","","","critical","t","d","c","164","240","154.6796","220.0396","240","164","trueblood","0.14","h","164","240","240","164","154.6796","220.0396","39360","39360","34035.6388","tc","null","null","null","null","null","null","[1,3]","461.2022970119956","473.3563096410566","480.80698082909475"
"","canvas-keyboard-response","32","182881","0.0-6.0-5.3","547","","","","","make choice","1836","1","","","critical","t","d","c","164","240","154.6796","220.0396","240","164","trueblood","0.14","h","164","240","240","164","154.6796","220.0396","39360","39360","34035.6388","tc","null","null","null","null","null","null","[1,3]","","",""
"","canvas-keyboard-response","33","182899","0.0-6.0-6.3","547","","","","","clear_screen","null","null","","","critical","t","d","c","164","240","154.6796","220.0396","240","164","trueblood","0.14","h","164","240","240","164","154.6796","220.0396","39360","39360","34035.6388","tc","null","null","null","null","null","null","[1,3]","","",""
"","canvas-keyboard-response","34","183099","0.0-6.0-0.4","547","","","","","pre trial waiting period","null","null","","","critical","c","d","t","164","240","220.0396","154.6796","240","164","trueblood","0.14","w","240","164","164","240","220.0396","154.6796","39360","39360","34035.6388","tc","null","null","null","null","null","null","[3,1]","432.5622574092062","516.8806045241782","475.68117295858355"
"","canvas-keyboard-response","35","183118","0.0-6.0-1.4","547","","","","","clear_screen","null","null","","","critical","c","d","t","164","240","220.0396","154.6796","240","164","trueblood","0.14","w","240","164","164","240","220.0396","154.6796","39360","39360","34035.6388","tc","null","null","null","null","null","null","[3,1]","432.5622574092062","516.8806045241782","475.68117295858355"
"","canvas-keyboard-response","36","183630","0.0-6.0-2.4","547","","","","","rectangles no change","null","null","","","critical","c","d","t","164","240","220.0396","154.6796","240","164","trueblood","0.14","w","240","164","164","240","220.0396","154.6796","39360","39360","34035.6388","tc","null","null","null","null","null","null","[3,1]","432.5622574092062","516.8806045241782","475.68117295858355"
"","canvas-keyboard-response","37","184966","0.0-6.0-3.4","547","","","","","rectangles with change","null","null","","","critical","c","d","t","164","240","220.0396","154.6796","240","164","trueblood","0.14","w","240","164","164","240","220.0396","154.6796","39360","39360","34035.6388","tc","null","null","null","null","null","null","[3,1]","432.5622574092062","516.8806045241782","475.68117295858355"
"","canvas-keyboard-response","38","184985","0.0-6.0-4.4","547","","","","","clear_screen","null","null","","","critical","c","d","t","164","240","220.0396","154.6796","240","164","trueblood","0.14","w","240","164","164","240","220.0396","154.6796","39360","39360","34035.6388","tc","null","null","null","null","null","null","[3,1]","432.5622574092062","516.8806045241782","475.68117295858355"
"","canvas-keyboard-response","39","186425","0.0-6.0-5.4","547","","","","","make choice","1433","3","","","critical","c","d","t","164","240","220.0396","154.6796","240","164","trueblood","0.14","w","240","164","164","240","220.0396","154.6796","39360","39360","34035.6388","tc","null","null","null","null","null","null","[3,1]","","",""
"","canvas-keyboard-response","40","186444","0.0-6.0-6.4","547","","","","","clear_screen","null","null","","","critical","c","d","t","164","240","220.0396","154.6796","240","164","trueblood","0.14","w","240","164","164","240","220.0396","154.6796","39360","39360","34035.6388","tc","null","null","null","null","null","null","[3,1]","","",""
"","canvas-keyboard-response","41","186645","0.0-6.0-0.5","547","","","","","pre trial waiting period","null","null","","","catch","sh","l","sw","187","211","273","193","159","227","spektor","null","null","null","null","null","null","null","null","null","null","null","","180","200","260","200","36000","52000","[2,3]","519.1888750508892","137.31475170611174","495.2018755289289"
"","canvas-keyboard-response","42","186664","0.0-6.0-1.5","547","","","","","clear_screen","null","null","","","catch","sh","l","sw","187","211","273","193","159","227","spektor","null","null","null","null","null","null","null","null","null","null","null","","180","200","260","200","36000","52000","[2,3]","519.1888750508892","137.31475170611174","495.2018755289289"
"","canvas-keyboard-response","43","187175","0.0-6.0-2.5","547","","","","","rectangles no change","null","null","","","catch","sh","l","sw","187","211","273","193","159","227","spektor","null","null","null","null","null","null","null","null","null","null","null","","180","200","260","200","36000","52000","[2,3]","519.1888750508892","137.31475170611174","495.2018755289289"
"","canvas-keyboard-response","44","188507","0.0-6.0-3.5","547","","","","","rectangles with change","null","null","","","catch","sh","l","sw","187","211","273","193","159","227","spektor","null","null","null","null","null","null","null","null","null","null","null","","180","200","260","200","36000","52000","[2,3]","519.1888750508892","137.31475170611174","495.2018755289289"
"","canvas-keyboard-response","45","188525","0.0-6.0-4.5","547","","","","","clear_screen","null","null","","","catch","sh","l","sw","187","211","273","193","159","227","spektor","null","null","null","null","null","null","null","null","null","null","null","","180","200","260","200","36000","52000","[2,3]","519.1888750508892","137.31475170611174","495.2018755289289"
"","canvas-keyboard-response","46","189433","0.0-6.0-5.5","547","","","","","make choice","903","2","","","catch","sh","l","sw","187","211","273","193","159","227","spektor","null","null","null","null","null","null","null","null","null","null","null","","180","200","260","200","36000","52000","[2,3]","","",""
"","canvas-keyboard-response","47","189453","0.0-6.0-6.5","547","","","","","clear_screen","null","null","","","catch","sh","l","sw","187","211","273","193","159","227","spektor","null","null","null","null","null","null","null","null","null","null","null","","180","200","260","200","36000","52000","[2,3]","","",""
"","canvas-keyboard-response","48","189653","0.0-6.0-0.6","547","","","","","pre trial waiting period","null","null","","","catch","l","sw","sh","226","254","197","177","203","204","spektor","null","null","null","null","null","null","null","null","null","null","null","","180","200","260","200","36000","52000","[1,2]","492.5379723368667","188.3011845842403","479.5089775241388"
"","canvas-keyboard-response","49","189673","0.0-6.0-1.6","547","","","","","clear_screen","null","null","","","catch","l","sw","sh","226","254","197","177","203","204","spektor","null","null","null","null","null","null","null","null","null","null","null","","180","200","260","200","36000","52000","[1,2]","492.5379723368667","188.3011845842403","479.5089775241388"
"","canvas-keyboard-response","50","190181","0.0-6.0-2.6","547","","","","","rectangles no change","null","null","","","catch","l","sw","sh","226","254","197","177","203","204","spektor","null","null","null","null","null","null","null","null","null","null","null","","180","200","260","200","36000","52000","[1,2]","492.5379723368667","188.3011845842403","479.5089775241388"
"","canvas-keyboard-response","51","191510","0.0-6.0-3.6","547","","","","","rectangles with change","null","null","","","catch","l","sw","sh","226","254","197","177","203","204","spektor","null","null","null","null","null","null","null","null","null","null","null","","180","200","260","200","36000","52000","[1,2]","492.5379723368667","188.3011845842403","479.5089775241388"
"","canvas-keyboard-response","52","191530","0.0-6.0-4.6","547","","","","","clear_screen","null","null","","","catch","l","sw","sh","226","254","197","177","203","204","spektor","null","null","null","null","null","null","null","null","null","null","null","","180","200","260","200","36000","52000","[1,2]","492.5379723368667","188.3011845842403","479.5089775241388"
"","canvas-keyboard-response","53","192424","0.0-6.0-5.6","547","","","","","make choice","891","1","","","catch","l","sw","sh","226","254","197","177","203","204","spektor","null","null","null","null","null","null","null","null","null","null","null","","180","200","260","200","36000","52000","[1,2]","","",""
"","canvas-keyboard-response","54","192443","0.0-6.0-6.6","547","","","","","clear_screen","null","null","","","catch","l","sw","sh","226","254","197","177","203","204","spektor","null","null","null","null","null","null","null","null","null","null","null","","180","200","260","200","36000","52000","[1,2]","","",""
"","canvas-keyboard-response","55","192645","0.0-6.0-0.7","547","","","","","pre trial waiting period","null","null","","","critical","d","c","t","237.1485","162.6685","164","240","240","164","spektor","0.02","w","240","164","164","240","237.1485","162.6685","39360","39360","38576.5967","td","null","null","null","null","null","null","[3,1]","502.6370320077705","129.88920410430936","532.8948950521426"
"","canvas-keyboard-response","56","192663","0.0-6.0-1.7","547","","","","","clear_screen","null","null","","","critical","d","c","t","237.1485","162.6685","164","240","240","164","spektor","0.02","w","240","164","164","240","237.1485","162.6685","39360","39360","38576.5967","td","null","null","null","null","null","null","[3,1]","502.6370320077705","129.88920410430936","532.8948950521426"
"","canvas-keyboard-response","57","193169","0.0-6.0-2.7","547","","","","","rectangles no change","null","null","","","critical","d","c","t","237.1485","162.6685","164","240","240","164","spektor","0.02","w","240","164","164","240","237.1485","162.6685","39360","39360","38576.5967","td","null","null","null","null","null","null","[3,1]","502.6370320077705","129.88920410430936","532.8948950521426"
"","canvas-keyboard-response","58","194505","0.0-6.0-3.7","547","","","","","rectangles with change","null","null","","","critical","d","c","t","237.1485","162.6685","164","240","240","164","spektor","0.02","w","240","164","164","240","237.1485","162.6685","39360","39360","38576.5967","td","null","null","null","null","null","null","[3,1]","502.6370320077705","129.88920410430936","532.8948950521426"
"","canvas-keyboard-response","59","194526","0.0-6.0-4.7","547","","","","","clear_screen","null","null","","","critical","d","c","t","237.1485","162.6685","164","240","240","164","spektor","0.02","w","240","164","164","240","237.1485","162.6685","39360","39360","38576.5967","td","null","null","null","null","null","null","[3,1]","502.6370320077705","129.88920410430936","532.8948950521426"
"","canvas-keyboard-response","60","196152","0.0-6.0-5.7","547","","","","","make choice","1622","3","","","critical","d","c","t","237.1485","162.6685","164","240","240","164","spektor","0.02","w","240","164","164","240","237.1485","162.6685","39360","39360","38576.5967","td","null","null","null","null","null","null","[3,1]","","",""
"","canvas-keyboard-response","61","196170","0.0-6.0-6.7","547","","","","","clear_screen","null","null","","","critical","d","c","t","237.1485","162.6685","164","240","240","164","spektor","0.02","w","240","164","164","240","237.1485","162.6685","39360","39360","38576.5967","td","null","null","null","null","null","null","[3,1]","","",""
"","canvas-keyboard-response","62","196371","0.0-6.0-0.8","547","","","","","pre trial waiting period","null","null","","","critical","d","t","c","162.6685","237.1485","164","240","240","164","spektor","0.02","h","164","240","240","164","162.6685","237.1485","39360","39360","38576.5967","td","null","null","null","null","null","null","[2,1]","503.35660599977916","116.6528081325838","505.50261453179195"
"","canvas-keyboard-response","63","196391","0.0-6.0-1.8","547","","","","","clear_screen","null","null","","","critical","d","t","c","162.6685","237.1485","164","240","240","164","spektor","0.02","h","164","240","240","164","162.6685","237.1485","39360","39360","38576.5967","td","null","null","null","null","null","null","[2,1]","503.35660599977916","116.6528081325838","505.50261453179195"
"","canvas-keyboard-response","64","196899","0.0-6.0-2.8","547","","","","","rectangles no change","null","null","","","critical","d","t","c","162.6685","237.1485","164","240","240","164","spektor","0.02","h","164","240","240","164","162.6685","237.1485","39360","39360","38576.5967","td","null","null","null","null","null","null","[2,1]","503.35660599977916","116.6528081325838","505.50261453179195"
"","canvas-keyboard-response","65","198236","0.0-6.0-3.8","547","","","","","rectangles with change","null","null","","","critical","d","t","c","162.6685","237.1485","164","240","240","164","spektor","0.02","h","164","240","240","164","162.6685","237.1485","39360","39360","38576.5967","td","null","null","null","null","null","null","[2,1]","503.35660599977916","116.6528081325838","505.50261453179195"
"","canvas-keyboard-response","66","198250","0.0-6.0-4.8","547","","","","","clear_screen","null","null","","","critical","d","t","c","162.6685","237.1485","164","240","240","164","spektor","0.02","h","164","240","240","164","162.6685","237.1485","39360","39360","38576.5967","td","null","null","null","null","null","null","[2,1]","503.35660599977916","116.6528081325838","505.50261453179195"
"","canvas-keyboard-response","67","202304","0.0-6.0-5.8","547","","","","","make choice","4049","2","","","critical","d","t","c","162.6685","237.1485","164","240","240","164","spektor","0.02","h","164","240","240","164","162.6685","237.1485","39360","39360","38576.5967","td","null","null","null","null","null","null","[2,1]","","",""
"","canvas-keyboard-response","68","202325","0.0-6.0-6.8","547","","","","","clear_screen","null","null","","","critical","d","t","c","162.6685","237.1485","164","240","240","164","spektor","0.02","h","164","240","240","164","162.6685","237.1485","39360","39360","38576.5967","td","null","null","null","null","null","null","[2,1]","","",""
"","canvas-keyboard-response","69","202526","0.0-6.0-0.9","547","","","","","pre trial waiting period","null","null","","","catch","sh","sw","l","171","209","171","173","263","218","trueblood","null","null","null","null","null","null","null","null","null","null","null","","180","200","260","200","36000","52000","[2,3]","445.98651406625413","500.5450583674643","469.77161314287"
"","canvas-keyboard-response","70","202548","0.0-6.0-1.9","547","","","","","clear_screen","null","null","","","catch","sh","sw","l","171","209","171","173","263","218","trueblood","null","null","null","null","null","null","null","null","null","null","null","","180","200","260","200","36000","52000","[2,3]","445.98651406625413","500.5450583674643","469.77161314287"
"","canvas-keyboard-response","71","203055","0.0-6.0-2.9","547","","","","","rectangles no change","null","null","","","catch","sh","sw","l","171","209","171","173","263","218","trueblood","null","null","null","null","null","null","null","null","null","null","null","","180","200","260","200","36000","52000","[2,3]","445.98651406625413","500.5450583674643","469.77161314287"
"","canvas-keyboard-response","72","204390","0.0-6.0-3.9","547","","","","","rectangles with change","null","null","","","catch","sh","sw","l","171","209","171","173","263","218","trueblood","null","null","null","null","null","null","null","null","null","null","null","","180","200","260","200","36000","52000","[2,3]","445.98651406625413","500.5450583674643","469.77161314287"
"","canvas-keyboard-response","73","204410","0.0-6.0-4.9","547","","","","","clear_screen","null","null","","","catch","sh","sw","l","171","209","171","173","263","218","trueblood","null","null","null","null","null","null","null","null","null","null","null","","180","200","260","200","36000","52000","[2,3]","445.98651406625413","500.5450583674643","469.77161314287"
"","canvas-keyboard-response","74","205776","0.0-6.0-5.9","547","","","","","make choice","1360","3","","","catch","sh","sw","l","171","209","171","173","263","218","trueblood","null","null","null","null","null","null","null","null","null","null","null","","180","200","260","200","36000","52000","[2,3]","","",""
"","canvas-keyboard-response","75","205794","0.0-6.0-6.9","547","","","","","clear_screen","null","null","","","catch","sh","sw","l","171","209","171","173","263","218","trueblood","null","null","null","null","null","null","null","null","null","null","null","","180","200","260","200","36000","52000","[2,3]","","",""
"","canvas-keyboard-response","76","205996","0.0-6.0-0.10","547","","","","","pre trial waiting period","null","null","","","critical","c","t","d","240","164","164","240","158.0083","227.1683","trueblood","0.09","h","164","240","240","164","158.0083","227.1683","39360","39360","35894.4834","dc","null","null","null","null","null","null","[3,1]","517.3096244948051","437.9785329805402","434.39717052767276"
"","canvas-keyboard-response","77","206015","0.0-6.0-1.10","547","","","","","clear_screen","null","null","","","critical","c","t","d","240","164","164","240","158.0083","227.1683","trueblood","0.09","h","164","240","240","164","158.0083","227.1683","39360","39360","35894.4834","dc","null","null","null","null","null","null","[3,1]","517.3096244948051","437.9785329805402","434.39717052767276"
"","canvas-keyboard-response","78","206520","0.0-6.0-2.10","547","","","","","rectangles no change","null","null","","","critical","c","t","d","240","164","164","240","158.0083","227.1683","trueblood","0.09","h","164","240","240","164","158.0083","227.1683","39360","39360","35894.4834","dc","null","null","null","null","null","null","[3,1]","517.3096244948051","437.9785329805402","434.39717052767276"
"","canvas-keyboard-response","79","207855","0.0-6.0-3.10","547","","","","","rectangles with change","null","null","","","critical","c","t","d","240","164","164","240","158.0083","227.1683","trueblood","0.09","h","164","240","240","164","158.0083","227.1683","39360","39360","35894.4834","dc","null","null","null","null","null","null","[3,1]","517.3096244948051","437.9785329805402","434.39717052767276"
"","canvas-keyboard-response","80","207874","0.0-6.0-4.10","547","","","","","clear_screen","null","null","","","critical","c","t","d","240","164","164","240","158.0083","227.1683","trueblood","0.09","h","164","240","240","164","158.0083","227.1683","39360","39360","35894.4834","dc","null","null","null","null","null","null","[3,1]","517.3096244948051","437.9785329805402","434.39717052767276"
"","canvas-keyboard-response","81","209033","0.0-6.0-5.10","547","","","","","make choice","1152","1","","","critical","c","t","d","240","164","164","240","158.0083","227.1683","trueblood","0.09","h","164","240","240","164","158.0083","227.1683","39360","39360","35894.4834","dc","null","null","null","null","null","null","[3,1]","","",""
"","canvas-keyboard-response","82","209051","0.0-6.0-6.10","547","","","","","clear_screen","null","null","","","critical","c","t","d","240","164","164","240","158.0083","227.1683","trueblood","0.09","h","164","240","240","164","158.0083","227.1683","39360","39360","35894.4834","dc","null","null","null","null","null","null","[3,1]","","",""
"","canvas-keyboard-response","83","209252","0.0-6.0-0.11","547","","","","","pre trial waiting period","null","null","","","critical","t","d","c","164","240","154.6796","220.0396","240","164","trueblood","0.14","h","164","240","240","164","154.6796","220.0396","39360","39360","34035.6388","dc","null","null","null","null","null","null","[2,3]","434.7206166386475","458.2274697863906","492.7184638102393"
"","canvas-keyboard-response","84","209272","0.0-6.0-1.11","547","","","","","clear_screen","null","null","","","critical","t","d","c","164","240","154.6796","220.0396","240","164","trueblood","0.14","h","164","240","240","164","154.6796","220.0396","39360","39360","34035.6388","dc","null","null","null","null","null","null","[2,3]","434.7206166386475","458.2274697863906","492.7184638102393"
"","canvas-keyboard-response","85","209776","0.0-6.0-2.11","547","","","","","rectangles no change","null","null","","","critical","t","d","c","164","240","154.6796","220.0396","240","164","trueblood","0.14","h","164","240","240","164","154.6796","220.0396","39360","39360","34035.6388","dc","null","null","null","null","null","null","[2,3]","434.7206166386475","458.2274697863906","492.7184638102393"
"","canvas-keyboard-response","86","211111","0.0-6.0-3.11","547","","","","","rectangles with change","null","null","","","critical","t","d","c","164","240","154.6796","220.0396","240","164","trueblood","0.14","h","164","240","240","164","154.6796","220.0396","39360","39360","34035.6388","dc","null","null","null","null","null","null","[2,3]","434.7206166386475","458.2274697863906","492.7184638102393"
"","canvas-keyboard-response","87","211132","0.0-6.0-4.11","547","","","","","clear_screen","null","null","","","critical","t","d","c","164","240","154.6796","220.0396","240","164","trueblood","0.14","h","164","240","240","164","154.6796","220.0396","39360","39360","34035.6388","dc","null","null","null","null","null","null","[2,3]","434.7206166386475","458.2274697863906","492.7184638102393"
"","canvas-keyboard-response","88","212735","0.0-6.0-5.11","547","","","","","make choice","1597","3","","","critical","t","d","c","164","240","154.6796","220.0396","240","164","trueblood","0.14","h","164","240","240","164","154.6796","220.0396","39360","39360","34035.6388","dc","null","null","null","null","null","null","[2,3]","","",""
"","canvas-keyboard-response","89","212749","0.0-6.0-6.11","547","","","","","clear_screen","null","null","","","critical","t","d","c","164","240","154.6796","220.0396","240","164","trueblood","0.14","h","164","240","240","164","154.6796","220.0396","39360","39360","34035.6388","dc","null","null","null","null","null","null","[2,3]","","",""
"","canvas-keyboard-response","90","212951","0.0-6.0-0.12","547","","","","","pre trial waiting period","null","null","","","critical","t","d","c","240","164","227.1683","158.0083","164","240","trueblood","0.09","w","240","164","164","240","227.1683","158.0083","39360","39360","35894.4834","td","null","null","null","null","null","null","[1,2]","513.2471301341335","473.2133759223754","436.32780654498987"
"","canvas-keyboard-response","91","212973","0.0-6.0-1.12","547","","","","","clear_screen","null","null","","","critical","t","d","c","240","164","227.1683","158.0083","164","240","trueblood","0.09","w","240","164","164","240","227.1683","158.0083","39360","39360","35894.4834","td","null","null","null","null","null","null","[1,2]","513.2471301341335","473.2133759223754","436.32780654498987"
"","canvas-keyboard-response","92","213483","0.0-6.0-2.12","547","","","","","rectangles no change","null","null","","","critical","t","d","c","240","164","227.1683","158.0083","164","240","trueblood","0.09","w","240","164","164","240","227.1683","158.0083","39360","39360","35894.4834","td","null","null","null","null","null","null","[1,2]","513.2471301341335","473.2133759223754","436.32780654498987"
"","canvas-keyboard-response","93","214819","0.0-6.0-3.12","547","","","","","rectangles with change","null","null","","","critical","t","d","c","240","164","227.1683","158.0083","164","240","trueblood","0.09","w","240","164","164","240","227.1683","158.0083","39360","39360","35894.4834","td","null","null","null","null","null","null","[1,2]","513.2471301341335","473.2133759223754","436.32780654498987"
"","canvas-keyboard-response","94","214841","0.0-6.0-4.12","547","","","","","clear_screen","null","null","","","critical","t","d","c","240","164","227.1683","158.0083","164","240","trueblood","0.09","w","240","164","164","240","227.1683","158.0083","39360","39360","35894.4834","td","null","null","null","null","null","null","[1,2]","513.2471301341335","473.2133759223754","436.32780654498987"
"","canvas-keyboard-response","95","215881","0.0-6.0-5.12","547","","","","","make choice","1035","1","","","critical","t","d","c","240","164","227.1683","158.0083","164","240","trueblood","0.09","w","240","164","164","240","227.1683","158.0083","39360","39360","35894.4834","td","null","null","null","null","null","null","[1,2]","","",""
"","canvas-keyboard-response","96","215901","0.0-6.0-6.12","547","","","","","clear_screen","null","null","","","critical","t","d","c","240","164","227.1683","158.0083","164","240","trueblood","0.09","w","240","164","164","240","227.1683","158.0083","39360","39360","35894.4834","td","null","null","null","null","null","null","[1,2]","","",""
"","canvas-keyboard-response","97","216102","0.0-6.0-0.13","547","","","","","pre trial waiting period","null","null","","","critical","t","c","d","164","240","240","164","164","240","spektor","0","h","164","240","240","164","164","240","39360","39360","39360","tc","null","null","null","null","null","null","[1,2]","482.8639518610773","149.52196661310919","461.9795190947702"
"","canvas-keyboard-response","98","216122","0.0-6.0-1.13","547","","","","","clear_screen","null","null","","","critical","t","c","d","164","240","240","164","164","240","spektor","0","h","164","240","240","164","164","240","39360","39360","39360","tc","null","null","null","null","null","null","[1,2]","482.8639518610773","149.52196661310919","461.9795190947702"
"","canvas-keyboard-response","99","216629","0.0-6.0-2.13","547","","","","","rectangles no change","null","null","","","critical","t","c","d","164","240","240","164","164","240","spektor","0","h","164","240","240","164","164","240","39360","39360","39360","tc","null","null","null","null","null","null","[1,2]","482.8639518610773","149.52196661310919","461.9795190947702"
"","canvas-keyboard-response","100","217965","0.0-6.0-3.13","547","","","","","rectangles with change","null","null","","","critical","t","c","d","164","240","240","164","164","240","spektor","0","h","164","240","240","164","164","240","39360","39360","39360","tc","null","null","null","null","null","null","[1,2]","482.8639518610773","149.52196661310919","461.9795190947702"
"","canvas-keyboard-response","101","217984","0.0-6.0-4.13","547","","","","","clear_screen","null","null","","","critical","t","c","d","164","240","240","164","164","240","spektor","0","h","164","240","240","164","164","240","39360","39360","39360","tc","null","null","null","null","null","null","[1,2]","482.8639518610773","149.52196661310919","461.9795190947702"
"","canvas-keyboard-response","102","218833","0.0-6.0-5.13","547","","","","","make choice","844","2","","","critical","t","c","d","164","240","240","164","164","240","spektor","0","h","164","240","240","164","164","240","39360","39360","39360","tc","null","null","null","null","null","null","[1,2]","","",""
"","canvas-keyboard-response","103","218851","0.0-6.0-6.13","547","","","","","clear_screen","null","null","","","critical","t","c","d","164","240","240","164","164","240","spektor","0","h","164","240","240","164","164","240","39360","39360","39360","tc","null","null","null","null","null","null","[1,2]","","",""
"","canvas-keyboard-response","104","219052","0.0-6.0-0.14","547","","","","","pre trial waiting period","null","null","","","critical","d","t","c","240","164","240","164","164","240","spektor","0","w","240","164","164","240","240","164","39360","39360","39360","tc","null","null","null","null","null","null","[2,3]","509.38658395674435","180.35836588615555","467.6650316601024"
"","canvas-keyboard-response","105","219071","0.0-6.0-1.14","547","","","","","clear_screen","null","null","","","critical","d","t","c","240","164","240","164","164","240","spektor","0","w","240","164","164","240","240","164","39360","39360","39360","tc","null","null","null","null","null","null","[2,3]","509.38658395674435","180.35836588615555","467.6650316601024"
"","canvas-keyboard-response","106","219578","0.0-6.0-2.14","547","","","","","rectangles no change","null","null","","","critical","d","t","c","240","164","240","164","164","240","spektor","0","w","240","164","164","240","240","164","39360","39360","39360","tc","null","null","null","null","null","null","[2,3]","509.38658395674435","180.35836588615555","467.6650316601024"
"","canvas-keyboard-response","107","220915","0.0-6.0-3.14","547","","","","","rectangles with change","null","null","","","critical","d","t","c","240","164","240","164","164","240","spektor","0","w","240","164","164","240","240","164","39360","39360","39360","tc","null","null","null","null","null","null","[2,3]","509.38658395674435","180.35836588615555","467.6650316601024"
"","canvas-keyboard-response","108","220933","0.0-6.0-4.14","547","","","","","clear_screen","null","null","","","critical","d","t","c","240","164","240","164","164","240","spektor","0","w","240","164","164","240","240","164","39360","39360","39360","tc","null","null","null","null","null","null","[2,3]","509.38658395674435","180.35836588615555","467.6650316601024"
"","canvas-keyboard-response","109","222280","0.0-6.0-5.14","547","","","","","make choice","1341","2","","","critical","d","t","c","240","164","240","164","164","240","spektor","0","w","240","164","164","240","240","164","39360","39360","39360","tc","null","null","null","null","null","null","[2,3]","","",""
"","canvas-keyboard-response","110","222299","0.0-6.0-6.14","547","","","","","clear_screen","null","null","","","critical","d","t","c","240","164","240","164","164","240","spektor","0","w","240","164","164","240","240","164","39360","39360","39360","tc","null","null","null","null","null","null","[2,3]","","",""
"","canvas-keyboard-response","111","222501","0.0-6.0-0.15","547","","","","","pre trial waiting period","null","null","","","critical","c","d","t","240","164","154.6796","220.0396","164","240","spektor","0.14","h","164","240","240","164","154.6796","220.0396","39360","39360","34035.6388","tc","null","null","null","null","null","null","[3,1]","538.8753807674605","134.65835776181243","462.5368080027455"
"","canvas-keyboard-response","112","222522","0.0-6.0-1.15","547","","","","","clear_screen","null","null","","","critical","c","d","t","240","164","154.6796","220.0396","164","240","spektor","0.14","h","164","240","240","164","154.6796","220.0396","39360","39360","34035.6388","tc","null","null","null","null","null","null","[3,1]","538.8753807674605","134.65835776181243","462.5368080027455"
"","canvas-keyboard-response","113","223028","0.0-6.0-2.15","547","","","","","rectangles no change","null","null","","","critical","c","d","t","240","164","154.6796","220.0396","164","240","spektor","0.14","h","164","240","240","164","154.6796","220.0396","39360","39360","34035.6388","tc","null","null","null","null","null","null","[3,1]","538.8753807674605","134.65835776181243","462.5368080027455"
"","canvas-keyboard-response","114","224363","0.0-6.0-3.15","547","","","","","rectangles with change","null","null","","","critical","c","d","t","240","164","154.6796","220.0396","164","240","spektor","0.14","h","164","240","240","164","154.6796","220.0396","39360","39360","34035.6388","tc","null","null","null","null","null","null","[3,1]","538.8753807674605","134.65835776181243","462.5368080027455"
"","canvas-keyboard-response","115","224383","0.0-6.0-4.15","547","","","","","clear_screen","null","null","","","critical","c","d","t","240","164","154.6796","220.0396","164","240","spektor","0.14","h","164","240","240","164","154.6796","220.0396","39360","39360","34035.6388","tc","null","null","null","null","null","null","[3,1]","538.8753807674605","134.65835776181243","462.5368080027455"
"","canvas-keyboard-response","116","225384","0.0-6.0-5.15","547","","","","","make choice","993","1","","","critical","c","d","t","240","164","154.6796","220.0396","164","240","spektor","0.14","h","164","240","240","164","154.6796","220.0396","39360","39360","34035.6388","tc","null","null","null","null","null","null","[3,1]","","",""
"","canvas-keyboard-response","117","225404","0.0-6.0-6.15","547","","","","","clear_screen","null","null","","","critical","c","d","t","240","164","154.6796","220.0396","164","240","spektor","0.14","h","164","240","240","164","154.6796","220.0396","39360","39360","34035.6388","tc","null","null","null","null","null","null","[3,1]","","",""
"","canvas-keyboard-response","118","225606","0.0-6.0-0.16","547","","","","","pre trial waiting period","null","null","","","catch","sw","sh","l","180","200","235","161","273","220","spektor","null","null","null","null","null","null","null","null","null","null","null","","180","200","260","200","36000","52000","[2,3]","491.2060365931241","187.69478355305938","476.77027264538606"
"","canvas-keyboard-response","119","225626","0.0-6.0-1.16","547","","","","","clear_screen","null","null","","","catch","sw","sh","l","180","200","235","161","273","220","spektor","null","null","null","null","null","null","null","null","null","null","null","","180","200","260","200","36000","52000","[2,3]","491.2060365931241","187.69478355305938","476.77027264538606"
"","canvas-keyboard-response","120","226132","0.0-6.0-2.16","547","","","","","rectangles no change","null","null","","","catch","sw","sh","l","180","200","235","161","273","220","spektor","null","null","null","null","null","null","null","null","null","null","null","","180","200","260","200","36000","52000","[2,3]","491.2060365931241","187.69478355305938","476.77027264538606"
"","canvas-keyboard-response","121","227467","0.0-6.0-3.16","547","","","","","rectangles with change","null","null","","","catch","sw","sh","l","180","200","235","161","273","220","spektor","null","null","null","null","null","null","null","null","null","null","null","","180","200","260","200","36000","52000","[2,3]","491.2060365931241","187.69478355305938","476.77027264538606"
"","canvas-keyboard-response","122","227486","0.0-6.0-4.16","547","","","","","clear_screen","null","null","","","catch","sw","sh","l","180","200","235","161","273","220","spektor","null","null","null","null","null","null","null","null","null","null","null","","180","200","260","200","36000","52000","[2,3]","491.2060365931241","187.69478355305938","476.77027264538606"
"","canvas-keyboard-response","123","228409","0.0-6.0-5.16","547","","","","","make choice","919","3","","","catch","sw","sh","l","180","200","235","161","273","220","spektor","null","null","null","null","null","null","null","null","null","null","null","","180","200","260","200","36000","52000","[2,3]","","",""
"","canvas-keyboard-response","124","228427","0.0-6.0-6.16","547","","","","","clear_screen","null","null","","","catch","sw","sh","l","180","200","235","161","273","220","spektor","null","null","null","null","null","null","null","null","null","null","null","","180","200","260","200","36000","52000","[2,3]","","",""
"","canvas-keyboard-response","125","228628","0.0-6.0-0.17","547","","","","","pre trial waiting period","null","null","","","critical","c","t","d","240","164","164","240","164","240","trueblood","0","h","164","240","240","164","164","240","39360","39360","39360","tc","null","null","null","null","null","null","[2,1]","477.6297580140426","461.6141485071399","460.0833340007078"
"","canvas-keyboard-response","126","228649","0.0-6.0-1.17","547","","","","","clear_screen","null","null","","","critical","c","t","d","240","164","164","240","164","240","trueblood","0","h","164","240","240","164","164","240","39360","39360","39360","tc","null","null","null","null","null","null","[2,1]","477.6297580140426","461.6141485071399","460.0833340007078"
"","canvas-keyboard-response","127","229156","0.0-6.0-2.17","547","","","","","rectangles no change","null","null","","","critical","c","t","d","240","164","164","240","164","240","trueblood","0","h","164","240","240","164","164","240","39360","39360","39360","tc","null","null","null","null","null","null","[2,1]","477.6297580140426","461.6141485071399","460.0833340007078"
"","canvas-keyboard-response","128","230496","0.0-6.0-3.17","547","","","","","rectangles with change","null","null","","","critical","c","t","d","240","164","164","240","164","240","trueblood","0","h","164","240","240","164","164","240","39360","39360","39360","tc","null","null","null","null","null","null","[2,1]","477.6297580140426","461.6141485071399","460.0833340007078"
"","canvas-keyboard-response","129","230514","0.0-6.0-4.17","547","","","","","clear_screen","null","null","","","critical","c","t","d","240","164","164","240","164","240","trueblood","0","h","164","240","240","164","164","240","39360","39360","39360","tc","null","null","null","null","null","null","[2,1]","477.6297580140426","461.6141485071399","460.0833340007078"
"","canvas-keyboard-response","130","231369","0.0-6.0-5.17","547","","","","","make choice","850","1","","","critical","c","t","d","240","164","164","240","164","240","trueblood","0","h","164","240","240","164","164","240","39360","39360","39360","tc","null","null","null","null","null","null","[2,1]","","",""
"","canvas-keyboard-response","131","231388","0.0-6.0-6.17","547","","","","","clear_screen","null","null","","","critical","c","t","d","240","164","164","240","164","240","trueblood","0","h","164","240","240","164","164","240","39360","39360","39360","tc","null","null","null","null","null","null","[2,1]","","",""
"","canvas-keyboard-response","132","231589","0.0-6.0-0.18","547","","","","","pre trial waiting period","null","null","","","critical","c","d","t","164","240","240","164","240","164","spektor","0","w","240","164","164","240","240","164","39360","39360","39360","td","null","null","null","null","null","null","[3,2]","493.81583806410515","169.51630307088953","493.73261262150066"
"","canvas-keyboard-response","133","231610","0.0-6.0-1.18","547","","","","","clear_screen","null","null","","","critical","c","d","t","164","240","240","164","240","164","spektor","0","w","240","164","164","240","240","164","39360","39360","39360","td","null","null","null","null","null","null","[3,2]","493.81583806410515","169.51630307088953","493.73261262150066"
"","canvas-keyboard-response","134","232115","0.0-6.0-2.18","547","","","","","rectangles no change","null","null","","","critical","c","d","t","164","240","240","164","240","164","spektor","0","w","240","164","164","240","240","164","39360","39360","39360","td","null","null","null","null","null","null","[3,2]","493.81583806410515","169.51630307088953","493.73261262150066"
"","canvas-keyboard-response","135","233453","0.0-6.0-3.18","547","","","","","rectangles with change","null","null","","","critical","c","d","t","164","240","240","164","240","164","spektor","0","w","240","164","164","240","240","164","39360","39360","39360","td","null","null","null","null","null","null","[3,2]","493.81583806410515","169.51630307088953","493.73261262150066"
"","canvas-keyboard-response","136","233472","0.0-6.0-4.18","547","","","","","clear_screen","null","null","","","critical","c","d","t","164","240","240","164","240","164","spektor","0","w","240","164","164","240","240","164","39360","39360","39360","td","null","null","null","null","null","null","[3,2]","493.81583806410515","169.51630307088953","493.73261262150066"
"","canvas-keyboard-response","137","234161","0.0-6.0-5.18","547","","","","","make choice","680","3","","","critical","c","d","t","164","240","240","164","240","164","spektor","0","w","240","164","164","240","240","164","39360","39360","39360","td","null","null","null","null","null","null","[3,2]","","",""
"","canvas-keyboard-response","138","234179","0.0-6.0-6.18","547","","","","","clear_screen","null","null","","","critical","c","d","t","164","240","240","164","240","164","spektor","0","w","240","164","164","240","240","164","39360","39360","39360","td","null","null","null","null","null","null","[3,2]","","",""
"","canvas-keyboard-response","139","234382","0.0-6.0-0.19","547","","","","","pre trial waiting period","null","null","","","critical","d","t","c","237.1485","162.6685","240","164","164","240","spektor","0.02","w","240","164","164","240","237.1485","162.6685","39360","39360","38576.5967","dc","null","null","null","null","null","null","[1,3]","496.7911949687911","204.63104074300009","498.68053821832183"
"","canvas-keyboard-response","140","234402","0.0-6.0-1.19","547","","","","","clear_screen","null","null","","","critical","d","t","c","237.1485","162.6685","240","164","164","240","spektor","0.02","w","240","164","164","240","237.1485","162.6685","39360","39360","38576.5967","dc","null","null","null","null","null","null","[1,3]","496.7911949687911","204.63104074300009","498.68053821832183"
"","canvas-keyboard-response","141","234912","0.0-6.0-2.19","547","","","","","rectangles no change","null","null","","","critical","d","t","c","237.1485","162.6685","240","164","164","240","spektor","0.02","w","240","164","164","240","237.1485","162.6685","39360","39360","38576.5967","dc","null","null","null","null","null","null","[1,3]","496.7911949687911","204.63104074300009","498.68053821832183"
"","canvas-keyboard-response","142","236247","0.0-6.0-3.19","547","","","","","rectangles with change","null","null","","","critical","d","t","c","237.1485","162.6685","240","164","164","240","spektor","0.02","w","240","164","164","240","237.1485","162.6685","39360","39360","38576.5967","dc","null","null","null","null","null","null","[1,3]","496.7911949687911","204.63104074300009","498.68053821832183"
"","canvas-keyboard-response","143","236265","0.0-6.0-4.19","547","","","","","clear_screen","null","null","","","critical","d","t","c","237.1485","162.6685","240","164","164","240","spektor","0.02","w","240","164","164","240","237.1485","162.6685","39360","39360","38576.5967","dc","null","null","null","null","null","null","[1,3]","496.7911949687911","204.63104074300009","498.68053821832183"
"","canvas-keyboard-response","144","237144","0.0-6.0-5.19","547","","","","","make choice","872","1","","","critical","d","t","c","237.1485","162.6685","240","164","164","240","spektor","0.02","w","240","164","164","240","237.1485","162.6685","39360","39360","38576.5967","dc","null","null","null","null","null","null","[1,3]","","",""
"","canvas-keyboard-response","145","237162","0.0-6.0-6.19","547","","","","","clear_screen","null","null","","","critical","d","t","c","237.1485","162.6685","240","164","164","240","spektor","0.02","w","240","164","164","240","237.1485","162.6685","39360","39360","38576.5967","dc","null","null","null","null","null","null","[1,3]","","",""
"","canvas-keyboard-response","146","237363","0.0-6.0-0.20","547","","","","","pre trial waiting period","null","null","","","critical","d","t","c","158.0083","227.1683","164","240","240","164","spektor","0.09","h","164","240","240","164","158.0083","227.1683","39360","39360","35894.4834","td","null","null","null","null","null","null","[2,1]","509.254947641492","95.16834498947483","494.54565393780945"
"","canvas-keyboard-response","147","237383","0.0-6.0-1.20","547","","","","","clear_screen","null","null","","","critical","d","t","c","158.0083","227.1683","164","240","240","164","spektor","0.09","h","164","240","240","164","158.0083","227.1683","39360","39360","35894.4834","td","null","null","null","null","null","null","[2,1]","509.254947641492","95.16834498947483","494.54565393780945"
"","canvas-keyboard-response","148","237892","0.0-6.0-2.20","547","","","","","rectangles no change","null","null","","","critical","d","t","c","158.0083","227.1683","164","240","240","164","spektor","0.09","h","164","240","240","164","158.0083","227.1683","39360","39360","35894.4834","td","null","null","null","null","null","null","[2,1]","509.254947641492","95.16834498947483","494.54565393780945"
"","canvas-keyboard-response","149","239230","0.0-6.0-3.20","547","","","","","rectangles with change","null","null","","","critical","d","t","c","158.0083","227.1683","164","240","240","164","spektor","0.09","h","164","240","240","164","158.0083","227.1683","39360","39360","35894.4834","td","null","null","null","null","null","null","[2,1]","509.254947641492","95.16834498947483","494.54565393780945"
"","canvas-keyboard-response","150","239252","0.0-6.0-4.20","547","","","","","clear_screen","null","null","","","critical","d","t","c","158.0083","227.1683","164","240","240","164","spektor","0.09","h","164","240","240","164","158.0083","227.1683","39360","39360","35894.4834","td","null","null","null","null","null","null","[2,1]","509.254947641492","95.16834498947483","494.54565393780945"
"","canvas-keyboard-response","151","241648","0.0-6.0-5.20","547","","","","","make choice","2386","1","","","critical","d","t","c","158.0083","227.1683","164","240","240","164","spektor","0.09","h","164","240","240","164","158.0083","227.1683","39360","39360","35894.4834","td","null","null","null","null","null","null","[2,1]","","",""
"","canvas-keyboard-response","152","241666","0.0-6.0-6.20","547","","","","","clear_screen","null","null","","","critical","d","t","c","158.0083","227.1683","164","240","240","164","spektor","0.09","h","164","240","240","164","158.0083","227.1683","39360","39360","35894.4834","td","null","null","null","null","null","null","[2,1]","","",""
"","canvas-keyboard-response","153","241867","0.0-6.0-0.21","547","","","","","pre trial waiting period","null","null","","","critical","d","c","t","237.1485","162.6685","164","240","240","164","trueblood","0.02","w","240","164","164","240","237.1485","162.6685","39360","39360","38576.5967","td","null","null","null","null","null","null","[3,1]","503.45790445674305","466.6470880855287","493.79937566142394"
"","canvas-keyboard-response","154","241888","0.0-6.0-1.21","547","","","","","clear_screen","null","null","","","critical","d","c","t","237.1485","162.6685","164","240","240","164","trueblood","0.02","w","240","164","164","240","237.1485","162.6685","39360","39360","38576.5967","td","null","null","null","null","null","null","[3,1]","503.45790445674305","466.6470880855287","493.79937566142394"
"","canvas-keyboard-response","155","242395","0.0-6.0-2.21","547","","","","","rectangles no change","null","null","","","critical","d","c","t","237.1485","162.6685","164","240","240","164","trueblood","0.02","w","240","164","164","240","237.1485","162.6685","39360","39360","38576.5967","td","null","null","null","null","null","null","[3,1]","503.45790445674305","466.6470880855287","493.79937566142394"
"","canvas-keyboard-response","156","243732","0.0-6.0-3.21","547","","","","","rectangles with change","null","null","","","critical","d","c","t","237.1485","162.6685","164","240","240","164","trueblood","0.02","w","240","164","164","240","237.1485","162.6685","39360","39360","38576.5967","td","null","null","null","null","null","null","[3,1]","503.45790445674305","466.6470880855287","493.79937566142394"
"","canvas-keyboard-response","157","243751","0.0-6.0-4.21","547","","","","","clear_screen","null","null","","","critical","d","c","t","237.1485","162.6685","164","240","240","164","trueblood","0.02","w","240","164","164","240","237.1485","162.6685","39360","39360","38576.5967","td","null","null","null","null","null","null","[3,1]","503.45790445674305","466.6470880855287","493.79937566142394"
"","canvas-keyboard-response","158","245888","0.0-6.0-5.21","547","","","","","make choice","2132","3","","","critical","d","c","t","237.1485","162.6685","164","240","240","164","trueblood","0.02","w","240","164","164","240","237.1485","162.6685","39360","39360","38576.5967","td","null","null","null","null","null","null","[3,1]","","",""
"","canvas-keyboard-response","159","245906","0.0-6.0-6.21","547","","","","","clear_screen","null","null","","","critical","d","c","t","237.1485","162.6685","164","240","240","164","trueblood","0.02","w","240","164","164","240","237.1485","162.6685","39360","39360","38576.5967","td","null","null","null","null","null","null","[3,1]","","",""
"","canvas-keyboard-response","160","246108","0.0-6.0-0.22","547","","","","","pre trial waiting period","null","null","","","critical","t","c","d","240","164","164","240","227.1683","158.0083","spektor","0.09","w","240","164","164","240","227.1683","158.0083","39360","39360","35894.4834","tc","null","null","null","null","null","null","[1,2]","514.2078302671724","112.6546770810251","503.5618261492455"
"","canvas-keyboard-response","161","246130","0.0-6.0-1.22","547","","","","","clear_screen","null","null","","","critical","t","c","d","240","164","164","240","227.1683","158.0083","spektor","0.09","w","240","164","164","240","227.1683","158.0083","39360","39360","35894.4834","tc","null","null","null","null","null","null","[1,2]","514.2078302671724","112.6546770810251","503.5618261492455"
"","canvas-keyboard-response","162","246635","0.0-6.0-2.22","547","","","","","rectangles no change","null","null","","","critical","t","c","d","240","164","164","240","227.1683","158.0083","spektor","0.09","w","240","164","164","240","227.1683","158.0083","39360","39360","35894.4834","tc","null","null","null","null","null","null","[1,2]","514.2078302671724","112.6546770810251","503.5618261492455"
"","canvas-keyboard-response","163","247971","0.0-6.0-3.22","547","","","","","rectangles with change","null","null","","","critical","t","c","d","240","164","164","240","227.1683","158.0083","spektor","0.09","w","240","164","164","240","227.1683","158.0083","39360","39360","35894.4834","tc","null","null","null","null","null","null","[1,2]","514.2078302671724","112.6546770810251","503.5618261492455"
"","canvas-keyboard-response","164","247991","0.0-6.0-4.22","547","","","","","clear_screen","null","null","","","critical","t","c","d","240","164","164","240","227.1683","158.0083","spektor","0.09","w","240","164","164","240","227.1683","158.0083","39360","39360","35894.4834","tc","null","null","null","null","null","null","[1,2]","514.2078302671724","112.6546770810251","503.5618261492455"
"","canvas-keyboard-response","165","249089","0.0-6.0-5.22","547","","","","","make choice","1093","1","","","critical","t","c","d","240","164","164","240","227.1683","158.0083","spektor","0.09","w","240","164","164","240","227.1683","158.0083","39360","39360","35894.4834","tc","null","null","null","null","null","null","[1,2]","","",""
"","canvas-keyboard-response","166","249108","0.0-6.0-6.22","547","","","","","clear_screen","null","null","","","critical","t","c","d","240","164","164","240","227.1683","158.0083","spektor","0.09","w","240","164","164","240","227.1683","158.0083","39360","39360","35894.4834","tc","null","null","null","null","null","null","[1,2]","","",""
"","canvas-keyboard-response","167","249309","0.0-6.0-0.23","547","","","","","pre trial waiting period","null","null","","","critical","d","c","t","227.1683","158.0083","164","240","240","164","spektor","0.09","w","240","164","164","240","227.1683","158.0083","39360","39360","35894.4834","dc","null","null","null","null","null","null","[1,2]","523.757152521737","143.62819374647123","522.1207784542675"
"","canvas-keyboard-response","168","249331","0.0-6.0-1.23","547","","","","","clear_screen","null","null","","","critical","d","c","t","227.1683","158.0083","164","240","240","164","spektor","0.09","w","240","164","164","240","227.1683","158.0083","39360","39360","35894.4834","dc","null","null","null","null","null","null","[1,2]","523.757152521737","143.62819374647123","522.1207784542675"
"","canvas-keyboard-response","169","249836","0.0-6.0-2.23","547","","","","","rectangles no change","null","null","","","critical","d","c","t","227.1683","158.0083","164","240","240","164","spektor","0.09","w","240","164","164","240","227.1683","158.0083","39360","39360","35894.4834","dc","null","null","null","null","null","null","[1,2]","523.757152521737","143.62819374647123","522.1207784542675"
"","canvas-keyboard-response","170","251173","0.0-6.0-3.23","547","","","","","rectangles with change","null","null","","","critical","d","c","t","227.1683","158.0083","164","240","240","164","spektor","0.09","w","240","164","164","240","227.1683","158.0083","39360","39360","35894.4834","dc","null","null","null","null","null","null","[1,2]","523.757152521737","143.62819374647123","522.1207784542675"
"","canvas-keyboard-response","171","251196","0.0-6.0-4.23","547","","","","","clear_screen","null","null","","","critical","d","c","t","227.1683","158.0083","164","240","240","164","spektor","0.09","w","240","164","164","240","227.1683","158.0083","39360","39360","35894.4834","dc","null","null","null","null","null","null","[1,2]","523.757152521737","143.62819374647123","522.1207784542675"
"","canvas-keyboard-response","172","252360","0.0-6.0-5.23","547","","","","","make choice","1159","1","","","critical","d","c","t","227.1683","158.0083","164","240","240","164","spektor","0.09","w","240","164","164","240","227.1683","158.0083","39360","39360","35894.4834","dc","null","null","null","null","null","null","[1,2]","","",""
"","canvas-keyboard-response","173","252379","0.0-6.0-6.23","547","","","","","clear_screen","null","null","","","critical","d","c","t","227.1683","158.0083","164","240","240","164","spektor","0.09","w","240","164","164","240","227.1683","158.0083","39360","39360","35894.4834","dc","null","null","null","null","null","null","[1,2]","","",""
"","canvas-keyboard-response","174","252581","0.0-6.0-0.24","547","","","","","pre trial waiting period","null","null","","","catch","sw","l","sh","180","200","232","262","165","159","trueblood","null","null","null","null","null","null","null","null","null","null","null","","180","200","260","200","36000","52000","[1,2]","484.7307845143822","434.6032776494566","477.3857352157041"
"","canvas-keyboard-response","175","252602","0.0-6.0-1.24","547","","","","","clear_screen","null","null","","","catch","sw","l","sh","180","200","232","262","165","159","trueblood","null","null","null","null","null","null","null","null","null","null","null","","180","200","260","200","36000","52000","[1,2]","484.7307845143822","434.6032776494566","477.3857352157041"
"","canvas-keyboard-response","176","253113","0.0-6.0-2.24","547","","","","","rectangles no change","null","null","","","catch","sw","l","sh","180","200","232","262","165","159","trueblood","null","null","null","null","null","null","null","null","null","null","null","","180","200","260","200","36000","52000","[1,2]","484.7307845143822","434.6032776494566","477.3857352157041"
"","canvas-keyboard-response","177","254449","0.0-6.0-3.24","547","","","","","rectangles with change","null","null","","","catch","sw","l","sh","180","200","232","262","165","159","trueblood","null","null","null","null","null","null","null","null","null","null","null","","180","200","260","200","36000","52000","[1,2]","484.7307845143822","434.6032776494566","477.3857352157041"
"","canvas-keyboard-response","178","254469","0.0-6.0-4.24","547","","","","","clear_screen","null","null","","","catch","sw","l","sh","180","200","232","262","165","159","trueblood","null","null","null","null","null","null","null","null","null","null","null","","180","200","260","200","36000","52000","[1,2]","484.7307845143822","434.6032776494566","477.3857352157041"
"","canvas-keyboard-response","179","255401","0.0-6.0-5.24","547","","","","","make choice","928","2","","","catch","sw","l","sh","180","200","232","262","165","159","trueblood","null","null","null","null","null","null","null","null","null","null","null","","180","200","260","200","36000","52000","[1,2]","","",""
"","canvas-keyboard-response","180","255421","0.0-6.0-6.24","547","","","","","clear_screen","null","null","","","catch","sw","l","sh","180","200","232","262","165","159","trueblood","null","null","null","null","null","null","null","null","null","null","null","","180","200","260","200","36000","52000","[1,2]","","",""
"","canvas-keyboard-response","181","255621","0.0-6.0-0.25","547","","","","","pre trial waiting period","null","null","","","critical","t","c","d","164","240","240","164","164","240","trueblood","0","h","164","240","240","164","164","240","39360","39360","39360","td","null","null","null","null","null","null","[1,3]","464.08516663213345","493.5760434893851","457.5800462044607"
"","canvas-keyboard-response","182","255645","0.0-6.0-1.25","547","","","","","clear_screen","null","null","","","critical","t","c","d","164","240","240","164","164","240","trueblood","0","h","164","240","240","164","164","240","39360","39360","39360","td","null","null","null","null","null","null","[1,3]","464.08516663213345","493.5760434893851","457.5800462044607"
"","canvas-keyboard-response","183","256152","0.0-6.0-2.25","547","","","","","rectangles no change","null","null","","","critical","t","c","d","164","240","240","164","164","240","trueblood","0","h","164","240","240","164","164","240","39360","39360","39360","td","null","null","null","null","null","null","[1,3]","464.08516663213345","493.5760434893851","457.5800462044607"
"","canvas-keyboard-response","184","257486","0.0-6.0-3.25","547","","","","","rectangles with change","null","null","","","critical","t","c","d","164","240","240","164","164","240","trueblood","0","h","164","240","240","164","164","240","39360","39360","39360","td","null","null","null","null","null","null","[1,3]","464.08516663213345","493.5760434893851","457.5800462044607"
"","canvas-keyboard-response","185","257507","0.0-6.0-4.25","547","","","","","clear_screen","null","null","","","critical","t","c","d","164","240","240","164","164","240","trueblood","0","h","164","240","240","164","164","240","39360","39360","39360","td","null","null","null","null","null","null","[1,3]","464.08516663213345","493.5760434893851","457.5800462044607"
"","canvas-keyboard-response","186","258633","0.0-6.0-5.25","547","","","","","make choice","1120","3","","","critical","t","c","d","164","240","240","164","164","240","trueblood","0","h","164","240","240","164","164","240","39360","39360","39360","td","null","null","null","null","null","null","[1,3]","","",""
"","canvas-keyboard-response","187","258651","0.0-6.0-6.25","547","","","","","clear_screen","null","null","","","critical","t","c","d","164","240","240","164","164","240","trueblood","0","h","164","240","240","164","164","240","39360","39360","39360","td","null","null","null","null","null","null","[1,3]","","",""
"","canvas-keyboard-response","188","258852","0.0-6.0-0.26","547","","","","","pre trial waiting period","null","null","","","critical","d","t","c","232.8713","160.6713","240","164","164","240","spektor","0.05","w","240","164","164","240","232.8713","160.6713","39360","39360","37415.7294","dc","null","null","null","null","null","null","[1,3]","527.2203518752032","183.99580062898738","460.1550322684826"
"","canvas-keyboard-response","189","258873","0.0-6.0-1.26","547","","","","","clear_screen","null","null","","","critical","d","t","c","232.8713","160.6713","240","164","164","240","spektor","0.05","w","240","164","164","240","232.8713","160.6713","39360","39360","37415.7294","dc","null","null","null","null","null","null","[1,3]","527.2203518752032","183.99580062898738","460.1550322684826"
"","canvas-keyboard-response","190","259381","0.0-6.0-2.26","547","","","","","rectangles no change","null","null","","","critical","d","t","c","232.8713","160.6713","240","164","164","240","spektor","0.05","w","240","164","164","240","232.8713","160.6713","39360","39360","37415.7294","dc","null","null","null","null","null","null","[1,3]","527.2203518752032","183.99580062898738","460.1550322684826"
"","canvas-keyboard-response","191","260717","0.0-6.0-3.26","547","","","","","rectangles with change","null","null","","","critical","d","t","c","232.8713","160.6713","240","164","164","240","spektor","0.05","w","240","164","164","240","232.8713","160.6713","39360","39360","37415.7294","dc","null","null","null","null","null","null","[1,3]","527.2203518752032","183.99580062898738","460.1550322684826"
"","canvas-keyboard-response","192","260737","0.0-6.0-4.26","547","","","","","clear_screen","null","null","","","critical","d","t","c","232.8713","160.6713","240","164","164","240","spektor","0.05","w","240","164","164","240","232.8713","160.6713","39360","39360","37415.7294","dc","null","null","null","null","null","null","[1,3]","527.2203518752032","183.99580062898738","460.1550322684826"
"","canvas-keyboard-response","193","261425","0.0-6.0-5.26","547","","","","","make choice","683","1","","","critical","d","t","c","232.8713","160.6713","240","164","164","240","spektor","0.05","w","240","164","164","240","232.8713","160.6713","39360","39360","37415.7294","dc","null","null","null","null","null","null","[1,3]","","",""
"","canvas-keyboard-response","194","261445","0.0-6.0-6.26","547","","","","","clear_screen","null","null","","","critical","d","t","c","232.8713","160.6713","240","164","164","240","spektor","0.05","w","240","164","164","240","232.8713","160.6713","39360","39360","37415.7294","dc","null","null","null","null","null","null","[1,3]","","",""
"","canvas-keyboard-response","195","261646","0.0-6.0-0.27","547","","","","","pre trial waiting period","null","null","","","catch","l","sh","sw","266","174","218","200","141","195","trueblood","null","null","null","null","null","null","null","null","null","null","null","","180","200","260","200","36000","52000","[1,3]","510.6709174576143","476.10801475036317","480.088735634407"
"","canvas-keyboard-response","196","261668","0.0-6.0-1.27","547","","","","","clear_screen","null","null","","","catch","l","sh","sw","266","174","218","200","141","195","trueblood","null","null","null","null","null","null","null","null","null","null","null","","180","200","260","200","36000","52000","[1,3]","510.6709174576143","476.10801475036317","480.088735634407"
"","canvas-keyboard-response","197","262176","0.0-6.0-2.27","547","","","","","rectangles no change","null","null","","","catch","l","sh","sw","266","174","218","200","141","195","trueblood","null","null","null","null","null","null","null","null","null","null","null","","180","200","260","200","36000","52000","[1,3]","510.6709174576143","476.10801475036317","480.088735634407"
"","canvas-keyboard-response","198","263511","0.0-6.0-3.27","547","","","","","rectangles with change","null","null","","","catch","l","sh","sw","266","174","218","200","141","195","trueblood","null","null","null","null","null","null","null","null","null","null","null","","180","200","260","200","36000","52000","[1,3]","510.6709174576143","476.10801475036317","480.088735634407"
"","canvas-keyboard-response","199","263533","0.0-6.0-4.27","547","","","","","clear_screen","null","null","","","catch","l","sh","sw","266","174","218","200","141","195","trueblood","null","null","null","null","null","null","null","null","null","null","null","","180","200","260","200","36000","52000","[1,3]","510.6709174576143","476.10801475036317","480.088735634407"
"","canvas-keyboard-response","200","264400","0.0-6.0-5.27","547","","","","","make choice","860","1","","","catch","l","sh","sw","266","174","218","200","141","195","trueblood","null","null","null","null","null","null","null","null","null","null","null","","180","200","260","200","36000","52000","[1,3]","","",""
"","canvas-keyboard-response","201","264420","0.0-6.0-6.27","547","","","","","clear_screen","null","null","","","catch","l","sh","sw","266","174","218","200","141","195","trueblood","null","null","null","null","null","null","null","null","null","null","null","","180","200","260","200","36000","52000","[1,3]","","",""
"","canvas-keyboard-response","202","264621","0.0-6.0-0.28","547","","","","","pre trial waiting period","null","null","","","critical","t","c","d","164","240","240","164","164","240","spektor","0","h","164","240","240","164","164","240","39360","39360","39360","dc","null","null","null","null","null","null","[3,2]","471.9105478160287","158.40541891125594","481.08381533436125"
"","canvas-keyboard-response","203","264640","0.0-6.0-1.28","547","","","","","clear_screen","null","null","","","critical","t","c","d","164","240","240","164","164","240","spektor","0","h","164","240","240","164","164","240","39360","39360","39360","dc","null","null","null","null","null","null","[3,2]","471.9105478160287","158.40541891125594","481.08381533436125"
"","canvas-keyboard-response","204","265150","0.0-6.0-2.28","547","","","","","rectangles no change","null","null","","","critical","t","c","d","164","240","240","164","164","240","spektor","0","h","164","240","240","164","164","240","39360","39360","39360","dc","null","null","null","null","null","null","[3,2]","471.9105478160287","158.40541891125594","481.08381533436125"
"","canvas-keyboard-response","205","266489","0.0-6.0-3.28","547","","","","","rectangles with change","null","null","","","critical","t","c","d","164","240","240","164","164","240","spektor","0","h","164","240","240","164","164","240","39360","39360","39360","dc","null","null","null","null","null","null","[3,2]","471.9105478160287","158.40541891125594","481.08381533436125"
"","canvas-keyboard-response","206","266510","0.0-6.0-4.28","547","","","","","clear_screen","null","null","","","critical","t","c","d","164","240","240","164","164","240","spektor","0","h","164","240","240","164","164","240","39360","39360","39360","dc","null","null","null","null","null","null","[3,2]","471.9105478160287","158.40541891125594","481.08381533436125"
"","canvas-keyboard-response","207","267250","0.0-6.0-5.28","547","","","","","make choice","734","2","","","critical","t","c","d","164","240","240","164","164","240","spektor","0","h","164","240","240","164","164","240","39360","39360","39360","dc","null","null","null","null","null","null","[3,2]","","",""
"","canvas-keyboard-response","208","267267","0.0-6.0-6.28","547","","","","","clear_screen","null","null","","","critical","t","c","d","164","240","240","164","164","240","spektor","0","h","164","240","240","164","164","240","39360","39360","39360","dc","null","null","null","null","null","null","[3,2]","","",""
"","canvas-keyboard-response","209","267468","0.0-6.0-0.29","547","","","","","pre trial waiting period","null","null","","","catch","sh","sw","l","183","164","153","192","231","172","spektor","null","null","null","null","null","null","null","null","null","null","null","","180","200","260","200","36000","52000","[2,3]","537.1708595584507","204.79995801999064","518.0263942274678"
"","canvas-keyboard-response","210","267489","0.0-6.0-1.29","547","","","","","clear_screen","null","null","","","catch","sh","sw","l","183","164","153","192","231","172","spektor","null","null","null","null","null","null","null","null","null","null","null","","180","200","260","200","36000","52000","[2,3]","537.1708595584507","204.79995801999064","518.0263942274678"
"","canvas-keyboard-response","211","267994","0.0-6.0-2.29","547","","","","","rectangles no change","null","null","","","catch","sh","sw","l","183","164","153","192","231","172","spektor","null","null","null","null","null","null","null","null","null","null","null","","180","200","260","200","36000","52000","[2,3]","537.1708595584507","204.79995801999064","518.0263942274678"
"","canvas-keyboard-response","212","269330","0.0-6.0-3.29","547","","","","","rectangles with change","null","null","","","catch","sh","sw","l","183","164","153","192","231","172","spektor","null","null","null","null","null","null","null","null","null","null","null","","180","200","260","200","36000","52000","[2,3]","537.1708595584507","204.79995801999064","518.0263942274678"
"","canvas-keyboard-response","213","269348","0.0-6.0-4.29","547","","","","","clear_screen","null","null","","","catch","sh","sw","l","183","164","153","192","231","172","spektor","null","null","null","null","null","null","null","null","null","null","null","","180","200","260","200","36000","52000","[2,3]","537.1708595584507","204.79995801999064","518.0263942274678"
"","canvas-keyboard-response","214","269912","0.0-6.0-5.29","547","","","","","make choice","558","3","","","catch","sh","sw","l","183","164","153","192","231","172","spektor","null","null","null","null","null","null","null","null","null","null","null","","180","200","260","200","36000","52000","[2,3]","","",""
"","canvas-keyboard-response","215","269931","0.0-6.0-6.29","547","","","","","clear_screen","null","null","","","catch","sh","sw","l","183","164","153","192","231","172","spektor","null","null","null","null","null","null","null","null","null","null","null","","180","200","260","200","36000","52000","[2,3]","","",""
"","canvas-keyboard-response","216","270133","0.0-6.0-0.30","547","","","","","pre trial waiting period","null","null","","","catch","sh","l","sw","169","141","169","275","141","203","spektor","null","null","null","null","null","null","null","null","null","null","null","","180","200","260","200","36000","52000","[2,3]","545.7002450339761","95.25145515177971","505.8788139887722"
"","canvas-keyboard-response","217","270153","0.0-6.0-1.30","547","","","","","clear_screen","null","null","","","catch","sh","l","sw","169","141","169","275","141","203","spektor","null","null","null","null","null","null","null","null","null","null","null","","180","200","260","200","36000","52000","[2,3]","545.7002450339761","95.25145515177971","505.8788139887722"
"","canvas-keyboard-response","218","270659","0.0-6.0-2.30","547","","","","","rectangles no change","null","null","","","catch","sh","l","sw","169","141","169","275","141","203","spektor","null","null","null","null","null","null","null","null","null","null","null","","180","200","260","200","36000","52000","[2,3]","545.7002450339761","95.25145515177971","505.8788139887722"
"","canvas-keyboard-response","219","271996","0.0-6.0-3.30","547","","","","","rectangles with change","null","null","","","catch","sh","l","sw","169","141","169","275","141","203","spektor","null","null","null","null","null","null","null","null","null","null","null","","180","200","260","200","36000","52000","[2,3]","545.7002450339761","95.25145515177971","505.8788139887722"
"","canvas-keyboard-response","220","272015","0.0-6.0-4.30","547","","","","","clear_screen","null","null","","","catch","sh","l","sw","169","141","169","275","141","203","spektor","null","null","null","null","null","null","null","null","null","null","null","","180","200","260","200","36000","52000","[2,3]","545.7002450339761","95.25145515177971","505.8788139887722"
"","canvas-keyboard-response","221","272785","0.0-6.0-5.30","547","","","","","make choice","764","2","","","catch","sh","l","sw","169","141","169","275","141","203","spektor","null","null","null","null","null","null","null","null","null","null","null","","180","200","260","200","36000","52000","[2,3]","","",""
"","canvas-keyboard-response","222","272802","0.0-6.0-6.30","547","","","","","clear_screen","null","null","","","catch","sh","l","sw","169","141","169","275","141","203","spektor","null","null","null","null","null","null","null","null","null","null","null","","180","200","260","200","36000","52000","[2,3]","","",""
"","canvas-keyboard-response","223","273003","0.0-6.0-0.31","547","","","","","pre trial waiting period","null","null","","","catch","sh","sw","l","220","202","184","160","220","219","spektor","null","null","null","null","null","null","null","null","null","null","null","","180","200","260","200","36000","52000","[1,3]","491.0912039199545","181.22483153318524","476.6206140576622"
"","canvas-keyboard-response","224","273024","0.0-6.0-1.31","547","","","","","clear_screen","null","null","","","catch","sh","sw","l","220","202","184","160","220","219","spektor","null","null","null","null","null","null","null","null","null","null","null","","180","200","260","200","36000","52000","[1,3]","491.0912039199545","181.22483153318524","476.6206140576622"
"","canvas-keyboard-response","225","273535","0.0-6.0-2.31","547","","","","","rectangles no change","null","null","","","catch","sh","sw","l","220","202","184","160","220","219","spektor","null","null","null","null","null","null","null","null","null","null","null","","180","200","260","200","36000","52000","[1,3]","491.0912039199545","181.22483153318524","476.6206140576622"
"","canvas-keyboard-response","226","274871","0.0-6.0-3.31","547","","","","","rectangles with change","null","null","","","catch","sh","sw","l","220","202","184","160","220","219","spektor","null","null","null","null","null","null","null","null","null","null","null","","180","200","260","200","36000","52000","[1,3]","491.0912039199545","181.22483153318524","476.6206140576622"
"","canvas-keyboard-response","227","274890","0.0-6.0-4.31","547","","","","","clear_screen","null","null","","","catch","sh","sw","l","220","202","184","160","220","219","spektor","null","null","null","null","null","null","null","null","null","null","null","","180","200","260","200","36000","52000","[1,3]","491.0912039199545","181.22483153318524","476.6206140576622"
"","canvas-keyboard-response","228","276601","0.0-6.0-5.31","547","","","","","make choice","1706","3","","","catch","sh","sw","l","220","202","184","160","220","219","spektor","null","null","null","null","null","null","null","null","null","null","null","","180","200","260","200","36000","52000","[1,3]","","",""
"","canvas-keyboard-response","229","276619","0.0-6.0-6.31","547","","","","","clear_screen","null","null","","","catch","sh","sw","l","220","202","184","160","220","219","spektor","null","null","null","null","null","null","null","null","null","null","null","","180","200","260","200","36000","52000","[1,3]","","",""
"","canvas-keyboard-response","230","276819","0.0-6.0-0.32","547","","","","","pre trial waiting period","null","null","","","critical","c","d","t","240","164","160.6713","232.8713","164","240","trueblood","0.05","h","164","240","240","164","160.6713","232.8713","39360","39360","37415.7294","td","null","null","null","null","null","null","[3,2]","504.30110174395287","462.24523425007163","458.1355981122529"
"","canvas-keyboard-response","231","276837","0.0-6.0-1.32","547","","","","","clear_screen","null","null","","","critical","c","d","t","240","164","160.6713","232.8713","164","240","trueblood","0.05","h","164","240","240","164","160.6713","232.8713","39360","39360","37415.7294","td","null","null","null","null","null","null","[3,2]","504.30110174395287","462.24523425007163","458.1355981122529"
"","canvas-keyboard-response","232","277344","0.0-6.0-2.32","547","","","","","rectangles no change","null","null","","","critical","c","d","t","240","164","160.6713","232.8713","164","240","trueblood","0.05","h","164","240","240","164","160.6713","232.8713","39360","39360","37415.7294","td","null","null","null","null","null","null","[3,2]","504.30110174395287","462.24523425007163","458.1355981122529"
"","canvas-keyboard-response","233","278678","0.0-6.0-3.32","547","","","","","rectangles with change","null","null","","","critical","c","d","t","240","164","160.6713","232.8713","164","240","trueblood","0.05","h","164","240","240","164","160.6713","232.8713","39360","39360","37415.7294","td","null","null","null","null","null","null","[3,2]","504.30110174395287","462.24523425007163","458.1355981122529"
"","canvas-keyboard-response","234","278699","0.0-6.0-4.32","547","","","","","clear_screen","null","null","","","critical","c","d","t","240","164","160.6713","232.8713","164","240","trueblood","0.05","h","164","240","240","164","160.6713","232.8713","39360","39360","37415.7294","td","null","null","null","null","null","null","[3,2]","504.30110174395287","462.24523425007163","458.1355981122529"
"","canvas-keyboard-response","235","280425","0.0-6.0-5.32","547","","","","","make choice","1719","2","","","critical","c","d","t","240","164","160.6713","232.8713","164","240","trueblood","0.05","h","164","240","240","164","160.6713","232.8713","39360","39360","37415.7294","td","null","null","null","null","null","null","[3,2]","","",""
"","canvas-keyboard-response","236","280443","0.0-6.0-6.32","547","","","","","clear_screen","null","null","","","critical","c","d","t","240","164","160.6713","232.8713","164","240","trueblood","0.05","h","164","240","240","164","160.6713","232.8713","39360","39360","37415.7294","td","null","null","null","null","null","null","[3,2]","","",""
"","canvas-keyboard-response","237","280645","0.0-6.0-0.33","547","","","","","pre trial waiting period","null","null","","","critical","c","t","d","240","164","164","240","162.6685","237.1485","spektor","0.02","h","164","240","240","164","162.6685","237.1485","39360","39360","38576.5967","tc","null","null","null","null","null","null","[2,1]","493.3477349870007","113.38228067251973","473.7645133533808"
"","canvas-keyboard-response","238","280669","0.0-6.0-1.33","547","","","","","clear_screen","null","null","","","critical","c","t","d","240","164","164","240","162.6685","237.1485","spektor","0.02","h","164","240","240","164","162.6685","237.1485","39360","39360","38576.5967","tc","null","null","null","null","null","null","[2,1]","493.3477349870007","113.38228067251973","473.7645133533808"
"","canvas-keyboard-response","239","281176","0.0-6.0-2.33","547","","","","","rectangles no change","null","null","","","critical","c","t","d","240","164","164","240","162.6685","237.1485","spektor","0.02","h","164","240","240","164","162.6685","237.1485","39360","39360","38576.5967","tc","null","null","null","null","null","null","[2,1]","493.3477349870007","113.38228067251973","473.7645133533808"
"","canvas-keyboard-response","240","282515","0.0-6.0-3.33","547","","","","","rectangles with change","null","null","","","critical","c","t","d","240","164","164","240","162.6685","237.1485","spektor","0.02","h","164","240","240","164","162.6685","237.1485","39360","39360","38576.5967","tc","null","null","null","null","null","null","[2,1]","493.3477349870007","113.38228067251973","473.7645133533808"
"","canvas-keyboard-response","241","282535","0.0-6.0-4.33","547","","","","","clear_screen","null","null","","","critical","c","t","d","240","164","164","240","162.6685","237.1485","spektor","0.02","h","164","240","240","164","162.6685","237.1485","39360","39360","38576.5967","tc","null","null","null","null","null","null","[2,1]","493.3477349870007","113.38228067251973","473.7645133533808"
"","canvas-keyboard-response","242","282680","0.0-6.0-5.33","547","","","","","make choice","141","1","","","critical","c","t","d","240","164","164","240","162.6685","237.1485","spektor","0.02","h","164","240","240","164","162.6685","237.1485","39360","39360","38576.5967","tc","null","null","null","null","null","null","[2,1]","","",""
"","canvas-keyboard-response","243","282698","0.0-6.0-6.33","547","","","","","clear_screen","null","null","","","critical","c","t","d","240","164","164","240","162.6685","237.1485","spektor","0.02","h","164","240","240","164","162.6685","237.1485","39360","39360","38576.5967","tc","null","null","null","null","null","null","[2,1]","","",""
"","canvas-keyboard-response","244","282899","0.0-6.0-0.34","547","","","","","pre trial waiting period","null","null","","","critical","t","c","d","164","240","240","164","162.6685","237.1485","trueblood","0.02","h","164","240","240","164","162.6685","237.1485","39360","39360","38576.5967","td","null","null","null","null","null","null","[1,3]","428.14727114582405","508.4471762264803","470.77169240908773"
"","canvas-keyboard-response","245","282917","0.0-6.0-1.34","547","","","","","clear_screen","null","null","","","critical","t","c","d","164","240","240","164","162.6685","237.1485","trueblood","0.02","h","164","240","240","164","162.6685","237.1485","39360","39360","38576.5967","td","null","null","null","null","null","null","[1,3]","428.14727114582405","508.4471762264803","470.77169240908773"
"","canvas-keyboard-response","246","283425","0.0-6.0-2.34","547","","","","","rectangles no change","null","null","","","critical","t","c","d","164","240","240","164","162.6685","237.1485","trueblood","0.02","h","164","240","240","164","162.6685","237.1485","39360","39360","38576.5967","td","null","null","null","null","null","null","[1,3]","428.14727114582405","508.4471762264803","470.77169240908773"
"","canvas-keyboard-response","247","284764","0.0-6.0-3.34","547","","","","","rectangles with change","null","null","","","critical","t","c","d","164","240","240","164","162.6685","237.1485","trueblood","0.02","h","164","240","240","164","162.6685","237.1485","39360","39360","38576.5967","td","null","null","null","null","null","null","[1,3]","428.14727114582405","508.4471762264803","470.77169240908773"
"","canvas-keyboard-response","248","284782","0.0-6.0-4.34","547","","","","","clear_screen","null","null","","","critical","t","c","d","164","240","240","164","162.6685","237.1485","trueblood","0.02","h","164","240","240","164","162.6685","237.1485","39360","39360","38576.5967","td","null","null","null","null","null","null","[1,3]","428.14727114582405","508.4471762264803","470.77169240908773"
"","canvas-keyboard-response","249","285792","0.0-6.0-5.34","547","","","","","make choice","1001","1","","","critical","t","c","d","164","240","240","164","162.6685","237.1485","trueblood","0.02","h","164","240","240","164","162.6685","237.1485","39360","39360","38576.5967","td","null","null","null","null","null","null","[1,3]","","",""
"","canvas-keyboard-response","250","285810","0.0-6.0-6.34","547","","","","","clear_screen","null","null","","","critical","t","c","d","164","240","240","164","162.6685","237.1485","trueblood","0.02","h","164","240","240","164","162.6685","237.1485","39360","39360","38576.5967","td","null","null","null","null","null","null","[1,3]","","",""
"","canvas-keyboard-response","251","286012","0.0-6.0-0.35","547","","","","","pre trial waiting period","null","null","","","critical","t","c","d","164","240","240","164","162.6685","237.1485","trueblood","0.02","h","164","240","240","164","162.6685","237.1485","39360","39360","38576.5967","dc","null","null","null","null","null","null","[3,2]","441.71169112987326","474.76278918617953","463.1982286869345"
"","canvas-keyboard-response","252","286031","0.0-6.0-1.35","547","","","","","clear_screen","null","null","","","critical","t","c","d","164","240","240","164","162.6685","237.1485","trueblood","0.02","h","164","240","240","164","162.6685","237.1485","39360","39360","38576.5967","dc","null","null","null","null","null","null","[3,2]","441.71169112987326","474.76278918617953","463.1982286869345"
"","canvas-keyboard-response","253","286539","0.0-6.0-2.35","547","","","","","rectangles no change","null","null","","","critical","t","c","d","164","240","240","164","162.6685","237.1485","trueblood","0.02","h","164","240","240","164","162.6685","237.1485","39360","39360","38576.5967","dc","null","null","null","null","null","null","[3,2]","441.71169112987326","474.76278918617953","463.1982286869345"
"","canvas-keyboard-response","254","287877","0.0-6.0-3.35","547","","","","","rectangles with change","null","null","","","critical","t","c","d","164","240","240","164","162.6685","237.1485","trueblood","0.02","h","164","240","240","164","162.6685","237.1485","39360","39360","38576.5967","dc","null","null","null","null","null","null","[3,2]","441.71169112987326","474.76278918617953","463.1982286869345"
"","canvas-keyboard-response","255","287894","0.0-6.0-4.35","547","","","","","clear_screen","null","null","","","critical","t","c","d","164","240","240","164","162.6685","237.1485","trueblood","0.02","h","164","240","240","164","162.6685","237.1485","39360","39360","38576.5967","dc","null","null","null","null","null","null","[3,2]","441.71169112987326","474.76278918617953","463.1982286869345"
"","canvas-keyboard-response","256","288721","0.0-6.0-5.35","547","","","","","make choice","821","2","","","critical","t","c","d","164","240","240","164","162.6685","237.1485","trueblood","0.02","h","164","240","240","164","162.6685","237.1485","39360","39360","38576.5967","dc","null","null","null","null","null","null","[3,2]","","",""
"","canvas-keyboard-response","257","288739","0.0-6.0-6.35","547","","","","","clear_screen","null","null","","","critical","t","c","d","164","240","240","164","162.6685","237.1485","trueblood","0.02","h","164","240","240","164","162.6685","237.1485","39360","39360","38576.5967","dc","null","null","null","null","null","null","[3,2]","","",""
"","canvas-keyboard-response","258","288940","0.0-6.0-0.36","547","","","","","pre trial waiting period","null","null","","","critical","t","c","d","240","164","164","240","220.0396","154.6796","spektor","0.14","w","240","164","164","240","220.0396","154.6796","39360","39360","34035.6388","tc","null","null","null","null","null","null","[1,2]","516.0844032963806","154.1003649622517","530.4658372486551"
"","canvas-keyboard-response","259","288961","0.0-6.0-1.36","547","","","","","clear_screen","null","null","","","critical","t","c","d","240","164","164","240","220.0396","154.6796","spektor","0.14","w","240","164","164","240","220.0396","154.6796","39360","39360","34035.6388","tc","null","null","null","null","null","null","[1,2]","516.0844032963806","154.1003649622517","530.4658372486551"
"","canvas-keyboard-response","260","289467","0.0-6.0-2.36","547","","","","","rectangles no change","null","null","","","critical","t","c","d","240","164","164","240","220.0396","154.6796","spektor","0.14","w","240","164","164","240","220.0396","154.6796","39360","39360","34035.6388","tc","null","null","null","null","null","null","[1,2]","516.0844032963806","154.1003649622517","530.4658372486551"
"","canvas-keyboard-response","261","290801","0.0-6.0-3.36","547","","","","","rectangles with change","null","null","","","critical","t","c","d","240","164","164","240","220.0396","154.6796","spektor","0.14","w","240","164","164","240","220.0396","154.6796","39360","39360","34035.6388","tc","null","null","null","null","null","null","[1,2]","516.0844032963806","154.1003649622517","530.4658372486551"
"","canvas-keyboard-response","262","290822","0.0-6.0-4.36","547","","","","","clear_screen","null","null","","","critical","t","c","d","240","164","164","240","220.0396","154.6796","spektor","0.14","w","240","164","164","240","220.0396","154.6796","39360","39360","34035.6388","tc","null","null","null","null","null","null","[1,2]","516.0844032963806","154.1003649622517","530.4658372486551"
"","canvas-keyboard-response","263","291865","0.0-6.0-5.36","547","","","","","make choice","1039","1","","","critical","t","c","d","240","164","164","240","220.0396","154.6796","spektor","0.14","w","240","164","164","240","220.0396","154.6796","39360","39360","34035.6388","tc","null","null","null","null","null","null","[1,2]","","",""
"","canvas-keyboard-response","264","291887","0.0-6.0-6.36","547","","","","","clear_screen","null","null","","","critical","t","c","d","240","164","164","240","220.0396","154.6796","spektor","0.14","w","240","164","164","240","220.0396","154.6796","39360","39360","34035.6388","tc","null","null","null","null","null","null","[1,2]","","",""
"","canvas-keyboard-response","265","292088","0.0-6.0-0.37","547","","","","","pre trial waiting period","null","null","","","critical","c","d","t","240","164","154.6796","220.0396","164","240","trueblood","0.14","h","164","240","240","164","154.6796","220.0396","39360","39360","34035.6388","td","null","null","null","null","null","null","[3,2]","503.13993062225353","465.74546212961013","461.51940895066133"
"","canvas-keyboard-response","266","292109","0.0-6.0-1.37","547","","","","","clear_screen","null","null","","","critical","c","d","t","240","164","154.6796","220.0396","164","240","trueblood","0.14","h","164","240","240","164","154.6796","220.0396","39360","39360","34035.6388","td","null","null","null","null","null","null","[3,2]","503.13993062225353","465.74546212961013","461.51940895066133"
