"success","trial_type","trial_index","time_elapsed","internal_node_id","sub_n","timeout","failed_images","failed_audio","failed_video","screen_id","rt","response","stimulus","view_history","trial","r1","r2","r3","w1","h1","w2","h2","w3","h3","display","tdd","tdo","tw","th","cw","ch","dw","dh","ta","ca","da","probe","csls","csss","clls","clss","sa","la","probe_rects","r1yloc","r2yloc","r3yloc"
"true","fullscreen","0","3070","0.0-0.0","558","","","","","","","","","","","","","","","","","","","","","","","","","","","","","","","","","","","","","","","","","",""
"true","preload","1","3143","0.0-1.0","558","false","[]","[]","[]","img preload","","","","","","","","","","","","","","","","","","","","","","","","","","","","","","","","","","","","",""
"","survey-html-form","2","8454","0.0-2.0","558","","","","","enter-sub-number","5298","{""response"":""558""}","","","","","","","","","","","","","","","","","","","","","","","","","","","","","","","","","","",""
"","image-button-response","3","26067","0.0-3.0","558","","","","","","17510","0","consent.png","","","","","","","","","","","","","","","","","","","","","","","","","","","","","","","","","",""
"","html-button-response","4","35290","0.0-4.0","558","","","","","intro mssg","9218","0","<div style= ""font-size:25px;"" <p> <strong> Welcome! </strong><br> <p style=""color:#8B0000; font-size:25px;""><strong> Please do NOT exit full screen until you are done with the experiment. </strong> </p><p style=""font-size:25px;color:#8B0000;""> <strong> Your data will be lost <br> if you try to go back or refresh the page after the experiment starts. Feel free to click ""previous"" during the instructions, however.</strong> </p><br><p> <strong> Thanks in advance for your contribution to our research! </strong></p>","","","","","","","","","","","","","","","","","","","","","","","","","","","","","","","","","",""
"","instructions","5","72898","0.0-5.0","558","","","","","instructions","37603","","","[{""page_index"":0,""viewing_time"":7251},{""page_index"":1,""viewing_time"":5288},{""page_index"":2,""viewing_time"":5040},{""page_index"":3,""viewing_time"":9441},{""page_index"":4,""viewing_time"":3511},{""page_index"":5,""viewing_time"":3208},{""page_index"":6,""viewing_time"":2376},{""page_index"":7,""viewing_time"":1488}]","","","","","","","","","","","","","","","","","","","","","","","","","","","","","","","","",""
"","canvas-keyboard-response","6","73103","0.0-6.0-0.0","558","","","","","pre trial waiting period","null","null","","","catch","l","sh","sw","246","193","233","218","149","223","trueblood","null","null","null","null","null","null","null","null","null","null","null","","180","200","260","200","36000","52000","[1,3]","461.3174302376152","458.14102720725543","460.61735885686636"
"","canvas-keyboard-response","7","73128","0.0-6.0-1.0","558","","","","","clear_screen","null","null","","","catch","l","sh","sw","246","193","233","218","149","223","trueblood","null","null","null","null","null","null","null","null","null","null","null","","180","200","260","200","36000","52000","[1,3]","461.3174302376152","458.14102720725543","460.61735885686636"
"","canvas-keyboard-response","8","73647","0.0-6.0-2.0","558","","","","","rectangles no change","null","null","","","catch","l","sh","sw","246","193","233","218","149","223","trueblood","null","null","null","null","null","null","null","null","null","null","null","","180","200","260","200","36000","52000","[1,3]","461.3174302376152","458.14102720725543","460.61735885686636"
"","canvas-keyboard-response","9","74985","0.0-6.0-3.0","558","","","","","rectangles with change","null","null","","","catch","l","sh","sw","246","193","233","218","149","223","trueblood","null","null","null","null","null","null","null","null","null","null","null","","180","200","260","200","36000","52000","[1,3]","461.3174302376152","458.14102720725543","460.61735885686636"
"","canvas-keyboard-response","10","75005","0.0-6.0-4.0","558","","","","","clear_screen","null","null","","","catch","l","sh","sw","246","193","233","218","149","223","trueblood","null","null","null","null","null","null","null","null","null","null","null","","180","200","260","200","36000","52000","[1,3]","461.3174302376152","458.14102720725543","460.61735885686636"
"","canvas-keyboard-response","11","78431","0.0-6.0-5.0","558","","","","","make choice","3415","1","","","catch","l","sh","sw","246","193","233","218","149","223","trueblood","null","null","null","null","null","null","null","null","null","null","null","","180","200","260","200","36000","52000","[1,3]","","",""
"","canvas-keyboard-response","12","78452","0.0-6.0-6.0","558","","","","","clear_screen","null","null","","","catch","l","sh","sw","246","193","233","218","149","223","trueblood","null","null","null","null","null","null","null","null","null","null","null","","180","200","260","200","36000","52000","[1,3]","","",""
"","canvas-keyboard-response","13","78652","0.0-6.0-0.1","558","","","","","pre trial waiting period","null","null","","","critical","c","t","d","164","240","240","164","227.1683","158.0083","spektor","0.09","w","240","164","164","240","227.1683","158.0083","39360","39360","35894.4834","tc","null","null","null","null","null","null","[2,1]","478.15004180749315","197.26733014751295","498.22952482022777"
"","canvas-keyboard-response","14","78672","0.0-6.0-1.1","558","","","","","clear_screen","null","null","","","critical","c","t","d","164","240","240","164","227.1683","158.0083","spektor","0.09","w","240","164","164","240","227.1683","158.0083","39360","39360","35894.4834","tc","null","null","null","null","null","null","[2,1]","478.15004180749315","197.26733014751295","498.22952482022777"
"","canvas-keyboard-response","15","79186","0.0-6.0-2.1","558","","","","","rectangles no change","null","null","","","critical","c","t","d","164","240","240","164","227.1683","158.0083","spektor","0.09","w","240","164","164","240","227.1683","158.0083","39360","39360","35894.4834","tc","null","null","null","null","null","null","[2,1]","478.15004180749315","197.26733014751295","498.22952482022777"
"","canvas-keyboard-response","16","80523","0.0-6.0-3.1","558","","","","","rectangles with change","null","null","","","critical","c","t","d","164","240","240","164","227.1683","158.0083","spektor","0.09","w","240","164","164","240","227.1683","158.0083","39360","39360","35894.4834","tc","null","null","null","null","null","null","[2,1]","478.15004180749315","197.26733014751295","498.22952482022777"
"","canvas-keyboard-response","17","80546","0.0-6.0-4.1","558","","","","","clear_screen","null","null","","","critical","c","t","d","164","240","240","164","227.1683","158.0083","spektor","0.09","w","240","164","164","240","227.1683","158.0083","39360","39360","35894.4834","tc","null","null","null","null","null","null","[2,1]","478.15004180749315","197.26733014751295","498.22952482022777"
"","canvas-keyboard-response","18","82567","0.0-6.0-5.1","558","","","","","make choice","2014","1","","","critical","c","t","d","164","240","240","164","227.1683","158.0083","spektor","0.09","w","240","164","164","240","227.1683","158.0083","39360","39360","35894.4834","tc","null","null","null","null","null","null","[2,1]","","",""
"","canvas-keyboard-response","19","82586","0.0-6.0-6.1","558","","","","","clear_screen","null","null","","","critical","c","t","d","164","240","240","164","227.1683","158.0083","spektor","0.09","w","240","164","164","240","227.1683","158.0083","39360","39360","35894.4834","tc","null","null","null","null","null","null","[2,1]","","",""
"","canvas-keyboard-response","20","82787","0.0-6.0-0.2","558","","","","","pre trial waiting period","null","null","","","catch","l","sw","sh","251","239","165","216","160","211","trueblood","null","null","null","null","null","null","null","null","null","null","null","","180","200","260","200","36000","52000","[1,2]","425.01177581427356","460.64001203791","474.2739861337267"
"","canvas-keyboard-response","21","82808","0.0-6.0-1.2","558","","","","","clear_screen","null","null","","","catch","l","sw","sh","251","239","165","216","160","211","trueblood","null","null","null","null","null","null","null","null","null","null","null","","180","200","260","200","36000","52000","[1,2]","425.01177581427356","460.64001203791","474.2739861337267"
"","canvas-keyboard-response","22","83319","0.0-6.0-2.2","558","","","","","rectangles no change","null","null","","","catch","l","sw","sh","251","239","165","216","160","211","trueblood","null","null","null","null","null","null","null","null","null","null","null","","180","200","260","200","36000","52000","[1,2]","425.01177581427356","460.64001203791","474.2739861337267"
"","canvas-keyboard-response","23","84654","0.0-6.0-3.2","558","","","","","rectangles with change","null","null","","","catch","l","sw","sh","251","239","165","216","160","211","trueblood","null","null","null","null","null","null","null","null","null","null","null","","180","200","260","200","36000","52000","[1,2]","425.01177581427356","460.64001203791","474.2739861337267"
"","canvas-keyboard-response","24","84673","0.0-6.0-4.2","558","","","","","clear_screen","null","null","","","catch","l","sw","sh","251","239","165","216","160","211","trueblood","null","null","null","null","null","null","null","null","null","null","null","","180","200","260","200","36000","52000","[1,2]","425.01177581427356","460.64001203791","474.2739861337267"
"","canvas-keyboard-response","25","86135","0.0-6.0-5.2","558","","","","","make choice","1452","1","","","catch","l","sw","sh","251","239","165","216","160","211","trueblood","null","null","null","null","null","null","null","null","null","null","null","","180","200","260","200","36000","52000","[1,2]","","",""
"","canvas-keyboard-response","26","86153","0.0-6.0-6.2","558","","","","","clear_screen","null","null","","","catch","l","sw","sh","251","239","165","216","160","211","trueblood","null","null","null","null","null","null","null","null","null","null","null","","180","200","260","200","36000","52000","[1,2]","","",""
"","canvas-keyboard-response","27","86354","0.0-6.0-0.3","558","","","","","pre trial waiting period","null","null","","","critical","c","d","t","240","164","158.0083","227.1683","164","240","trueblood","0.09","h","164","240","240","164","158.0083","227.1683","39360","39360","35894.4834","tc","null","null","null","null","null","null","[3,1]","506.1099957700769","456.22243968441154","432.3670212697363"
"","canvas-keyboard-response","28","86376","0.0-6.0-1.3","558","","","","","clear_screen","null","null","","","critical","c","d","t","240","164","158.0083","227.1683","164","240","trueblood","0.09","h","164","240","240","164","158.0083","227.1683","39360","39360","35894.4834","tc","null","null","null","null","null","null","[3,1]","506.1099957700769","456.22243968441154","432.3670212697363"
"","canvas-keyboard-response","29","86887","0.0-6.0-2.3","558","","","","","rectangles no change","null","null","","","critical","c","d","t","240","164","158.0083","227.1683","164","240","trueblood","0.09","h","164","240","240","164","158.0083","227.1683","39360","39360","35894.4834","tc","null","null","null","null","null","null","[3,1]","506.1099957700769","456.22243968441154","432.3670212697363"
"","canvas-keyboard-response","30","88222","0.0-6.0-3.3","558","","","","","rectangles with change","null","null","","","critical","c","d","t","240","164","158.0083","227.1683","164","240","trueblood","0.09","h","164","240","240","164","158.0083","227.1683","39360","39360","35894.4834","tc","null","null","null","null","null","null","[3,1]","506.1099957700769","456.22243968441154","432.3670212697363"
"","canvas-keyboard-response","31","88242","0.0-6.0-4.3","558","","","","","clear_screen","null","null","","","critical","c","d","t","240","164","158.0083","227.1683","164","240","trueblood","0.09","h","164","240","240","164","158.0083","227.1683","39360","39360","35894.4834","tc","null","null","null","null","null","null","[3,1]","506.1099957700769","456.22243968441154","432.3670212697363"
"","canvas-keyboard-response","32","89350","0.0-6.0-5.3","558","","","","","make choice","1101","3","","","critical","c","d","t","240","164","158.0083","227.1683","164","240","trueblood","0.09","h","164","240","240","164","158.0083","227.1683","39360","39360","35894.4834","tc","null","null","null","null","null","null","[3,1]","","",""
"","canvas-keyboard-response","33","89369","0.0-6.0-6.3","558","","","","","clear_screen","null","null","","","critical","c","d","t","240","164","158.0083","227.1683","164","240","trueblood","0.09","h","164","240","240","164","158.0083","227.1683","39360","39360","35894.4834","tc","null","null","null","null","null","null","[3,1]","","",""
"","canvas-keyboard-response","34","89570","0.0-6.0-0.4","558","","","","","pre trial waiting period","null","null","","","critical","d","t","c","220.0396","154.6796","240","164","164","240","spektor","0.14","w","240","164","164","240","220.0396","154.6796","39360","39360","34035.6388","tc","null","null","null","null","null","null","[2,3]","515.8087961759958","169.70433213339658","469.43983384099516"
"","canvas-keyboard-response","35","89589","0.0-6.0-1.4","558","","","","","clear_screen","null","null","","","critical","d","t","c","220.0396","154.6796","240","164","164","240","spektor","0.14","w","240","164","164","240","220.0396","154.6796","39360","39360","34035.6388","tc","null","null","null","null","null","null","[2,3]","515.8087961759958","169.70433213339658","469.43983384099516"
"","canvas-keyboard-response","36","90102","0.0-6.0-2.4","558","","","","","rectangles no change","null","null","","","critical","d","t","c","220.0396","154.6796","240","164","164","240","spektor","0.14","w","240","164","164","240","220.0396","154.6796","39360","39360","34035.6388","tc","null","null","null","null","null","null","[2,3]","515.8087961759958","169.70433213339658","469.43983384099516"
"","canvas-keyboard-response","37","91437","0.0-6.0-3.4","558","","","","","rectangles with change","null","null","","","critical","d","t","c","220.0396","154.6796","240","164","164","240","spektor","0.14","w","240","164","164","240","220.0396","154.6796","39360","39360","34035.6388","tc","null","null","null","null","null","null","[2,3]","515.8087961759958","169.70433213339658","469.43983384099516"
"","canvas-keyboard-response","38","91456","0.0-6.0-4.4","558","","","","","clear_screen","null","null","","","critical","d","t","c","220.0396","154.6796","240","164","164","240","spektor","0.14","w","240","164","164","240","220.0396","154.6796","39360","39360","34035.6388","tc","null","null","null","null","null","null","[2,3]","515.8087961759958","169.70433213339658","469.43983384099516"
"","canvas-keyboard-response","39","91470","0.0-6.0-5.4","558","","","","","make choice","6","2","","","critical","d","t","c","220.0396","154.6796","240","164","164","240","spektor","0.14","w","240","164","164","240","220.0396","154.6796","39360","39360","34035.6388","tc","null","null","null","null","null","null","[2,3]","","",""
"","canvas-keyboard-response","40","91495","0.0-6.0-6.4","558","","","","","clear_screen","null","null","","","critical","d","t","c","220.0396","154.6796","240","164","164","240","spektor","0.14","w","240","164","164","240","220.0396","154.6796","39360","39360","34035.6388","tc","null","null","null","null","null","null","[2,3]","","",""
"","canvas-keyboard-response","41","91699","0.0-6.0-0.5","558","","","","","pre trial waiting period","null","null","","","catch","sw","l","sh","180","200","176","269","236","147","spektor","null","null","null","null","null","null","null","null","null","null","null","","180","200","260","200","36000","52000","[2,3]","509.7062255713919","116.78068028972635","546.2365850706416"
"","canvas-keyboard-response","42","91719","0.0-6.0-1.5","558","","","","","clear_screen","null","null","","","catch","sw","l","sh","180","200","176","269","236","147","spektor","null","null","null","null","null","null","null","null","null","null","null","","180","200","260","200","36000","52000","[2,3]","509.7062255713919","116.78068028972635","546.2365850706416"
"","canvas-keyboard-response","43","92229","0.0-6.0-2.5","558","","","","","rectangles no change","null","null","","","catch","sw","l","sh","180","200","176","269","236","147","spektor","null","null","null","null","null","null","null","null","null","null","null","","180","200","260","200","36000","52000","[2,3]","509.7062255713919","116.78068028972635","546.2365850706416"
"","canvas-keyboard-response","44","93565","0.0-6.0-3.5","558","","","","","rectangles with change","null","null","","","catch","sw","l","sh","180","200","176","269","236","147","spektor","null","null","null","null","null","null","null","null","null","null","null","","180","200","260","200","36000","52000","[2,3]","509.7062255713919","116.78068028972635","546.2365850706416"
"","canvas-keyboard-response","45","93583","0.0-6.0-4.5","558","","","","","clear_screen","null","null","","","catch","sw","l","sh","180","200","176","269","236","147","spektor","null","null","null","null","null","null","null","null","null","null","null","","180","200","260","200","36000","52000","[2,3]","509.7062255713919","116.78068028972635","546.2365850706416"
"","canvas-keyboard-response","46","94095","0.0-6.0-5.5","558","","","","","make choice","503","3","","","catch","sw","l","sh","180","200","176","269","236","147","spektor","null","null","null","null","null","null","null","null","null","null","null","","180","200","260","200","36000","52000","[2,3]","","",""
"","canvas-keyboard-response","47","94113","0.0-6.0-6.5","558","","","","","clear_screen","null","null","","","catch","sw","l","sh","180","200","176","269","236","147","spektor","null","null","null","null","null","null","null","null","null","null","null","","180","200","260","200","36000","52000","[2,3]","","",""
"","canvas-keyboard-response","48","94314","0.0-6.0-0.6","558","","","","","pre trial waiting period","null","null","","","critical","t","c","d","240","164","164","240","232.8713","160.6713","spektor","0.05","w","240","164","164","240","232.8713","160.6713","39360","39360","37415.7294","td","null","null","null","null","null","null","[1,3]","533.5041896980111","132.95010843030218","495.9109269084598"
"","canvas-keyboard-response","49","94334","0.0-6.0-1.6","558","","","","","clear_screen","null","null","","","critical","t","c","d","240","164","164","240","232.8713","160.6713","spektor","0.05","w","240","164","164","240","232.8713","160.6713","39360","39360","37415.7294","td","null","null","null","null","null","null","[1,3]","533.5041896980111","132.95010843030218","495.9109269084598"
"","canvas-keyboard-response","50","94845","0.0-6.0-2.6","558","","","","","rectangles no change","null","null","","","critical","t","c","d","240","164","164","240","232.8713","160.6713","spektor","0.05","w","240","164","164","240","232.8713","160.6713","39360","39360","37415.7294","td","null","null","null","null","null","null","[1,3]","533.5041896980111","132.95010843030218","495.9109269084598"
"","canvas-keyboard-response","51","96181","0.0-6.0-3.6","558","","","","","rectangles with change","null","null","","","critical","t","c","d","240","164","164","240","232.8713","160.6713","spektor","0.05","w","240","164","164","240","232.8713","160.6713","39360","39360","37415.7294","td","null","null","null","null","null","null","[1,3]","533.5041896980111","132.95010843030218","495.9109269084598"
"","canvas-keyboard-response","52","96200","0.0-6.0-4.6","558","","","","","clear_screen","null","null","","","critical","t","c","d","240","164","164","240","232.8713","160.6713","spektor","0.05","w","240","164","164","240","232.8713","160.6713","39360","39360","37415.7294","td","null","null","null","null","null","null","[1,3]","533.5041896980111","132.95010843030218","495.9109269084598"
"","canvas-keyboard-response","53","98190","0.0-6.0-5.6","558","","","","","make choice","1981","1","","","critical","t","c","d","240","164","164","240","232.8713","160.6713","spektor","0.05","w","240","164","164","240","232.8713","160.6713","39360","39360","37415.7294","td","null","null","null","null","null","null","[1,3]","","",""
"","canvas-keyboard-response","54","98209","0.0-6.0-6.6","558","","","","","clear_screen","null","null","","","critical","t","c","d","240","164","164","240","232.8713","160.6713","spektor","0.05","w","240","164","164","240","232.8713","160.6713","39360","39360","37415.7294","td","null","null","null","null","null","null","[1,3]","","",""
"","canvas-keyboard-response","55","98411","0.0-6.0-0.7","558","","","","","pre trial waiting period","null","null","","","critical","c","d","t","240","164","158.0083","227.1683","164","240","trueblood","0.09","h","164","240","240","164","158.0083","227.1683","39360","39360","35894.4834","td","null","null","null","null","null","null","[3,2]","469.02909580207034","463.42928345843006","437.99081256136844"
"","canvas-keyboard-response","56","98431","0.0-6.0-1.7","558","","","","","clear_screen","null","null","","","critical","c","d","t","240","164","158.0083","227.1683","164","240","trueblood","0.09","h","164","240","240","164","158.0083","227.1683","39360","39360","35894.4834","td","null","null","null","null","null","null","[3,2]","469.02909580207034","463.42928345843006","437.99081256136844"
"","canvas-keyboard-response","57","98942","0.0-6.0-2.7","558","","","","","rectangles no change","null","null","","","critical","c","d","t","240","164","158.0083","227.1683","164","240","trueblood","0.09","h","164","240","240","164","158.0083","227.1683","39360","39360","35894.4834","td","null","null","null","null","null","null","[3,2]","469.02909580207034","463.42928345843006","437.99081256136844"
"","canvas-keyboard-response","58","100277","0.0-6.0-3.7","558","","","","","rectangles with change","null","null","","","critical","c","d","t","240","164","158.0083","227.1683","164","240","trueblood","0.09","h","164","240","240","164","158.0083","227.1683","39360","39360","35894.4834","td","null","null","null","null","null","null","[3,2]","469.02909580207034","463.42928345843006","437.99081256136844"
"","canvas-keyboard-response","59","100296","0.0-6.0-4.7","558","","","","","clear_screen","null","null","","","critical","c","d","t","240","164","158.0083","227.1683","164","240","trueblood","0.09","h","164","240","240","164","158.0083","227.1683","39360","39360","35894.4834","td","null","null","null","null","null","null","[3,2]","469.02909580207034","463.42928345843006","437.99081256136844"
"","canvas-keyboard-response","60","100934","0.0-6.0-5.7","558","","","","","make choice","632","3","","","critical","c","d","t","240","164","158.0083","227.1683","164","240","trueblood","0.09","h","164","240","240","164","158.0083","227.1683","39360","39360","35894.4834","td","null","null","null","null","null","null","[3,2]","","",""
"","canvas-keyboard-response","61","100953","0.0-6.0-6.7","558","","","","","clear_screen","null","null","","","critical","c","d","t","240","164","158.0083","227.1683","164","240","trueblood","0.09","h","164","240","240","164","158.0083","227.1683","39360","39360","35894.4834","td","null","null","null","null","null","null","[3,2]","","",""
"","canvas-keyboard-response","62","101154","0.0-6.0-0.8","558","","","","","pre trial waiting period","null","null","","","critical","d","c","t","164","240","240","164","164","240","trueblood","0","h","164","240","240","164","164","240","39360","39360","39360","tc","null","null","null","null","null","null","[3,2]","419.2434542201692","484.22477961343503","459.93579440110875"
"","canvas-keyboard-response","63","101176","0.0-6.0-1.8","558","","","","","clear_screen","null","null","","","critical","d","c","t","164","240","240","164","164","240","trueblood","0","h","164","240","240","164","164","240","39360","39360","39360","tc","null","null","null","null","null","null","[3,2]","419.2434542201692","484.22477961343503","459.93579440110875"
"","canvas-keyboard-response","64","101687","0.0-6.0-2.8","558","","","","","rectangles no change","null","null","","","critical","d","c","t","164","240","240","164","164","240","trueblood","0","h","164","240","240","164","164","240","39360","39360","39360","tc","null","null","null","null","null","null","[3,2]","419.2434542201692","484.22477961343503","459.93579440110875"
"","canvas-keyboard-response","65","103022","0.0-6.0-3.8","558","","","","","rectangles with change","null","null","","","critical","d","c","t","164","240","240","164","164","240","trueblood","0","h","164","240","240","164","164","240","39360","39360","39360","tc","null","null","null","null","null","null","[3,2]","419.2434542201692","484.22477961343503","459.93579440110875"
"","canvas-keyboard-response","66","103041","0.0-6.0-4.8","558","","","","","clear_screen","null","null","","","critical","d","c","t","164","240","240","164","164","240","trueblood","0","h","164","240","240","164","164","240","39360","39360","39360","tc","null","null","null","null","null","null","[3,2]","419.2434542201692","484.22477961343503","459.93579440110875"
"","canvas-keyboard-response","67","104798","0.0-6.0-5.8","558","","","","","make choice","1748","2","","","critical","d","c","t","164","240","240","164","164","240","trueblood","0","h","164","240","240","164","164","240","39360","39360","39360","tc","null","null","null","null","null","null","[3,2]","","",""
"","canvas-keyboard-response","68","104817","0.0-6.0-6.8","558","","","","","clear_screen","null","null","","","critical","d","c","t","164","240","240","164","164","240","trueblood","0","h","164","240","240","164","164","240","39360","39360","39360","tc","null","null","null","null","null","null","[3,2]","","",""
"","canvas-keyboard-response","69","105019","0.0-6.0-0.9","558","","","","","pre trial waiting period","null","null","","","critical","c","t","d","240","164","164","240","162.6685","237.1485","spektor","0.02","h","164","240","240","164","162.6685","237.1485","39360","39360","38576.5967","td","null","null","null","null","null","null","[2,3]","500.5860229201853","91.96422017269616","498.1383737114785"
"","canvas-keyboard-response","70","105037","0.0-6.0-1.9","558","","","","","clear_screen","null","null","","","critical","c","t","d","240","164","164","240","162.6685","237.1485","spektor","0.02","h","164","240","240","164","162.6685","237.1485","39360","39360","38576.5967","td","null","null","null","null","null","null","[2,3]","500.5860229201853","91.96422017269616","498.1383737114785"
"","canvas-keyboard-response","71","105550","0.0-6.0-2.9","558","","","","","rectangles no change","null","null","","","critical","c","t","d","240","164","164","240","162.6685","237.1485","spektor","0.02","h","164","240","240","164","162.6685","237.1485","39360","39360","38576.5967","td","null","null","null","null","null","null","[2,3]","500.5860229201853","91.96422017269616","498.1383737114785"
"","canvas-keyboard-response","72","106888","0.0-6.0-3.9","558","","","","","rectangles with change","null","null","","","critical","c","t","d","240","164","164","240","162.6685","237.1485","spektor","0.02","h","164","240","240","164","162.6685","237.1485","39360","39360","38576.5967","td","null","null","null","null","null","null","[2,3]","500.5860229201853","91.96422017269616","498.1383737114785"
"","canvas-keyboard-response","73","106906","0.0-6.0-4.9","558","","","","","clear_screen","null","null","","","critical","c","t","d","240","164","164","240","162.6685","237.1485","spektor","0.02","h","164","240","240","164","162.6685","237.1485","39360","39360","38576.5967","td","null","null","null","null","null","null","[2,3]","500.5860229201853","91.96422017269616","498.1383737114785"
"","canvas-keyboard-response","74","109054","0.0-6.0-5.9","558","","","","","make choice","2140","3","","","critical","c","t","d","240","164","164","240","162.6685","237.1485","spektor","0.02","h","164","240","240","164","162.6685","237.1485","39360","39360","38576.5967","td","null","null","null","null","null","null","[2,3]","","",""
"","canvas-keyboard-response","75","109073","0.0-6.0-6.9","558","","","","","clear_screen","null","null","","","critical","c","t","d","240","164","164","240","162.6685","237.1485","spektor","0.02","h","164","240","240","164","162.6685","237.1485","39360","39360","38576.5967","td","null","null","null","null","null","null","[2,3]","","",""
"","canvas-keyboard-response","76","109275","0.0-6.0-0.10","558","","","","","pre trial waiting period","null","null","","","critical","d","t","c","158.0083","227.1683","164","240","240","164","spektor","0.09","h","164","240","240","164","158.0083","227.1683","39360","39360","35894.4834","dc","null","null","null","null","null","null","[1,3]","468.1922733162442","109.92909954979662","528.2559875306367"
"","canvas-keyboard-response","77","109295","0.0-6.0-1.10","558","","","","","clear_screen","null","null","","","critical","d","t","c","158.0083","227.1683","164","240","240","164","spektor","0.09","h","164","240","240","164","158.0083","227.1683","39360","39360","35894.4834","dc","null","null","null","null","null","null","[1,3]","468.1922733162442","109.92909954979662","528.2559875306367"
"","canvas-keyboard-response","78","109806","0.0-6.0-2.10","558","","","","","rectangles no change","null","null","","","critical","d","t","c","158.0083","227.1683","164","240","240","164","spektor","0.09","h","164","240","240","164","158.0083","227.1683","39360","39360","35894.4834","dc","null","null","null","null","null","null","[1,3]","468.1922733162442","109.92909954979662","528.2559875306367"
"","canvas-keyboard-response","79","111144","0.0-6.0-3.10","558","","","","","rectangles with change","null","null","","","critical","d","t","c","158.0083","227.1683","164","240","240","164","spektor","0.09","h","164","240","240","164","158.0083","227.1683","39360","39360","35894.4834","dc","null","null","null","null","null","null","[1,3]","468.1922733162442","109.92909954979662","528.2559875306367"
"","canvas-keyboard-response","80","111165","0.0-6.0-4.10","558","","","","","clear_screen","null","null","","","critical","d","t","c","158.0083","227.1683","164","240","240","164","spektor","0.09","h","164","240","240","164","158.0083","227.1683","39360","39360","35894.4834","dc","null","null","null","null","null","null","[1,3]","468.1922733162442","109.92909954979662","528.2559875306367"
"","canvas-keyboard-response","81","112263","0.0-6.0-5.10","558","","","","","make choice","1087","3","","","critical","d","t","c","158.0083","227.1683","164","240","240","164","spektor","0.09","h","164","240","240","164","158.0083","227.1683","39360","39360","35894.4834","dc","null","null","null","null","null","null","[1,3]","","",""
"","canvas-keyboard-response","82","112283","0.0-6.0-6.10","558","","","","","clear_screen","null","null","","","critical","d","t","c","158.0083","227.1683","164","240","240","164","spektor","0.09","h","164","240","240","164","158.0083","227.1683","39360","39360","35894.4834","dc","null","null","null","null","null","null","[1,3]","","",""
"","canvas-keyboard-response","83","112483","0.0-6.0-0.11","558","","","","","pre trial waiting period","null","null","","","catch","l","sw","sh","238","213","181","225","179","156","trueblood","null","null","null","null","null","null","null","null","null","null","null","","180","200","260","200","36000","52000","[1,2]","440.43885741056647","431.2542572962454","508.47730879401286"
"","canvas-keyboard-response","84","112504","0.0-6.0-1.11","558","","","","","clear_screen","null","null","","","catch","l","sw","sh","238","213","181","225","179","156","trueblood","null","null","null","null","null","null","null","null","null","null","null","","180","200","260","200","36000","52000","[1,2]","440.43885741056647","431.2542572962454","508.47730879401286"
"","canvas-keyboard-response","85","113018","0.0-6.0-2.11","558","","","","","rectangles no change","null","null","","","catch","l","sw","sh","238","213","181","225","179","156","trueblood","null","null","null","null","null","null","null","null","null","null","null","","180","200","260","200","36000","52000","[1,2]","440.43885741056647","431.2542572962454","508.47730879401286"
"","canvas-keyboard-response","86","114353","0.0-6.0-3.11","558","","","","","rectangles with change","null","null","","","catch","l","sw","sh","238","213","181","225","179","156","trueblood","null","null","null","null","null","null","null","null","null","null","null","","180","200","260","200","36000","52000","[1,2]","440.43885741056647","431.2542572962454","508.47730879401286"
"","canvas-keyboard-response","87","114374","0.0-6.0-4.11","558","","","","","clear_screen","null","null","","","catch","l","sw","sh","238","213","181","225","179","156","trueblood","null","null","null","null","null","null","null","null","null","null","null","","180","200","260","200","36000","52000","[1,2]","440.43885741056647","431.2542572962454","508.47730879401286"
"","canvas-keyboard-response","88","114815","0.0-6.0-5.11","558","","","","","make choice","432","1","","","catch","l","sw","sh","238","213","181","225","179","156","trueblood","null","null","null","null","null","null","null","null","null","null","null","","180","200","260","200","36000","52000","[1,2]","","",""
"","canvas-keyboard-response","89","114834","0.0-6.0-6.11","558","","","","","clear_screen","null","null","","","catch","l","sw","sh","238","213","181","225","179","156","trueblood","null","null","null","null","null","null","null","null","null","null","null","","180","200","260","200","36000","52000","[1,2]","","",""
"","canvas-keyboard-response","90","115036","0.0-6.0-0.12","558","","","","","pre trial waiting period","null","null","","","catch","sh","sw","l","167","201","181","200","198","236","spektor","null","null","null","null","null","null","null","null","null","null","null","","180","200","260","200","36000","52000","[2,3]","496.5152613029745","163.12906004481476","486.2411905345274"
"","canvas-keyboard-response","91","115058","0.0-6.0-1.12","558","","","","","clear_screen","null","null","","","catch","sh","sw","l","167","201","181","200","198","236","spektor","null","null","null","null","null","null","null","null","null","null","null","","180","200","260","200","36000","52000","[2,3]","496.5152613029745","163.12906004481476","486.2411905345274"
"","canvas-keyboard-response","92","115573","0.0-6.0-2.12","558","","","","","rectangles no change","null","null","","","catch","sh","sw","l","167","201","181","200","198","236","spektor","null","null","null","null","null","null","null","null","null","null","null","","180","200","260","200","36000","52000","[2,3]","496.5152613029745","163.12906004481476","486.2411905345274"
"","canvas-keyboard-response","93","116908","0.0-6.0-3.12","558","","","","","rectangles with change","null","null","","","catch","sh","sw","l","167","201","181","200","198","236","spektor","null","null","null","null","null","null","null","null","null","null","null","","180","200","260","200","36000","52000","[2,3]","496.5152613029745","163.12906004481476","486.2411905345274"
"","canvas-keyboard-response","94","116927","0.0-6.0-4.12","558","","","","","clear_screen","null","null","","","catch","sh","sw","l","167","201","181","200","198","236","spektor","null","null","null","null","null","null","null","null","null","null","null","","180","200","260","200","36000","52000","[2,3]","496.5152613029745","163.12906004481476","486.2411905345274"
"","canvas-keyboard-response","95","117382","0.0-6.0-5.12","558","","","","","make choice","448","3","","","catch","sh","sw","l","167","201","181","200","198","236","spektor","null","null","null","null","null","null","null","null","null","null","null","","180","200","260","200","36000","52000","[2,3]","","",""
"","canvas-keyboard-response","96","117401","0.0-6.0-6.12","558","","","","","clear_screen","null","null","","","catch","sh","sw","l","167","201","181","200","198","236","spektor","null","null","null","null","null","null","null","null","null","null","null","","180","200","260","200","36000","52000","[2,3]","","",""
"","canvas-keyboard-response","97","117603","0.0-6.0-0.13","558","","","","","pre trial waiting period","null","null","","","critical","c","d","t","164","240","240","164","240","164","trueblood","0","w","240","164","164","240","240","164","39360","39360","39360","tc","null","null","null","null","null","null","[3,1]","445.39992934377096","493.1176325962903","473.24453901054505"
"","canvas-keyboard-response","98","117624","0.0-6.0-1.13","558","","","","","clear_screen","null","null","","","critical","c","d","t","164","240","240","164","240","164","trueblood","0","w","240","164","164","240","240","164","39360","39360","39360","tc","null","null","null","null","null","null","[3,1]","445.39992934377096","493.1176325962903","473.24453901054505"
"","canvas-keyboard-response","99","118136","0.0-6.0-2.13","558","","","","","rectangles no change","null","null","","","critical","c","d","t","164","240","240","164","240","164","trueblood","0","w","240","164","164","240","240","164","39360","39360","39360","tc","null","null","null","null","null","null","[3,1]","445.39992934377096","493.1176325962903","473.24453901054505"
"","canvas-keyboard-response","100","119471","0.0-6.0-3.13","558","","","","","rectangles with change","null","null","","","critical","c","d","t","164","240","240","164","240","164","trueblood","0","w","240","164","164","240","240","164","39360","39360","39360","tc","null","null","null","null","null","null","[3,1]","445.39992934377096","493.1176325962903","473.24453901054505"
"","canvas-keyboard-response","101","119491","0.0-6.0-4.13","558","","","","","clear_screen","null","null","","","critical","c","d","t","164","240","240","164","240","164","trueblood","0","w","240","164","164","240","240","164","39360","39360","39360","tc","null","null","null","null","null","null","[3,1]","445.39992934377096","493.1176325962903","473.24453901054505"
"","canvas-keyboard-response","102","120246","0.0-6.0-5.13","558","","","","","make choice","746","3","","","critical","c","d","t","164","240","240","164","240","164","trueblood","0","w","240","164","164","240","240","164","39360","39360","39360","tc","null","null","null","null","null","null","[3,1]","","",""
"","canvas-keyboard-response","103","120266","0.0-6.0-6.13","558","","","","","clear_screen","null","null","","","critical","c","d","t","164","240","240","164","240","164","trueblood","0","w","240","164","164","240","240","164","39360","39360","39360","tc","null","null","null","null","null","null","[3,1]","","",""
"","canvas-keyboard-response","104","120467","0.0-6.0-0.14","558","","","","","pre trial waiting period","null","null","","","critical","d","c","t","220.0396","154.6796","164","240","240","164","trueblood","0.14","w","240","164","164","240","220.0396","154.6796","39360","39360","34035.6388","tc","null","null","null","null","null","null","[3,2]","495.533479439429","427.85907248013575","480.966881112823"
"","canvas-keyboard-response","105","120487","0.0-6.0-1.14","558","","","","","clear_screen","null","null","","","critical","d","c","t","220.0396","154.6796","164","240","240","164","trueblood","0.14","w","240","164","164","240","220.0396","154.6796","39360","39360","34035.6388","tc","null","null","null","null","null","null","[3,2]","495.533479439429","427.85907248013575","480.966881112823"
"","canvas-keyboard-response","106","120999","0.0-6.0-2.14","558","","","","","rectangles no change","null","null","","","critical","d","c","t","220.0396","154.6796","164","240","240","164","trueblood","0.14","w","240","164","164","240","220.0396","154.6796","39360","39360","34035.6388","tc","null","null","null","null","null","null","[3,2]","495.533479439429","427.85907248013575","480.966881112823"
"","canvas-keyboard-response","107","122333","0.0-6.0-3.14","558","","","","","rectangles with change","null","null","","","critical","d","c","t","220.0396","154.6796","164","240","240","164","trueblood","0.14","w","240","164","164","240","220.0396","154.6796","39360","39360","34035.6388","tc","null","null","null","null","null","null","[3,2]","495.533479439429","427.85907248013575","480.966881112823"
"","canvas-keyboard-response","108","122352","0.0-6.0-4.14","558","","","","","clear_screen","null","null","","","critical","d","c","t","220.0396","154.6796","164","240","240","164","trueblood","0.14","w","240","164","164","240","220.0396","154.6796","39360","39360","34035.6388","tc","null","null","null","null","null","null","[3,2]","495.533479439429","427.85907248013575","480.966881112823"
"","canvas-keyboard-response","109","122886","0.0-6.0-5.14","558","","","","","make choice","527","3","","","critical","d","c","t","220.0396","154.6796","164","240","240","164","trueblood","0.14","w","240","164","164","240","220.0396","154.6796","39360","39360","34035.6388","tc","null","null","null","null","null","null","[3,2]","","",""
"","canvas-keyboard-response","110","122904","0.0-6.0-6.14","558","","","","","clear_screen","null","null","","","critical","d","c","t","220.0396","154.6796","164","240","240","164","trueblood","0.14","w","240","164","164","240","220.0396","154.6796","39360","39360","34035.6388","tc","null","null","null","null","null","null","[3,2]","","",""
"","canvas-keyboard-response","111","123105","0.0-6.0-0.15","558","","","","","pre trial waiting period","null","null","","","critical","d","c","t","227.1683","158.0083","164","240","240","164","spektor","0.09","w","240","164","164","240","227.1683","158.0083","39360","39360","35894.4834","dc","null","null","null","null","null","null","[1,2]","505.9376148361484","152.5408143798539","506.7260818109799"
"","canvas-keyboard-response","112","123125","0.0-6.0-1.15","558","","","","","clear_screen","null","null","","","critical","d","c","t","227.1683","158.0083","164","240","240","164","spektor","0.09","w","240","164","164","240","227.1683","158.0083","39360","39360","35894.4834","dc","null","null","null","null","null","null","[1,2]","505.9376148361484","152.5408143798539","506.7260818109799"
"","canvas-keyboard-response","113","123637","0.0-6.0-2.15","558","","","","","rectangles no change","null","null","","","critical","d","c","t","227.1683","158.0083","164","240","240","164","spektor","0.09","w","240","164","164","240","227.1683","158.0083","39360","39360","35894.4834","dc","null","null","null","null","null","null","[1,2]","505.9376148361484","152.5408143798539","506.7260818109799"
"","canvas-keyboard-response","114","124973","0.0-6.0-3.15","558","","","","","rectangles with change","null","null","","","critical","d","c","t","227.1683","158.0083","164","240","240","164","spektor","0.09","w","240","164","164","240","227.1683","158.0083","39360","39360","35894.4834","dc","null","null","null","null","null","null","[1,2]","505.9376148361484","152.5408143798539","506.7260818109799"
"","canvas-keyboard-response","115","124993","0.0-6.0-4.15","558","","","","","clear_screen","null","null","","","critical","d","c","t","227.1683","158.0083","164","240","240","164","spektor","0.09","w","240","164","164","240","227.1683","158.0083","39360","39360","35894.4834","dc","null","null","null","null","null","null","[1,2]","505.9376148361484","152.5408143798539","506.7260818109799"
"","canvas-keyboard-response","116","126054","0.0-6.0-5.15","558","","","","","make choice","1050","1","","","critical","d","c","t","227.1683","158.0083","164","240","240","164","spektor","0.09","w","240","164","164","240","227.1683","158.0083","39360","39360","35894.4834","dc","null","null","null","null","null","null","[1,2]","","",""
"","canvas-keyboard-response","117","126075","0.0-6.0-6.15","558","","","","","clear_screen","null","null","","","critical","d","c","t","227.1683","158.0083","164","240","240","164","spektor","0.09","w","240","164","164","240","227.1683","158.0083","39360","39360","35894.4834","dc","null","null","null","null","null","null","[1,2]","","",""
"","canvas-keyboard-response","118","126276","0.0-6.0-0.16","558","","","","","pre trial waiting period","null","null","","","critical","d","c","t","154.6796","220.0396","240","164","164","240","spektor","0.14","h","164","240","240","164","154.6796","220.0396","39360","39360","34035.6388","tc","null","null","null","null","null","null","[3,2]","498.8572797446571","157.64308880496264","490.1662688894415"
"","canvas-keyboard-response","119","126295","0.0-6.0-1.16","558","","","","","clear_screen","null","null","","","critical","d","c","t","154.6796","220.0396","240","164","164","240","spektor","0.14","h","164","240","240","164","154.6796","220.0396","39360","39360","34035.6388","tc","null","null","null","null","null","null","[3,2]","498.8572797446571","157.64308880496264","490.1662688894415"
"","canvas-keyboard-response","120","126810","0.0-6.0-2.16","558","","","","","rectangles no change","null","null","","","critical","d","c","t","154.6796","220.0396","240","164","164","240","spektor","0.14","h","164","240","240","164","154.6796","220.0396","39360","39360","34035.6388","tc","null","null","null","null","null","null","[3,2]","498.8572797446571","157.64308880496264","490.1662688894415"
"","canvas-keyboard-response","121","128145","0.0-6.0-3.16","558","","","","","rectangles with change","null","null","","","critical","d","c","t","154.6796","220.0396","240","164","164","240","spektor","0.14","h","164","240","240","164","154.6796","220.0396","39360","39360","34035.6388","tc","null","null","null","null","null","null","[3,2]","498.8572797446571","157.64308880496264","490.1662688894415"
"","canvas-keyboard-response","122","128163","0.0-6.0-4.16","558","","","","","clear_screen","null","null","","","critical","d","c","t","154.6796","220.0396","240","164","164","240","spektor","0.14","h","164","240","240","164","154.6796","220.0396","39360","39360","34035.6388","tc","null","null","null","null","null","null","[3,2]","498.8572797446571","157.64308880496264","490.1662688894415"
"","canvas-keyboard-response","123","128670","0.0-6.0-5.16","558","","","","","make choice","501","2","","","critical","d","c","t","154.6796","220.0396","240","164","164","240","spektor","0.14","h","164","240","240","164","154.6796","220.0396","39360","39360","34035.6388","tc","null","null","null","null","null","null","[3,2]","","",""
"","canvas-keyboard-response","124","128689","0.0-6.0-6.16","558","","","","","clear_screen","null","null","","","critical","d","c","t","154.6796","220.0396","240","164","164","240","spektor","0.14","h","164","240","240","164","154.6796","220.0396","39360","39360","34035.6388","tc","null","null","null","null","null","null","[3,2]","","",""
"","canvas-keyboard-response","125","128894","0.0-6.0-0.17","558","","","","","pre trial waiting period","null","null","","","catch","l","sh","sw","221","274","223","200","192","199","spektor","null","null","null","null","null","null","null","null","null","null","null","","180","200","260","200","36000","52000","[1,3]","441.3557982592391","116.63078434704845","496.6022409984856"
"","canvas-keyboard-response","126","128913","0.0-6.0-1.17","558","","","","","clear_screen","null","null","","","catch","l","sh","sw","221","274","223","200","192","199","spektor","null","null","null","null","null","null","null","null","null","null","null","","180","200","260","200","36000","52000","[1,3]","441.3557982592391","116.63078434704845","496.6022409984856"
"","canvas-keyboard-response","127","129427","0.0-6.0-2.17","558","","","","","rectangles no change","null","null","","","catch","l","sh","sw","221","274","223","200","192","199","spektor","null","null","null","null","null","null","null","null","null","null","null","","180","200","260","200","36000","52000","[1,3]","441.3557982592391","116.63078434704845","496.6022409984856"
"","canvas-keyboard-response","128","130763","0.0-6.0-3.17","558","","","","","rectangles with change","null","null","","","catch","l","sh","sw","221","274","223","200","192","199","spektor","null","null","null","null","null","null","null","null","null","null","null","","180","200","260","200","36000","52000","[1,3]","441.3557982592391","116.63078434704845","496.6022409984856"
"","canvas-keyboard-response","129","130781","0.0-6.0-4.17","558","","","","","clear_screen","null","null","","","catch","l","sh","sw","221","274","223","200","192","199","spektor","null","null","null","null","null","null","null","null","null","null","null","","180","200","260","200","36000","52000","[1,3]","441.3557982592391","116.63078434704845","496.6022409984856"
"","canvas-keyboard-response","130","131470","0.0-6.0-5.17","558","","","","","make choice","681","1","","","catch","l","sh","sw","221","274","223","200","192","199","spektor","null","null","null","null","null","null","null","null","null","null","null","","180","200","260","200","36000","52000","[1,3]","","",""
"","canvas-keyboard-response","131","131488","0.0-6.0-6.17","558","","","","","clear_screen","null","null","","","catch","l","sh","sw","221","274","223","200","192","199","spektor","null","null","null","null","null","null","null","null","null","null","null","","180","200","260","200","36000","52000","[1,3]","","",""
"","canvas-keyboard-response","132","131691","0.0-6.0-0.18","558","","","","","pre trial waiting period","null","null","","","critical","c","d","t","164","240","240","164","240","164","spektor","0","w","240","164","164","240","240","164","39360","39360","39360","td","null","null","null","null","null","null","[3,2]","467.31146391379644","193.38588469019405","529.8774943874836"
"","canvas-keyboard-response","133","131710","0.0-6.0-1.18","558","","","","","clear_screen","null","null","","","critical","c","d","t","164","240","240","164","240","164","spektor","0","w","240","164","164","240","240","164","39360","39360","39360","td","null","null","null","null","null","null","[3,2]","467.31146391379644","193.38588469019405","529.8774943874836"
"","canvas-keyboard-response","134","132220","0.0-6.0-2.18","558","","","","","rectangles no change","null","null","","","critical","c","d","t","164","240","240","164","240","164","spektor","0","w","240","164","164","240","240","164","39360","39360","39360","td","null","null","null","null","null","null","[3,2]","467.31146391379644","193.38588469019405","529.8774943874836"
"","canvas-keyboard-response","135","133557","0.0-6.0-3.18","558","","","","","rectangles with change","null","null","","","critical","c","d","t","164","240","240","164","240","164","spektor","0","w","240","164","164","240","240","164","39360","39360","39360","td","null","null","null","null","null","null","[3,2]","467.31146391379644","193.38588469019405","529.8774943874836"
"","canvas-keyboard-response","136","133575","0.0-6.0-4.18","558","","","","","clear_screen","null","null","","","critical","c","d","t","164","240","240","164","240","164","spektor","0","w","240","164","164","240","240","164","39360","39360","39360","td","null","null","null","null","null","null","[3,2]","467.31146391379644","193.38588469019405","529.8774943874836"
"","canvas-keyboard-response","137","134238","0.0-6.0-5.18","558","","","","","make choice","656","2","","","critical","c","d","t","164","240","240","164","240","164","spektor","0","w","240","164","164","240","240","164","39360","39360","39360","td","null","null","null","null","null","null","[3,2]","","",""
"","canvas-keyboard-response","138","134258","0.0-6.0-6.18","558","","","","","clear_screen","null","null","","","critical","c","d","t","164","240","240","164","240","164","spektor","0","w","240","164","164","240","240","164","39360","39360","39360","td","null","null","null","null","null","null","[3,2]","","",""
"","canvas-keyboard-response","139","134459","0.0-6.0-0.19","558","","","","","pre trial waiting period","null","null","","","critical","d","c","t","237.1485","162.6685","164","240","240","164","trueblood","0.02","w","240","164","164","240","237.1485","162.6685","39360","39360","38576.5967","td","null","null","null","null","null","null","[3,1]","516.6513060466558","447.7946675225328","475.76501200409285"
"","canvas-keyboard-response","140","134477","0.0-6.0-1.19","558","","","","","clear_screen","null","null","","","critical","d","c","t","237.1485","162.6685","164","240","240","164","trueblood","0.02","w","240","164","164","240","237.1485","162.6685","39360","39360","38576.5967","td","null","null","null","null","null","null","[3,1]","516.6513060466558","447.7946675225328","475.76501200409285"
"","canvas-keyboard-response","141","134993","0.0-6.0-2.19","558","","","","","rectangles no change","null","null","","","critical","d","c","t","237.1485","162.6685","164","240","240","164","trueblood","0.02","w","240","164","164","240","237.1485","162.6685","39360","39360","38576.5967","td","null","null","null","null","null","null","[3,1]","516.6513060466558","447.7946675225328","475.76501200409285"
"","canvas-keyboard-response","142","136328","0.0-6.0-3.19","558","","","","","rectangles with change","null","null","","","critical","d","c","t","237.1485","162.6685","164","240","240","164","trueblood","0.02","w","240","164","164","240","237.1485","162.6685","39360","39360","38576.5967","td","null","null","null","null","null","null","[3,1]","516.6513060466558","447.7946675225328","475.76501200409285"
"","canvas-keyboard-response","143","136347","0.0-6.0-4.19","558","","","","","clear_screen","null","null","","","critical","d","c","t","237.1485","162.6685","164","240","240","164","trueblood","0.02","w","240","164","164","240","237.1485","162.6685","39360","39360","38576.5967","td","null","null","null","null","null","null","[3,1]","516.6513060466558","447.7946675225328","475.76501200409285"
"","canvas-keyboard-response","144","137286","0.0-6.0-5.19","558","","","","","make choice","933","1","","","critical","d","c","t","237.1485","162.6685","164","240","240","164","trueblood","0.02","w","240","164","164","240","237.1485","162.6685","39360","39360","38576.5967","td","null","null","null","null","null","null","[3,1]","","",""
"","canvas-keyboard-response","145","137305","0.0-6.0-6.19","558","","","","","clear_screen","null","null","","","critical","d","c","t","237.1485","162.6685","164","240","240","164","trueblood","0.02","w","240","164","164","240","237.1485","162.6685","39360","39360","38576.5967","td","null","null","null","null","null","null","[3,1]","","",""
"","canvas-keyboard-response","146","137506","0.0-6.0-0.20","558","","","","","pre trial waiting period","null","null","","","catch","sh","sw","l","208","150","155","168","252","171","trueblood","null","null","null","null","null","null","null","null","null","null","null","","180","200","260","200","36000","52000","[2,3]","489.7224891252072","492.88599379376177","478.61385140738963"
"","canvas-keyboard-response","147","137525","0.0-6.0-1.20","558","","","","","clear_screen","null","null","","","catch","sh","sw","l","208","150","155","168","252","171","trueblood","null","null","null","null","null","null","null","null","null","null","null","","180","200","260","200","36000","52000","[2,3]","489.7224891252072","492.88599379376177","478.61385140738963"
"","canvas-keyboard-response","148","138035","0.0-6.0-2.20","558","","","","","rectangles no change","null","null","","","catch","sh","sw","l","208","150","155","168","252","171","trueblood","null","null","null","null","null","null","null","null","null","null","null","","180","200","260","200","36000","52000","[2,3]","489.7224891252072","492.88599379376177","478.61385140738963"
"","canvas-keyboard-response","149","139371","0.0-6.0-3.20","558","","","","","rectangles with change","null","null","","","catch","sh","sw","l","208","150","155","168","252","171","trueblood","null","null","null","null","null","null","null","null","null","null","null","","180","200","260","200","36000","52000","[2,3]","489.7224891252072","492.88599379376177","478.61385140738963"
"","canvas-keyboard-response","150","139389","0.0-6.0-4.20","558","","","","","clear_screen","null","null","","","catch","sh","sw","l","208","150","155","168","252","171","trueblood","null","null","null","null","null","null","null","null","null","null","null","","180","200","260","200","36000","52000","[2,3]","489.7224891252072","492.88599379376177","478.61385140738963"
"","canvas-keyboard-response","151","140126","0.0-6.0-5.20","558","","","","","make choice","730","3","","","catch","sh","sw","l","208","150","155","168","252","171","trueblood","null","null","null","null","null","null","null","null","null","null","null","","180","200","260","200","36000","52000","[2,3]","","",""
"","canvas-keyboard-response","152","140145","0.0-6.0-6.20","558","","","","","clear_screen","null","null","","","catch","sh","sw","l","208","150","155","168","252","171","trueblood","null","null","null","null","null","null","null","null","null","null","null","","180","200","260","200","36000","52000","[2,3]","","",""
"","canvas-keyboard-response","153","140346","0.0-6.0-0.21","558","","","","","pre trial waiting period","null","null","","","critical","d","t","c","154.6796","220.0396","164","240","240","164","spektor","0.14","h","164","240","240","164","154.6796","220.0396","39360","39360","34035.6388","dc","null","null","null","null","null","null","[1,3]","494.6549875791013","99.52677952691121","529.324552404986"
"","canvas-keyboard-response","154","140366","0.0-6.0-1.21","558","","","","","clear_screen","null","null","","","critical","d","t","c","154.6796","220.0396","164","240","240","164","spektor","0.14","h","164","240","240","164","154.6796","220.0396","39360","39360","34035.6388","dc","null","null","null","null","null","null","[1,3]","494.6549875791013","99.52677952691121","529.324552404986"
"","canvas-keyboard-response","155","140879","0.0-6.0-2.21","558","","","","","rectangles no change","null","null","","","critical","d","t","c","154.6796","220.0396","164","240","240","164","spektor","0.14","h","164","240","240","164","154.6796","220.0396","39360","39360","34035.6388","dc","null","null","null","null","null","null","[1,3]","494.6549875791013","99.52677952691121","529.324552404986"
"","canvas-keyboard-response","156","142218","0.0-6.0-3.21","558","","","","","rectangles with change","null","null","","","critical","d","t","c","154.6796","220.0396","164","240","240","164","spektor","0.14","h","164","240","240","164","154.6796","220.0396","39360","39360","34035.6388","dc","null","null","null","null","null","null","[1,3]","494.6549875791013","99.52677952691121","529.324552404986"
"","canvas-keyboard-response","157","142239","0.0-6.0-4.21","558","","","","","clear_screen","null","null","","","critical","d","t","c","154.6796","220.0396","164","240","240","164","spektor","0.14","h","164","240","240","164","154.6796","220.0396","39360","39360","34035.6388","dc","null","null","null","null","null","null","[1,3]","494.6549875791013","99.52677952691121","529.324552404986"
"","canvas-keyboard-response","158","143239","0.0-6.0-5.21","558","","","","","make choice","989","1","","","critical","d","t","c","154.6796","220.0396","164","240","240","164","spektor","0.14","h","164","240","240","164","154.6796","220.0396","39360","39360","34035.6388","dc","null","null","null","null","null","null","[1,3]","","",""
"","canvas-keyboard-response","159","143258","0.0-6.0-6.21","558","","","","","clear_screen","null","null","","","critical","d","t","c","154.6796","220.0396","164","240","240","164","spektor","0.14","h","164","240","240","164","154.6796","220.0396","39360","39360","34035.6388","dc","null","null","null","null","null","null","[1,3]","","",""
"","canvas-keyboard-response","160","143460","0.0-6.0-0.22","558","","","","","pre trial waiting period","null","null","","","critical","t","c","d","164","240","240","164","158.0083","227.1683","spektor","0.09","h","164","240","240","164","158.0083","227.1683","39360","39360","35894.4834","td","null","null","null","null","null","null","[1,3]","477.0810247990092","151.86827832900516","491.7740751424636"
"","canvas-keyboard-response","161","143479","0.0-6.0-1.22","558","","","","","clear_screen","null","null","","","critical","t","c","d","164","240","240","164","158.0083","227.1683","spektor","0.09","h","164","240","240","164","158.0083","227.1683","39360","39360","35894.4834","td","null","null","null","null","null","null","[1,3]","477.0810247990092","151.86827832900516","491.7740751424636"
"","canvas-keyboard-response","162","143991","0.0-6.0-2.22","558","","","","","rectangles no change","null","null","","","critical","t","c","d","164","240","240","164","158.0083","227.1683","spektor","0.09","h","164","240","240","164","158.0083","227.1683","39360","39360","35894.4834","td","null","null","null","null","null","null","[1,3]","477.0810247990092","151.86827832900516","491.7740751424636"
"","canvas-keyboard-response","163","145328","0.0-6.0-3.22","558","","","","","rectangles with change","null","null","","","critical","t","c","d","164","240","240","164","158.0083","227.1683","spektor","0.09","h","164","240","240","164","158.0083","227.1683","39360","39360","35894.4834","td","null","null","null","null","null","null","[1,3]","477.0810247990092","151.86827832900516","491.7740751424636"
"","canvas-keyboard-response","164","145346","0.0-6.0-4.22","558","","","","","clear_screen","null","null","","","critical","t","c","d","164","240","240","164","158.0083","227.1683","spektor","0.09","h","164","240","240","164","158.0083","227.1683","39360","39360","35894.4834","td","null","null","null","null","null","null","[1,3]","477.0810247990092","151.86827832900516","491.7740751424636"
"","canvas-keyboard-response","165","145983","0.0-6.0-5.22","558","","","","","make choice","628","3","","","critical","t","c","d","164","240","240","164","158.0083","227.1683","spektor","0.09","h","164","240","240","164","158.0083","227.1683","39360","39360","35894.4834","td","null","null","null","null","null","null","[1,3]","","",""
"","canvas-keyboard-response","166","146002","0.0-6.0-6.22","558","","","","","clear_screen","null","null","","","critical","t","c","d","164","240","240","164","158.0083","227.1683","spektor","0.09","h","164","240","240","164","158.0083","227.1683","39360","39360","35894.4834","td","null","null","null","null","null","null","[1,3]","","",""
"","canvas-keyboard-response","167","146204","0.0-6.0-0.23","558","","","","","pre trial waiting period","null","null","","","critical","c","d","t","240","164","160.6713","232.8713","164","240","spektor","0.05","h","164","240","240","164","160.6713","232.8713","39360","39360","37415.7294","td","null","null","null","null","null","null","[3,2]","532.5612006039144","131.72280835896018","479.64297645775804"
"","canvas-keyboard-response","168","146229","0.0-6.0-1.23","558","","","","","clear_screen","null","null","","","critical","c","d","t","240","164","160.6713","232.8713","164","240","spektor","0.05","h","164","240","240","164","160.6713","232.8713","39360","39360","37415.7294","td","null","null","null","null","null","null","[3,2]","532.5612006039144","131.72280835896018","479.64297645775804"
"","canvas-keyboard-response","169","146743","0.0-6.0-2.23","558","","","","","rectangles no change","null","null","","","critical","c","d","t","240","164","160.6713","232.8713","164","240","spektor","0.05","h","164","240","240","164","160.6713","232.8713","39360","39360","37415.7294","td","null","null","null","null","null","null","[3,2]","532.5612006039144","131.72280835896018","479.64297645775804"
"","canvas-keyboard-response","170","148079","0.0-6.0-3.23","558","","","","","rectangles with change","null","null","","","critical","c","d","t","240","164","160.6713","232.8713","164","240","spektor","0.05","h","164","240","240","164","160.6713","232.8713","39360","39360","37415.7294","td","null","null","null","null","null","null","[3,2]","532.5612006039144","131.72280835896018","479.64297645775804"
"","canvas-keyboard-response","171","148098","0.0-6.0-4.23","558","","","","","clear_screen","null","null","","","critical","c","d","t","240","164","160.6713","232.8713","164","240","spektor","0.05","h","164","240","240","164","160.6713","232.8713","39360","39360","37415.7294","td","null","null","null","null","null","null","[3,2]","532.5612006039144","131.72280835896018","479.64297645775804"
"","canvas-keyboard-response","172","149390","0.0-6.0-5.23","558","","","","","make choice","1285","2","","","critical","c","d","t","240","164","160.6713","232.8713","164","240","spektor","0.05","h","164","240","240","164","160.6713","232.8713","39360","39360","37415.7294","td","null","null","null","null","null","null","[3,2]","","",""
"","canvas-keyboard-response","173","149409","0.0-6.0-6.23","558","","","","","clear_screen","null","null","","","critical","c","d","t","240","164","160.6713","232.8713","164","240","spektor","0.05","h","164","240","240","164","160.6713","232.8713","39360","39360","37415.7294","td","null","null","null","null","null","null","[3,2]","","",""
"","canvas-keyboard-response","174","149611","0.0-6.0-0.24","558","","","","","pre trial waiting period","null","null","","","catch","sh","l","sw","222","214","231","220","179","160","spektor","null","null","null","null","null","null","null","null","null","null","null","","180","200","260","200","36000","52000","[1,2]","474.20812764973397","144.22905468178746","535.5442502145073"
"","canvas-keyboard-response","175","149631","0.0-6.0-1.24","558","","","","","clear_screen","null","null","","","catch","sh","l","sw","222","214","231","220","179","160","spektor","null","null","null","null","null","null","null","null","null","null","null","","180","200","260","200","36000","52000","[1,2]","474.20812764973397","144.22905468178746","535.5442502145073"
"","canvas-keyboard-response","176","150144","0.0-6.0-2.24","558","","","","","rectangles no change","null","null","","","catch","sh","l","sw","222","214","231","220","179","160","spektor","null","null","null","null","null","null","null","null","null","null","null","","180","200","260","200","36000","52000","[1,2]","474.20812764973397","144.22905468178746","535.5442502145073"
"","canvas-keyboard-response","177","151480","0.0-6.0-3.24","558","","","","","rectangles with change","null","null","","","catch","sh","l","sw","222","214","231","220","179","160","spektor","null","null","null","null","null","null","null","null","null","null","null","","180","200","260","200","36000","52000","[1,2]","474.20812764973397","144.22905468178746","535.5442502145073"
"","canvas-keyboard-response","178","151499","0.0-6.0-4.24","558","","","","","clear_screen","null","null","","","catch","sh","l","sw","222","214","231","220","179","160","spektor","null","null","null","null","null","null","null","null","null","null","null","","180","200","260","200","36000","52000","[1,2]","474.20812764973397","144.22905468178746","535.5442502145073"
"","canvas-keyboard-response","179","151990","0.0-6.0-5.24","558","","","","","make choice","484","2","","","catch","sh","l","sw","222","214","231","220","179","160","spektor","null","null","null","null","null","null","null","null","null","null","null","","180","200","260","200","36000","52000","[1,2]","","",""
"","canvas-keyboard-response","180","152009","0.0-6.0-6.24","558","","","","","clear_screen","null","null","","","catch","sh","l","sw","222","214","231","220","179","160","spektor","null","null","null","null","null","null","null","null","null","null","null","","180","200","260","200","36000","52000","[1,2]","","",""
"","canvas-keyboard-response","181","152211","0.0-6.0-0.25","558","","","","","pre trial waiting period","null","null","","","catch","sw","sh","l","180","200","162","187","268","193","spektor","null","null","null","null","null","null","null","null","null","null","null","","180","200","260","200","36000","52000","[1,3]","522.7618540683472","148.66167279434754","525.7784942814172"
"","canvas-keyboard-response","182","152231","0.0-6.0-1.25","558","","","","","clear_screen","null","null","","","catch","sw","sh","l","180","200","162","187","268","193","spektor","null","null","null","null","null","null","null","null","null","null","null","","180","200","260","200","36000","52000","[1,3]","522.7618540683472","148.66167279434754","525.7784942814172"
"","canvas-keyboard-response","183","152744","0.0-6.0-2.25","558","","","","","rectangles no change","null","null","","","catch","sw","sh","l","180","200","162","187","268","193","spektor","null","null","null","null","null","null","null","null","null","null","null","","180","200","260","200","36000","52000","[1,3]","522.7618540683472","148.66167279434754","525.7784942814172"
"","canvas-keyboard-response","184","154080","0.0-6.0-3.25","558","","","","","rectangles with change","null","null","","","catch","sw","sh","l","180","200","162","187","268","193","spektor","null","null","null","null","null","null","null","null","null","null","null","","180","200","260","200","36000","52000","[1,3]","522.7618540683472","148.66167279434754","525.7784942814172"
"","canvas-keyboard-response","185","154098","0.0-6.0-4.25","558","","","","","clear_screen","null","null","","","catch","sw","sh","l","180","200","162","187","268","193","spektor","null","null","null","null","null","null","null","null","null","null","null","","180","200","260","200","36000","52000","[1,3]","522.7618540683472","148.66167279434754","525.7784942814172"
"","canvas-keyboard-response","186","154854","0.0-6.0-5.25","558","","","","","make choice","750","3","","","catch","sw","sh","l","180","200","162","187","268","193","spektor","null","null","null","null","null","null","null","null","null","null","null","","180","200","260","200","36000","52000","[1,3]","","",""
"","canvas-keyboard-response","187","154874","0.0-6.0-6.25","558","","","","","clear_screen","null","null","","","catch","sw","sh","l","180","200","162","187","268","193","spektor","null","null","null","null","null","null","null","null","null","null","null","","180","200","260","200","36000","52000","[1,3]","","",""
"","canvas-keyboard-response","188","155076","0.0-6.0-0.26","558","","","","","pre trial waiting period","null","null","","","critical","c","d","t","240","164","164","240","164","240","trueblood","0","h","164","240","240","164","164","240","39360","39360","39360","td","null","null","null","null","null","null","[3,2]","487.75871182398294","441.20026026889184","442.7460510465428"
"","canvas-keyboard-response","189","155095","0.0-6.0-1.26","558","","","","","clear_screen","null","null","","","critical","c","d","t","240","164","164","240","164","240","trueblood","0","h","164","240","240","164","164","240","39360","39360","39360","td","null","null","null","null","null","null","[3,2]","487.75871182398294","441.20026026889184","442.7460510465428"
"","canvas-keyboard-response","190","155606","0.0-6.0-2.26","558","","","","","rectangles no change","null","null","","","critical","c","d","t","240","164","164","240","164","240","trueblood","0","h","164","240","240","164","164","240","39360","39360","39360","td","null","null","null","null","null","null","[3,2]","487.75871182398294","441.20026026889184","442.7460510465428"
"","canvas-keyboard-response","191","156946","0.0-6.0-3.26","558","","","","","rectangles with change","null","null","","","critical","c","d","t","240","164","164","240","164","240","trueblood","0","h","164","240","240","164","164","240","39360","39360","39360","td","null","null","null","null","null","null","[3,2]","487.75871182398294","441.20026026889184","442.7460510465428"
"","canvas-keyboard-response","192","156965","0.0-6.0-4.26","558","","","","","clear_screen","null","null","","","critical","c","d","t","240","164","164","240","164","240","trueblood","0","h","164","240","240","164","164","240","39360","39360","39360","td","null","null","null","null","null","null","[3,2]","487.75871182398294","441.20026026889184","442.7460510465428"
"","canvas-keyboard-response","193","157310","0.0-6.0-5.26","558","","","","","make choice","337","3","","","critical","c","d","t","240","164","164","240","164","240","trueblood","0","h","164","240","240","164","164","240","39360","39360","39360","td","null","null","null","null","null","null","[3,2]","","",""
"","canvas-keyboard-response","194","157328","0.0-6.0-6.26","558","","","","","clear_screen","null","null","","","critical","c","d","t","240","164","164","240","164","240","trueblood","0","h","164","240","240","164","164","240","39360","39360","39360","td","null","null","null","null","null","null","[3,2]","","",""
"","canvas-keyboard-response","195","157529","0.0-6.0-0.27","558","","","","","pre trial waiting period","null","null","","","catch","l","sw","sh","251","209","210","210","165","200","spektor","null","null","null","null","null","null","null","null","null","null","null","","180","200","260","200","36000","52000","[1,3]","504.7667582392327","136.66757027536397","475.29563899106563"
"","canvas-keyboard-response","196","157548","0.0-6.0-1.27","558","","","","","clear_screen","null","null","","","catch","l","sw","sh","251","209","210","210","165","200","spektor","null","null","null","null","null","null","null","null","null","null","null","","180","200","260","200","36000","52000","[1,3]","504.7667582392327","136.66757027536397","475.29563899106563"
"","canvas-keyboard-response","197","158060","0.0-6.0-2.27","558","","","","","rectangles no change","null","null","","","catch","l","sw","sh","251","209","210","210","165","200","spektor","null","null","null","null","null","null","null","null","null","null","null","","180","200","260","200","36000","52000","[1,3]","504.7667582392327","136.66757027536397","475.29563899106563"
"","canvas-keyboard-response","198","159397","0.0-6.0-3.27","558","","","","","rectangles with change","null","null","","","catch","l","sw","sh","251","209","210","210","165","200","spektor","null","null","null","null","null","null","null","null","null","null","null","","180","200","260","200","36000","52000","[1,3]","504.7667582392327","136.66757027536397","475.29563899106563"
"","canvas-keyboard-response","199","159415","0.0-6.0-4.27","558","","","","","clear_screen","null","null","","","catch","l","sw","sh","251","209","210","210","165","200","spektor","null","null","null","null","null","null","null","null","null","null","null","","180","200","260","200","36000","52000","[1,3]","504.7667582392327","136.66757027536397","475.29563899106563"
"","canvas-keyboard-response","200","159934","0.0-6.0-5.27","558","","","","","make choice","513","1","","","catch","l","sw","sh","251","209","210","210","165","200","spektor","null","null","null","null","null","null","null","null","null","null","null","","180","200","260","200","36000","52000","[1,3]","","",""
"","canvas-keyboard-response","201","159952","0.0-6.0-6.27","558","","","","","clear_screen","null","null","","","catch","l","sw","sh","251","209","210","210","165","200","spektor","null","null","null","null","null","null","null","null","null","null","null","","180","200","260","200","36000","52000","[1,3]","","",""
"","canvas-keyboard-response","202","160153","0.0-6.0-0.28","558","","","","","pre trial waiting period","null","null","","","catch","sh","sw","l","227","217","206","223","234","255","spektor","null","null","null","null","null","null","null","null","null","null","null","","180","200","260","200","36000","52000","[2,3]","505.31626552547704","118.17795118748668","493.16494922219954"
"","canvas-keyboard-response","203","160176","0.0-6.0-1.28","558","","","","","clear_screen","null","null","","","catch","sh","sw","l","227","217","206","223","234","255","spektor","null","null","null","null","null","null","null","null","null","null","null","","180","200","260","200","36000","52000","[2,3]","505.31626552547704","118.17795118748668","493.16494922219954"
"","canvas-keyboard-response","204","160687","0.0-6.0-2.28","558","","","","","rectangles no change","null","null","","","catch","sh","sw","l","227","217","206","223","234","255","spektor","null","null","null","null","null","null","null","null","null","null","null","","180","200","260","200","36000","52000","[2,3]","505.31626552547704","118.17795118748668","493.16494922219954"
"","canvas-keyboard-response","205","162023","0.0-6.0-3.28","558","","","","","rectangles with change","null","null","","","catch","sh","sw","l","227","217","206","223","234","255","spektor","null","null","null","null","null","null","null","null","null","null","null","","180","200","260","200","36000","52000","[2,3]","505.31626552547704","118.17795118748668","493.16494922219954"
"","canvas-keyboard-response","206","162042","0.0-6.0-4.28","558","","","","","clear_screen","null","null","","","catch","sh","sw","l","227","217","206","223","234","255","spektor","null","null","null","null","null","null","null","null","null","null","null","","180","200","260","200","36000","52000","[2,3]","505.31626552547704","118.17795118748668","493.16494922219954"
"","canvas-keyboard-response","207","162414","0.0-6.0-5.28","558","","","","","make choice","364","3","","","catch","sh","sw","l","227","217","206","223","234","255","spektor","null","null","null","null","null","null","null","null","null","null","null","","180","200","260","200","36000","52000","[2,3]","","",""
"","canvas-keyboard-response","208","162432","0.0-6.0-6.28","558","","","","","clear_screen","null","null","","","catch","sh","sw","l","227","217","206","223","234","255","spektor","null","null","null","null","null","null","null","null","null","null","null","","180","200","260","200","36000","52000","[2,3]","","",""
"","canvas-keyboard-response","209","162633","0.0-6.0-0.29","558","","","","","pre trial waiting period","null","null","","","critical","d","t","c","227.1683","158.0083","240","164","164","240","trueblood","0.09","w","240","164","164","240","227.1683","158.0083","39360","39360","35894.4834","dc","null","null","null","null","null","null","[1,3]","483.6497721239394","483.8033560882876","443.0908268937338"
"","canvas-keyboard-response","210","162652","0.0-6.0-1.29","558","","","","","clear_screen","null","null","","","critical","d","t","c","227.1683","158.0083","240","164","164","240","trueblood","0.09","w","240","164","164","240","227.1683","158.0083","39360","39360","35894.4834","dc","null","null","null","null","null","null","[1,3]","483.6497721239394","483.8033560882876","443.0908268937338"
"","canvas-keyboard-response","211","163165","0.0-6.0-2.29","558","","","","","rectangles no change","null","null","","","critical","d","t","c","227.1683","158.0083","240","164","164","240","trueblood","0.09","w","240","164","164","240","227.1683","158.0083","39360","39360","35894.4834","dc","null","null","null","null","null","null","[1,3]","483.6497721239394","483.8033560882876","443.0908268937338"
"","canvas-keyboard-response","212","164500","0.0-6.0-3.29","558","","","","","rectangles with change","null","null","","","critical","d","t","c","227.1683","158.0083","240","164","164","240","trueblood","0.09","w","240","164","164","240","227.1683","158.0083","39360","39360","35894.4834","dc","null","null","null","null","null","null","[1,3]","483.6497721239394","483.8033560882876","443.0908268937338"
"","canvas-keyboard-response","213","164518","0.0-6.0-4.29","558","","","","","clear_screen","null","null","","","critical","d","t","c","227.1683","158.0083","240","164","164","240","trueblood","0.09","w","240","164","164","240","227.1683","158.0083","39360","39360","35894.4834","dc","null","null","null","null","null","null","[1,3]","483.6497721239394","483.8033560882876","443.0908268937338"
"","canvas-keyboard-response","214","165262","0.0-6.0-5.29","558","","","","","make choice","733","1","","","critical","d","t","c","227.1683","158.0083","240","164","164","240","trueblood","0.09","w","240","164","164","240","227.1683","158.0083","39360","39360","35894.4834","dc","null","null","null","null","null","null","[1,3]","","",""
"","canvas-keyboard-response","215","165280","0.0-6.0-6.29","558","","","","","clear_screen","null","null","","","critical","d","t","c","227.1683","158.0083","240","164","164","240","trueblood","0.09","w","240","164","164","240","227.1683","158.0083","39360","39360","35894.4834","dc","null","null","null","null","null","null","[1,3]","","",""
"","canvas-keyboard-response","216","165482","0.0-6.0-0.30","558","","","","","pre trial waiting period","null","null","","","critical","d","c","t","237.1485","162.6685","164","240","240","164","trueblood","0.02","w","240","164","164","240","237.1485","162.6685","39360","39360","38576.5967","dc","null","null","null","null","null","null","[1,2]","478.459709066966","462.2475802927767","471.28139819970426"
"","canvas-keyboard-response","217","165502","0.0-6.0-1.30","558","","","","","clear_screen","null","null","","","critical","d","c","t","237.1485","162.6685","164","240","240","164","trueblood","0.02","w","240","164","164","240","237.1485","162.6685","39360","39360","38576.5967","dc","null","null","null","null","null","null","[1,2]","478.459709066966","462.2475802927767","471.28139819970426"
"","canvas-keyboard-response","218","166010","0.0-6.0-2.30","558","","","","","rectangles no change","null","null","","","critical","d","c","t","237.1485","162.6685","164","240","240","164","trueblood","0.02","w","240","164","164","240","237.1485","162.6685","39360","39360","38576.5967","dc","null","null","null","null","null","null","[1,2]","478.459709066966","462.2475802927767","471.28139819970426"
"","canvas-keyboard-response","219","167346","0.0-6.0-3.30","558","","","","","rectangles with change","null","null","","","critical","d","c","t","237.1485","162.6685","164","240","240","164","trueblood","0.02","w","240","164","164","240","237.1485","162.6685","39360","39360","38576.5967","dc","null","null","null","null","null","null","[1,2]","478.459709066966","462.2475802927767","471.28139819970426"
"","canvas-keyboard-response","220","167364","0.0-6.0-4.30","558","","","","","clear_screen","null","null","","","critical","d","c","t","237.1485","162.6685","164","240","240","164","trueblood","0.02","w","240","164","164","240","237.1485","162.6685","39360","39360","38576.5967","dc","null","null","null","null","null","null","[1,2]","478.459709066966","462.2475802927767","471.28139819970426"
"","canvas-keyboard-response","221","168310","0.0-6.0-5.30","558","","","","","make choice","938","2","","","critical","d","c","t","237.1485","162.6685","164","240","240","164","trueblood","0.02","w","240","164","164","240","237.1485","162.6685","39360","39360","38576.5967","dc","null","null","null","null","null","null","[1,2]","","",""
"","canvas-keyboard-response","222","168329","0.0-6.0-6.30","558","","","","","clear_screen","null","null","","","critical","d","c","t","237.1485","162.6685","164","240","240","164","trueblood","0.02","w","240","164","164","240","237.1485","162.6685","39360","39360","38576.5967","dc","null","null","null","null","null","null","[1,2]","","",""
"","canvas-keyboard-response","223","168530","0.0-6.0-0.31","558","","","","","pre trial waiting period","null","null","","","critical","t","d","c","240","164","240","164","164","240","trueblood","0","w","240","164","164","240","240","164","39360","39360","39360","td","null","null","null","null","null","null","[1,2]","504.4119040987772","497.3225180392452","433.812466102622"
"","canvas-keyboard-response","224","168550","0.0-6.0-1.31","558","","","","","clear_screen","null","null","","","critical","t","d","c","240","164","240","164","164","240","trueblood","0","w","240","164","164","240","240","164","39360","39360","39360","td","null","null","null","null","null","null","[1,2]","504.4119040987772","497.3225180392452","433.812466102622"
"","canvas-keyboard-response","225","169060","0.0-6.0-2.31","558","","","","","rectangles no change","null","null","","","critical","t","d","c","240","164","240","164","164","240","trueblood","0","w","240","164","164","240","240","164","39360","39360","39360","td","null","null","null","null","null","null","[1,2]","504.4119040987772","497.3225180392452","433.812466102622"
"","canvas-keyboard-response","226","170395","0.0-6.0-3.31","558","","","","","rectangles with change","null","null","","","critical","t","d","c","240","164","240","164","164","240","trueblood","0","w","240","164","164","240","240","164","39360","39360","39360","td","null","null","null","null","null","null","[1,2]","504.4119040987772","497.3225180392452","433.812466102622"
"","canvas-keyboard-response","227","170413","0.0-6.0-4.31","558","","","","","clear_screen","null","null","","","critical","t","d","c","240","164","240","164","164","240","trueblood","0","w","240","164","164","240","240","164","39360","39360","39360","td","null","null","null","null","null","null","[1,2]","504.4119040987772","497.3225180392452","433.812466102622"
"","canvas-keyboard-response","228","171174","0.0-6.0-5.31","558","","","","","make choice","751","2","","","critical","t","d","c","240","164","240","164","164","240","trueblood","0","w","240","164","164","240","240","164","39360","39360","39360","td","null","null","null","null","null","null","[1,2]","","",""
"","canvas-keyboard-response","229","171192","0.0-6.0-6.31","558","","","","","clear_screen","null","null","","","critical","t","d","c","240","164","240","164","164","240","trueblood","0","w","240","164","164","240","240","164","39360","39360","39360","td","null","null","null","null","null","null","[1,2]","","",""
"","canvas-keyboard-response","230","171394","0.0-6.0-0.32","558","","","","","pre trial waiting period","null","null","","","critical","t","c","d","164","240","240","164","164","240","trueblood","0","h","164","240","240","164","164","240","39360","39360","39360","dc","null","null","null","null","null","null","[3,2]","434.6039898644511","496.67197143110457","446.14302610756454"
"","canvas-keyboard-response","231","171414","0.0-6.0-1.32","558","","","","","clear_screen","null","null","","","critical","t","c","d","164","240","240","164","164","240","trueblood","0","h","164","240","240","164","164","240","39360","39360","39360","dc","null","null","null","null","null","null","[3,2]","434.6039898644511","496.67197143110457","446.14302610756454"
"","canvas-keyboard-response","232","171925","0.0-6.0-2.32","558","","","","","rectangles no change","null","null","","","critical","t","c","d","164","240","240","164","164","240","trueblood","0","h","164","240","240","164","164","240","39360","39360","39360","dc","null","null","null","null","null","null","[3,2]","434.6039898644511","496.67197143110457","446.14302610756454"
"","canvas-keyboard-response","233","173260","0.0-6.0-3.32","558","","","","","rectangles with change","null","null","","","critical","t","c","d","164","240","240","164","164","240","trueblood","0","h","164","240","240","164","164","240","39360","39360","39360","dc","null","null","null","null","null","null","[3,2]","434.6039898644511","496.67197143110457","446.14302610756454"
"","canvas-keyboard-response","234","173278","0.0-6.0-4.32","558","","","","","clear_screen","null","null","","","critical","t","c","d","164","240","240","164","164","240","trueblood","0","h","164","240","240","164","164","240","39360","39360","39360","dc","null","null","null","null","null","null","[3,2]","434.6039898644511","496.67197143110457","446.14302610756454"
"","canvas-keyboard-response","235","173773","0.0-6.0-5.32","558","","","","","make choice","490","2","","","critical","t","c","d","164","240","240","164","164","240","trueblood","0","h","164","240","240","164","164","240","39360","39360","39360","dc","null","null","null","null","null","null","[3,2]","","",""
"","canvas-keyboard-response","236","173792","0.0-6.0-6.32","558","","","","","clear_screen","null","null","","","critical","t","c","d","164","240","240","164","164","240","trueblood","0","h","164","240","240","164","164","240","39360","39360","39360","dc","null","null","null","null","null","null","[3,2]","","",""
"","canvas-keyboard-response","237","173994","0.0-6.0-0.33","558","","","","","pre trial waiting period","null","null","","","catch","sw","l","sh","180","200","175","262","231","210","trueblood","null","null","null","null","null","null","null","null","null","null","null","","180","200","260","200","36000","52000","[2,3]","445.39378973730686","409.6380355663739","452.18639660172846"
"","canvas-keyboard-response","238","174013","0.0-6.0-1.33","558","","","","","clear_screen","null","null","","","catch","sw","l","sh","180","200","175","262","231","210","trueblood","null","null","null","null","null","null","null","null","null","null","null","","180","200","260","200","36000","52000","[2,3]","445.39378973730686","409.6380355663739","452.18639660172846"
"","canvas-keyboard-response","239","174525","0.0-6.0-2.33","558","","","","","rectangles no change","null","null","","","catch","sw","l","sh","180","200","175","262","231","210","trueblood","null","null","null","null","null","null","null","null","null","null","null","","180","200","260","200","36000","52000","[2,3]","445.39378973730686","409.6380355663739","452.18639660172846"
"","canvas-keyboard-response","240","175861","0.0-6.0-3.33","558","","","","","rectangles with change","null","null","","","catch","sw","l","sh","180","200","175","262","231","210","trueblood","null","null","null","null","null","null","null","null","null","null","null","","180","200","260","200","36000","52000","[2,3]","445.39378973730686","409.6380355663739","452.18639660172846"
"","canvas-keyboard-response","241","175881","0.0-6.0-4.33","558","","","","","clear_screen","null","null","","","catch","sw","l","sh","180","200","175","262","231","210","trueblood","null","null","null","null","null","null","null","null","null","null","null","","180","200","260","200","36000","52000","[2,3]","445.39378973730686","409.6380355663739","452.18639660172846"
"","canvas-keyboard-response","242","177270","0.0-6.0-5.33","558","","","","","make choice","1383","2","","","catch","sw","l","sh","180","200","175","262","231","210","trueblood","null","null","null","null","null","null","null","null","null","null","null","","180","200","260","200","36000","52000","[2,3]","","",""
"","canvas-keyboard-response","243","177288","0.0-6.0-6.33","558","","","","","clear_screen","null","null","","","catch","sw","l","sh","180","200","175","262","231","210","trueblood","null","null","null","null","null","null","null","null","null","null","null","","180","200","260","200","36000","52000","[2,3]","","",""
"","canvas-keyboard-response","244","177489","0.0-6.0-0.34","558","","","","","pre trial waiting period","null","null","","","catch","sh","l","sw","228","193","241","213","175","233","trueblood","null","null","null","null","null","null","null","null","null","null","null","","180","200","260","200","36000","52000","[2,3]","483.58508338943307","482.09873958287574","443.5686988449308"
"","canvas-keyboard-response","245","177509","0.0-6.0-1.34","558","","","","","clear_screen","null","null","","","catch","sh","l","sw","228","193","241","213","175","233","trueblood","null","null","null","null","null","null","null","null","null","null","null","","180","200","260","200","36000","52000","[2,3]","483.58508338943307","482.09873958287574","443.5686988449308"
"","canvas-keyboard-response","246","178019","0.0-6.0-2.34","558","","","","","rectangles no change","null","null","","","catch","sh","l","sw","228","193","241","213","175","233","trueblood","null","null","null","null","null","null","null","null","null","null","null","","180","200","260","200","36000","52000","[2,3]","483.58508338943307","482.09873958287574","443.5686988449308"
"","canvas-keyboard-response","247","179353","0.0-6.0-3.34","558","","","","","rectangles with change","null","null","","","catch","sh","l","sw","228","193","241","213","175","233","trueblood","null","null","null","null","null","null","null","null","null","null","null","","180","200","260","200","36000","52000","[2,3]","483.58508338943307","482.09873958287574","443.5686988449308"
"","canvas-keyboard-response","248","179372","0.0-6.0-4.34","558","","","","","clear_screen","null","null","","","catch","sh","l","sw","228","193","241","213","175","233","trueblood","null","null","null","null","null","null","null","null","null","null","null","","180","200","260","200","36000","52000","[2,3]","483.58508338943307","482.09873958287574","443.5686988449308"
"","canvas-keyboard-response","249","179806","0.0-6.0-5.34","558","","","","","make choice","425","2","","","catch","sh","l","sw","228","193","241","213","175","233","trueblood","null","null","null","null","null","null","null","null","null","null","null","","180","200","260","200","36000","52000","[2,3]","","",""
"","canvas-keyboard-response","250","179828","0.0-6.0-6.34","558","","","","","clear_screen","null","null","","","catch","sh","l","sw","228","193","241","213","175","233","trueblood","null","null","null","null","null","null","null","null","null","null","null","","180","200","260","200","36000","52000","[2,3]","","",""
"","canvas-keyboard-response","251","180029","0.0-6.0-0.35","558","","","","","pre trial waiting period","null","null","","","critical","t","c","d","164","240","240","164","164","240","spektor","0","h","164","240","240","164","164","240","39360","39360","39360","tc","null","null","null","null","null","null","[1,2]","478.4731956632485","177.5916527740791","474.2280568200987"
"","canvas-keyboard-response","252","180053","0.0-6.0-1.35","558","","","","","clear_screen","null","null","","","critical","t","c","d","164","240","240","164","164","240","spektor","0","h","164","240","240","164","164","240","39360","39360","39360","tc","null","null","null","null","null","null","[1,2]","478.4731956632485","177.5916527740791","474.2280568200987"
"","canvas-keyboard-response","253","180562","0.0-6.0-2.35","558","","","","","rectangles no change","null","null","","","critical","t","c","d","164","240","240","164","164","240","spektor","0","h","164","240","240","164","164","240","39360","39360","39360","tc","null","null","null","null","null","null","[1,2]","478.4731956632485","177.5916527740791","474.2280568200987"
"","canvas-keyboard-response","254","181898","0.0-6.0-3.35","558","","","","","rectangles with change","null","null","","","critical","t","c","d","164","240","240","164","164","240","spektor","0","h","164","240","240","164","164","240","39360","39360","39360","tc","null","null","null","null","null","null","[1,2]","478.4731956632485","177.5916527740791","474.2280568200987"
"","canvas-keyboard-response","255","181918","0.0-6.0-4.35","558","","","","","clear_screen","null","null","","","critical","t","c","d","164","240","240","164","164","240","spektor","0","h","164","240","240","164","164","240","39360","39360","39360","tc","null","null","null","null","null","null","[1,2]","478.4731956632485","177.5916527740791","474.2280568200987"
"","canvas-keyboard-response","256","183334","0.0-6.0-5.35","558","","","","","make choice","1409","1","","","critical","t","c","d","164","240","240","164","164","240","spektor","0","h","164","240","240","164","164","240","39360","39360","39360","tc","null","null","null","null","null","null","[1,2]","","",""
"","canvas-keyboard-response","257","183352","0.0-6.0-6.35","558","","","","","clear_screen","null","null","","","critical","t","c","d","164","240","240","164","164","240","spektor","0","h","164","240","240","164","164","240","39360","39360","39360","tc","null","null","null","null","null","null","[1,2]","","",""
"","canvas-keyboard-response","258","183554","0.0-6.0-0.36","558","","","","","pre trial waiting period","null","null","","","critical","d","t","c","237.1485","162.6685","240","164","164","240","spektor","0.02","w","240","164","164","240","237.1485","162.6685","39360","39360","38576.5967","tc","null","null","null","null","null","null","[2,3]","528.4631048970962","167.49446303112882","479.7954069348181"
"","canvas-keyboard-response","259","183575","0.0-6.0-1.36","558","","","","","clear_screen","null","null","","","critical","d","t","c","237.1485","162.6685","240","164","164","240","spektor","0.02","w","240","164","164","240","237.1485","162.6685","39360","39360","38576.5967","tc","null","null","null","null","null","null","[2,3]","528.4631048970962","167.49446303112882","479.7954069348181"
"","canvas-keyboard-response","260","184086","0.0-6.0-2.36","558","","","","","rectangles no change","null","null","","","critical","d","t","c","237.1485","162.6685","240","164","164","240","spektor","0.02","w","240","164","164","240","237.1485","162.6685","39360","39360","38576.5967","tc","null","null","null","null","null","null","[2,3]","528.4631048970962","167.49446303112882","479.7954069348181"
"","canvas-keyboard-response","261","185421","0.0-6.0-3.36","558","","","","","rectangles with change","null","null","","","critical","d","t","c","237.1485","162.6685","240","164","164","240","spektor","0.02","w","240","164","164","240","237.1485","162.6685","39360","39360","38576.5967","tc","null","null","null","null","null","null","[2,3]","528.4631048970962","167.49446303112882","479.7954069348181"
"","canvas-keyboard-response","262","185440","0.0-6.0-4.36","558","","","","","clear_screen","null","null","","","critical","d","t","c","237.1485","162.6685","240","164","164","240","spektor","0.02","w","240","164","164","240","237.1485","162.6685","39360","39360","38576.5967","tc","null","null","null","null","null","null","[2,3]","528.4631048970962","167.49446303112882","479.7954069348181"
"","canvas-keyboard-response","263","185957","0.0-6.0-5.36","558","","","","","make choice","509","2","","","critical","d","t","c","237.1485","162.6685","240","164","164","240","spektor","0.02","w","240","164","164","240","237.1485","162.6685","39360","39360","38576.5967","tc","null","null","null","null","null","null","[2,3]","","",""
"","canvas-keyboard-response","264","185976","0.0-6.0-6.36","558","","","","","clear_screen","null","null","","","critical","d","t","c","237.1485","162.6685","240","164","164","240","spektor","0.02","w","240","164","164","240","237.1485","162.6685","39360","39360","38576.5967","tc","null","null","null","null","null","null","[2,3]","","",""
"","canvas-keyboard-response","265","186178","0.0-6.0-0.37","558","","","","","pre trial waiting period","null","null","","","catch","sw","l","sh","180","200","224","236","204","146","spektor","null","null","null","null","null","null","null","null","null","null","null","","180","200","260","200","36000","52000","[1,2]","482.80126299565364","126.01987001793538","538.7083638736351"
"","canvas-keyboard-response","266","186200","0.0-6.0-1.37","558","","","","","clear_screen","null","null","","","catch","sw","l","sh","180","200","224","236","204","146","spektor","null","null","null","null","null","null","null","null","null","null","null","","180","200","260","200","36000","52000","[1,2]","482.80126299565364","126.01987001793538","538.7083638736351"
"","canvas-keyboard-response","267","186717","0.0-6.0-2.37","558","","","","","rectangles no change","null","null","","","catch","sw","l","sh","180","200","224","236","204","146","spektor","null","null","null","null","null","null","null","null","null","null","null","","180","200","260","200","36000","52000","[1,2]","482.80126299565364","126.01987001793538","538.7083638736351"
"","canvas-keyboard-response","268","188054","0.0-6.0-3.37","558","","","","","rectangles with change","null","null","","","catch","sw","l","sh","180","200","224","236","204","146","spektor","null","null","null","null","null","null","null","null","null","null","null","","180","200","260","200","36000","52000","[1,2]","482.80126299565364","126.01987001793538","538.7083638736351"
