"success","trial_type","trial_index","time_elapsed","internal_node_id","sub_n","timeout","failed_images","failed_audio","failed_video","screen_id","rt","response","stimulus","view_history","trial","r1","r2","r3","w1","h1","w2","h2","w3","h3","display","tdd","tdo","tw","th","cw","ch","dw","dh","ta","ca","da","probe","csls","csss","clls","clss","sa","la","probe_rects","r1yloc","r2yloc","r3yloc"
"true","fullscreen","0","3487","0.0-0.0","541","","","","","","","","","","","","","","","","","","","","","","","","","","","","","","","","","","","","","","","","","",""
"true","preload","1","3510","0.0-1.0","541","false","[]","[]","[]","img preload","","","","","","","","","","","","","","","","","","","","","","","","","","","","","","","","","","","","",""
"","survey-html-form","2","7358","0.0-2.0","541","","","","","enter-sub-number","3837","{""response"":""541""}","","","","","","","","","","","","","","","","","","","","","","","","","","","","","","","","","","",""
"","image-button-response","3","63455","0.0-3.0","541","","","","","","55984","0","consent.png","","","","","","","","","","","","","","","","","","","","","","","","","","","","","","","","","",""
"","html-button-response","4","70464","0.0-4.0","541","","","","","intro mssg","7003","0","<div style= ""font-size:25px;"" <p> <strong> Welcome! </strong><br> <p style=""color:#8B0000; font-size:25px;""><strong> Please do NOT exit full screen until you are done with the experiment. </strong> </p><p style=""font-size:25px;color:#8B0000;""> <strong> Your data will be lost <br> if you try to go back or refresh the page after the experiment starts. Feel free to click ""previous"" during the instructions, however.</strong> </p><br><p> <strong> Thanks in advance for your contribution to our research! </strong></p>","","","","","","","","","","","","","","","","","","","","","","","","","","","","","","","","","",""
"","instructions","5","116936","0.0-5.0","541","","","","","instructions","46468","","","[{""page_index"":0,""viewing_time"":11083},{""page_index"":1,""viewing_time"":10448},{""page_index"":2,""viewing_time"":2384},{""page_index"":3,""viewing_time"":12104},{""page_index"":4,""viewing_time"":4592},{""page_index"":5,""viewing_time"":3216},{""page_index"":6,""viewing_time"":1801},{""page_index"":7,""viewing_time"":840}]","","","","","","","","","","","","","","","","","","","","","","","","","","","","","","","","",""
"","canvas-keyboard-response","6","117142","0.0-6.0-0.0","541","","","","","pre trial waiting period","null","null","","","critical","d","t","c","164","240","164","240","240","164","spektor","0","h","164","240","240","164","164","240","39360","39360","39360","tc","null","null","null","null","null","null","[2,3]","480.44691330961797","106.00920493304763","532.7170909305573"
"","canvas-keyboard-response","7","117170","0.0-6.0-1.0","541","","","","","clear_screen","null","null","","","critical","d","t","c","164","240","164","240","240","164","spektor","0","h","164","240","240","164","164","240","39360","39360","39360","tc","null","null","null","null","null","null","[2,3]","480.44691330961797","106.00920493304763","532.7170909305573"
"","canvas-keyboard-response","8","117690","0.0-6.0-2.0","541","","","","","rectangles no change","null","null","","","critical","d","t","c","164","240","164","240","240","164","spektor","0","h","164","240","240","164","164","240","39360","39360","39360","tc","null","null","null","null","null","null","[2,3]","480.44691330961797","106.00920493304763","532.7170909305573"
"","canvas-keyboard-response","9","119029","0.0-6.0-3.0","541","","","","","rectangles with change","null","null","","","critical","d","t","c","164","240","164","240","240","164","spektor","0","h","164","240","240","164","164","240","39360","39360","39360","tc","null","null","null","null","null","null","[2,3]","480.44691330961797","106.00920493304763","532.7170909305573"
"","canvas-keyboard-response","10","119047","0.0-6.0-4.0","541","","","","","clear_screen","null","null","","","critical","d","t","c","164","240","164","240","240","164","spektor","0","h","164","240","240","164","164","240","39360","39360","39360","tc","null","null","null","null","null","null","[2,3]","480.44691330961797","106.00920493304763","532.7170909305573"
"","canvas-keyboard-response","11","122645","0.0-6.0-5.0","541","","","","","make choice","3586","3","","","critical","d","t","c","164","240","164","240","240","164","spektor","0","h","164","240","240","164","164","240","39360","39360","39360","tc","null","null","null","null","null","null","[2,3]","","",""
"","canvas-keyboard-response","12","122663","0.0-6.0-6.0","541","","","","","clear_screen","null","null","","","critical","d","t","c","164","240","164","240","240","164","spektor","0","h","164","240","240","164","164","240","39360","39360","39360","tc","null","null","null","null","null","null","[2,3]","","",""
"","canvas-keyboard-response","13","122865","0.0-6.0-0.1","541","","","","","pre trial waiting period","null","null","","","catch","sw","l","sh","180","200","249","211","217","173","spektor","null","null","null","null","null","null","null","null","null","null","null","","180","200","260","200","36000","52000","[1,2]","503.2982251868884","167.3857392249292","535.109158265495"
"","canvas-keyboard-response","14","122885","0.0-6.0-1.1","541","","","","","clear_screen","null","null","","","catch","sw","l","sh","180","200","249","211","217","173","spektor","null","null","null","null","null","null","null","null","null","null","null","","180","200","260","200","36000","52000","[1,2]","503.2982251868884","167.3857392249292","535.109158265495"
"","canvas-keyboard-response","15","123397","0.0-6.0-2.1","541","","","","","rectangles no change","null","null","","","catch","sw","l","sh","180","200","249","211","217","173","spektor","null","null","null","null","null","null","null","null","null","null","null","","180","200","260","200","36000","52000","[1,2]","503.2982251868884","167.3857392249292","535.109158265495"
"","canvas-keyboard-response","16","124734","0.0-6.0-3.1","541","","","","","rectangles with change","null","null","","","catch","sw","l","sh","180","200","249","211","217","173","spektor","null","null","null","null","null","null","null","null","null","null","null","","180","200","260","200","36000","52000","[1,2]","503.2982251868884","167.3857392249292","535.109158265495"
"","canvas-keyboard-response","17","124756","0.0-6.0-4.1","541","","","","","clear_screen","null","null","","","catch","sw","l","sh","180","200","249","211","217","173","spektor","null","null","null","null","null","null","null","null","null","null","null","","180","200","260","200","36000","52000","[1,2]","503.2982251868884","167.3857392249292","535.109158265495"
"","canvas-keyboard-response","18","126732","0.0-6.0-5.1","541","","","","","make choice","1963","2","","","catch","sw","l","sh","180","200","249","211","217","173","spektor","null","null","null","null","null","null","null","null","null","null","null","","180","200","260","200","36000","52000","[1,2]","","",""
"","canvas-keyboard-response","19","126752","0.0-6.0-6.1","541","","","","","clear_screen","null","null","","","catch","sw","l","sh","180","200","249","211","217","173","spektor","null","null","null","null","null","null","null","null","null","null","null","","180","200","260","200","36000","52000","[1,2]","","",""
"","canvas-keyboard-response","20","126954","0.0-6.0-0.2","541","","","","","pre trial waiting period","null","null","","","catch","l","sw","sh","234","208","180","194","232","169","spektor","null","null","null","null","null","null","null","null","null","null","null","","180","200","260","200","36000","52000","[1,3]","478.11826633659757","159.80640781791462","494.72289790169253"
"","canvas-keyboard-response","21","126974","0.0-6.0-1.2","541","","","","","clear_screen","null","null","","","catch","l","sw","sh","234","208","180","194","232","169","spektor","null","null","null","null","null","null","null","null","null","null","null","","180","200","260","200","36000","52000","[1,3]","478.11826633659757","159.80640781791462","494.72289790169253"
"","canvas-keyboard-response","22","127489","0.0-6.0-2.2","541","","","","","rectangles no change","null","null","","","catch","l","sw","sh","234","208","180","194","232","169","spektor","null","null","null","null","null","null","null","null","null","null","null","","180","200","260","200","36000","52000","[1,3]","478.11826633659757","159.80640781791462","494.72289790169253"
"","canvas-keyboard-response","23","128828","0.0-6.0-3.2","541","","","","","rectangles with change","null","null","","","catch","l","sw","sh","234","208","180","194","232","169","spektor","null","null","null","null","null","null","null","null","null","null","null","","180","200","260","200","36000","52000","[1,3]","478.11826633659757","159.80640781791462","494.72289790169253"
"","canvas-keyboard-response","24","128848","0.0-6.0-4.2","541","","","","","clear_screen","null","null","","","catch","l","sw","sh","234","208","180","194","232","169","spektor","null","null","null","null","null","null","null","null","null","null","null","","180","200","260","200","36000","52000","[1,3]","478.11826633659757","159.80640781791462","494.72289790169253"
"","canvas-keyboard-response","25","130092","0.0-6.0-5.2","541","","","","","make choice","1236","1","","","catch","l","sw","sh","234","208","180","194","232","169","spektor","null","null","null","null","null","null","null","null","null","null","null","","180","200","260","200","36000","52000","[1,3]","","",""
"","canvas-keyboard-response","26","130111","0.0-6.0-6.2","541","","","","","clear_screen","null","null","","","catch","l","sw","sh","234","208","180","194","232","169","spektor","null","null","null","null","null","null","null","null","null","null","null","","180","200","260","200","36000","52000","[1,3]","","",""
"","canvas-keyboard-response","27","130313","0.0-6.0-0.3","541","","","","","pre trial waiting period","null","null","","","critical","d","t","c","240","164","240","164","164","240","trueblood","0","w","240","164","164","240","240","164","39360","39360","39360","dc","null","null","null","null","null","null","[1,3]","473.1790348987892","503.8171434720553","456.7497016293571"
"","canvas-keyboard-response","28","130332","0.0-6.0-1.3","541","","","","","clear_screen","null","null","","","critical","d","t","c","240","164","240","164","164","240","trueblood","0","w","240","164","164","240","240","164","39360","39360","39360","dc","null","null","null","null","null","null","[1,3]","473.1790348987892","503.8171434720553","456.7497016293571"
"","canvas-keyboard-response","29","130846","0.0-6.0-2.3","541","","","","","rectangles no change","null","null","","","critical","d","t","c","240","164","240","164","164","240","trueblood","0","w","240","164","164","240","240","164","39360","39360","39360","dc","null","null","null","null","null","null","[1,3]","473.1790348987892","503.8171434720553","456.7497016293571"
"","canvas-keyboard-response","30","132180","0.0-6.0-3.3","541","","","","","rectangles with change","null","null","","","critical","d","t","c","240","164","240","164","164","240","trueblood","0","w","240","164","164","240","240","164","39360","39360","39360","dc","null","null","null","null","null","null","[1,3]","473.1790348987892","503.8171434720553","456.7497016293571"
"","canvas-keyboard-response","31","132201","0.0-6.0-4.3","541","","","","","clear_screen","null","null","","","critical","d","t","c","240","164","240","164","164","240","trueblood","0","w","240","164","164","240","240","164","39360","39360","39360","dc","null","null","null","null","null","null","[1,3]","473.1790348987892","503.8171434720553","456.7497016293571"
"","canvas-keyboard-response","32","133252","0.0-6.0-5.3","541","","","","","make choice","1043","1","","","critical","d","t","c","240","164","240","164","164","240","trueblood","0","w","240","164","164","240","240","164","39360","39360","39360","dc","null","null","null","null","null","null","[1,3]","","",""
"","canvas-keyboard-response","33","133270","0.0-6.0-6.3","541","","","","","clear_screen","null","null","","","critical","d","t","c","240","164","240","164","164","240","trueblood","0","w","240","164","164","240","240","164","39360","39360","39360","dc","null","null","null","null","null","null","[1,3]","","",""
"","canvas-keyboard-response","34","133471","0.0-6.0-0.4","541","","","","","pre trial waiting period","null","null","","","catch","l","sh","sw","208","285","199","207","180","161","trueblood","null","null","null","null","null","null","null","null","null","null","null","","180","200","260","200","36000","52000","[1,2]","396.6936602104543","467.8415189560764","493.69939189518874"
"","canvas-keyboard-response","35","133491","0.0-6.0-1.4","541","","","","","clear_screen","null","null","","","catch","l","sh","sw","208","285","199","207","180","161","trueblood","null","null","null","null","null","null","null","null","null","null","null","","180","200","260","200","36000","52000","[1,2]","396.6936602104543","467.8415189560764","493.69939189518874"
"","canvas-keyboard-response","36","134001","0.0-6.0-2.4","541","","","","","rectangles no change","null","null","","","catch","l","sh","sw","208","285","199","207","180","161","trueblood","null","null","null","null","null","null","null","null","null","null","null","","180","200","260","200","36000","52000","[1,2]","396.6936602104543","467.8415189560764","493.69939189518874"
"","canvas-keyboard-response","37","135338","0.0-6.0-3.4","541","","","","","rectangles with change","null","null","","","catch","l","sh","sw","208","285","199","207","180","161","trueblood","null","null","null","null","null","null","null","null","null","null","null","","180","200","260","200","36000","52000","[1,2]","396.6936602104543","467.8415189560764","493.69939189518874"
"","canvas-keyboard-response","38","135356","0.0-6.0-4.4","541","","","","","clear_screen","null","null","","","catch","l","sh","sw","208","285","199","207","180","161","trueblood","null","null","null","null","null","null","null","null","null","null","null","","180","200","260","200","36000","52000","[1,2]","396.6936602104543","467.8415189560764","493.69939189518874"
"","canvas-keyboard-response","39","136076","0.0-6.0-5.4","541","","","","","make choice","712","1","","","catch","l","sh","sw","208","285","199","207","180","161","trueblood","null","null","null","null","null","null","null","null","null","null","null","","180","200","260","200","36000","52000","[1,2]","","",""
"","canvas-keyboard-response","40","136095","0.0-6.0-6.4","541","","","","","clear_screen","null","null","","","catch","l","sh","sw","208","285","199","207","180","161","trueblood","null","null","null","null","null","null","null","null","null","null","null","","180","200","260","200","36000","52000","[1,2]","","",""
"","canvas-keyboard-response","41","136297","0.0-6.0-0.5","541","","","","","pre trial waiting period","null","null","","","critical","d","t","c","237.1485","162.6685","240","164","164","240","trueblood","0.02","w","240","164","164","240","237.1485","162.6685","39360","39360","38576.5967","td","null","null","null","null","null","null","[2,1]","496.28077721694586","517.5645056066256","442.50631584546267"
"","canvas-keyboard-response","42","136318","0.0-6.0-1.5","541","","","","","clear_screen","null","null","","","critical","d","t","c","237.1485","162.6685","240","164","164","240","trueblood","0.02","w","240","164","164","240","237.1485","162.6685","39360","39360","38576.5967","td","null","null","null","null","null","null","[2,1]","496.28077721694586","517.5645056066256","442.50631584546267"
"","canvas-keyboard-response","43","136833","0.0-6.0-2.5","541","","","","","rectangles no change","null","null","","","critical","d","t","c","237.1485","162.6685","240","164","164","240","trueblood","0.02","w","240","164","164","240","237.1485","162.6685","39360","39360","38576.5967","td","null","null","null","null","null","null","[2,1]","496.28077721694586","517.5645056066256","442.50631584546267"
"","canvas-keyboard-response","44","138168","0.0-6.0-3.5","541","","","","","rectangles with change","null","null","","","critical","d","t","c","237.1485","162.6685","240","164","164","240","trueblood","0.02","w","240","164","164","240","237.1485","162.6685","39360","39360","38576.5967","td","null","null","null","null","null","null","[2,1]","496.28077721694586","517.5645056066256","442.50631584546267"
"","canvas-keyboard-response","45","138186","0.0-6.0-4.5","541","","","","","clear_screen","null","null","","","critical","d","t","c","237.1485","162.6685","240","164","164","240","trueblood","0.02","w","240","164","164","240","237.1485","162.6685","39360","39360","38576.5967","td","null","null","null","null","null","null","[2,1]","496.28077721694586","517.5645056066256","442.50631584546267"
"","canvas-keyboard-response","46","139100","0.0-6.0-5.5","541","","","","","make choice","905","2","","","critical","d","t","c","237.1485","162.6685","240","164","164","240","trueblood","0.02","w","240","164","164","240","237.1485","162.6685","39360","39360","38576.5967","td","null","null","null","null","null","null","[2,1]","","",""
"","canvas-keyboard-response","47","139119","0.0-6.0-6.5","541","","","","","clear_screen","null","null","","","critical","d","t","c","237.1485","162.6685","240","164","164","240","trueblood","0.02","w","240","164","164","240","237.1485","162.6685","39360","39360","38576.5967","td","null","null","null","null","null","null","[2,1]","","",""
"","canvas-keyboard-response","48","139320","0.0-6.0-0.6","541","","","","","pre trial waiting period","null","null","","","critical","t","d","c","240","164","220.0396","154.6796","164","240","trueblood","0.14","w","240","164","164","240","220.0396","154.6796","39360","39360","34035.6388","td","null","null","null","null","null","null","[1,2]","505.82848056594145","477.75113742845065","461.6508257535705"
"","canvas-keyboard-response","49","139340","0.0-6.0-1.6","541","","","","","clear_screen","null","null","","","critical","t","d","c","240","164","220.0396","154.6796","164","240","trueblood","0.14","w","240","164","164","240","220.0396","154.6796","39360","39360","34035.6388","td","null","null","null","null","null","null","[1,2]","505.82848056594145","477.75113742845065","461.6508257535705"
"","canvas-keyboard-response","50","139850","0.0-6.0-2.6","541","","","","","rectangles no change","null","null","","","critical","t","d","c","240","164","220.0396","154.6796","164","240","trueblood","0.14","w","240","164","164","240","220.0396","154.6796","39360","39360","34035.6388","td","null","null","null","null","null","null","[1,2]","505.82848056594145","477.75113742845065","461.6508257535705"
"","canvas-keyboard-response","51","141185","0.0-6.0-3.6","541","","","","","rectangles with change","null","null","","","critical","t","d","c","240","164","220.0396","154.6796","164","240","trueblood","0.14","w","240","164","164","240","220.0396","154.6796","39360","39360","34035.6388","td","null","null","null","null","null","null","[1,2]","505.82848056594145","477.75113742845065","461.6508257535705"
"","canvas-keyboard-response","52","141204","0.0-6.0-4.6","541","","","","","clear_screen","null","null","","","critical","t","d","c","240","164","220.0396","154.6796","164","240","trueblood","0.14","w","240","164","164","240","220.0396","154.6796","39360","39360","34035.6388","td","null","null","null","null","null","null","[1,2]","505.82848056594145","477.75113742845065","461.6508257535705"
"","canvas-keyboard-response","53","142092","0.0-6.0-5.6","541","","","","","make choice","880","1","","","critical","t","d","c","240","164","220.0396","154.6796","164","240","trueblood","0.14","w","240","164","164","240","220.0396","154.6796","39360","39360","34035.6388","td","null","null","null","null","null","null","[1,2]","","",""
"","canvas-keyboard-response","54","142111","0.0-6.0-6.6","541","","","","","clear_screen","null","null","","","critical","t","d","c","240","164","220.0396","154.6796","164","240","trueblood","0.14","w","240","164","164","240","220.0396","154.6796","39360","39360","34035.6388","td","null","null","null","null","null","null","[1,2]","","",""
"","canvas-keyboard-response","55","142312","0.0-6.0-0.7","541","","","","","pre trial waiting period","null","null","","","catch","l","sw","sh","210","253","205","218","165","186","spektor","null","null","null","null","null","null","null","null","null","null","null","","180","200","260","200","36000","52000","[1,3]","478.71604040783006","147.06206053794074","503.2785011751818"
"","canvas-keyboard-response","56","142330","0.0-6.0-1.7","541","","","","","clear_screen","null","null","","","catch","l","sw","sh","210","253","205","218","165","186","spektor","null","null","null","null","null","null","null","null","null","null","null","","180","200","260","200","36000","52000","[1,3]","478.71604040783006","147.06206053794074","503.2785011751818"
"","canvas-keyboard-response","57","142844","0.0-6.0-2.7","541","","","","","rectangles no change","null","null","","","catch","l","sw","sh","210","253","205","218","165","186","spektor","null","null","null","null","null","null","null","null","null","null","null","","180","200","260","200","36000","52000","[1,3]","478.71604040783006","147.06206053794074","503.2785011751818"
"","canvas-keyboard-response","58","144180","0.0-6.0-3.7","541","","","","","rectangles with change","null","null","","","catch","l","sw","sh","210","253","205","218","165","186","spektor","null","null","null","null","null","null","null","null","null","null","null","","180","200","260","200","36000","52000","[1,3]","478.71604040783006","147.06206053794074","503.2785011751818"
"","canvas-keyboard-response","59","144199","0.0-6.0-4.7","541","","","","","clear_screen","null","null","","","catch","l","sw","sh","210","253","205","218","165","186","spektor","null","null","null","null","null","null","null","null","null","null","null","","180","200","260","200","36000","52000","[1,3]","478.71604040783006","147.06206053794074","503.2785011751818"
"","canvas-keyboard-response","60","144612","0.0-6.0-5.7","541","","","","","make choice","405","1","","","catch","l","sw","sh","210","253","205","218","165","186","spektor","null","null","null","null","null","null","null","null","null","null","null","","180","200","260","200","36000","52000","[1,3]","","",""
"","canvas-keyboard-response","61","144631","0.0-6.0-6.7","541","","","","","clear_screen","null","null","","","catch","l","sw","sh","210","253","205","218","165","186","spektor","null","null","null","null","null","null","null","null","null","null","null","","180","200","260","200","36000","52000","[1,3]","","",""
"","canvas-keyboard-response","62","144831","0.0-6.0-0.8","541","","","","","pre trial waiting period","null","null","","","catch","l","sh","sw","293","176","191","156","166","178","spektor","null","null","null","null","null","null","null","null","null","null","null","","180","200","260","200","36000","52000","[1,2]","495.5751436352142","209.14465148089266","494.80894548306077"
"","canvas-keyboard-response","63","144851","0.0-6.0-1.8","541","","","","","clear_screen","null","null","","","catch","l","sh","sw","293","176","191","156","166","178","spektor","null","null","null","null","null","null","null","null","null","null","null","","180","200","260","200","36000","52000","[1,2]","495.5751436352142","209.14465148089266","494.80894548306077"
"","canvas-keyboard-response","64","145364","0.0-6.0-2.8","541","","","","","rectangles no change","null","null","","","catch","l","sh","sw","293","176","191","156","166","178","spektor","null","null","null","null","null","null","null","null","null","null","null","","180","200","260","200","36000","52000","[1,2]","495.5751436352142","209.14465148089266","494.80894548306077"
"","canvas-keyboard-response","65","146699","0.0-6.0-3.8","541","","","","","rectangles with change","null","null","","","catch","l","sh","sw","293","176","191","156","166","178","spektor","null","null","null","null","null","null","null","null","null","null","null","","180","200","260","200","36000","52000","[1,2]","495.5751436352142","209.14465148089266","494.80894548306077"
"","canvas-keyboard-response","66","146718","0.0-6.0-4.8","541","","","","","clear_screen","null","null","","","catch","l","sh","sw","293","176","191","156","166","178","spektor","null","null","null","null","null","null","null","null","null","null","null","","180","200","260","200","36000","52000","[1,2]","495.5751436352142","209.14465148089266","494.80894548306077"
"","canvas-keyboard-response","67","147301","0.0-6.0-5.8","541","","","","","make choice","571","1","","","catch","l","sh","sw","293","176","191","156","166","178","spektor","null","null","null","null","null","null","null","null","null","null","null","","180","200","260","200","36000","52000","[1,2]","","",""
"","canvas-keyboard-response","68","147319","0.0-6.0-6.8","541","","","","","clear_screen","null","null","","","catch","l","sh","sw","293","176","191","156","166","178","spektor","null","null","null","null","null","null","null","null","null","null","null","","180","200","260","200","36000","52000","[1,2]","","",""
"","canvas-keyboard-response","69","147520","0.0-6.0-0.9","541","","","","","pre trial waiting period","null","null","","","critical","d","c","t","227.1683","158.0083","164","240","240","164","trueblood","0.09","w","240","164","164","240","227.1683","158.0083","39360","39360","35894.4834","tc","null","null","null","null","null","null","[3,2]","484.1703593533506","427.58140360239724","483.6362736586179"
"","canvas-keyboard-response","70","147540","0.0-6.0-1.9","541","","","","","clear_screen","null","null","","","critical","d","c","t","227.1683","158.0083","164","240","240","164","trueblood","0.09","w","240","164","164","240","227.1683","158.0083","39360","39360","35894.4834","tc","null","null","null","null","null","null","[3,2]","484.1703593533506","427.58140360239724","483.6362736586179"
"","canvas-keyboard-response","71","148051","0.0-6.0-2.9","541","","","","","rectangles no change","null","null","","","critical","d","c","t","227.1683","158.0083","164","240","240","164","trueblood","0.09","w","240","164","164","240","227.1683","158.0083","39360","39360","35894.4834","tc","null","null","null","null","null","null","[3,2]","484.1703593533506","427.58140360239724","483.6362736586179"
"","canvas-keyboard-response","72","149386","0.0-6.0-3.9","541","","","","","rectangles with change","null","null","","","critical","d","c","t","227.1683","158.0083","164","240","240","164","trueblood","0.09","w","240","164","164","240","227.1683","158.0083","39360","39360","35894.4834","tc","null","null","null","null","null","null","[3,2]","484.1703593533506","427.58140360239724","483.6362736586179"
"","canvas-keyboard-response","73","149404","0.0-6.0-4.9","541","","","","","clear_screen","null","null","","","critical","d","c","t","227.1683","158.0083","164","240","240","164","trueblood","0.09","w","240","164","164","240","227.1683","158.0083","39360","39360","35894.4834","tc","null","null","null","null","null","null","[3,2]","484.1703593533506","427.58140360239724","483.6362736586179"
"","canvas-keyboard-response","74","150276","0.0-6.0-5.9","541","","","","","make choice","865","3","","","critical","d","c","t","227.1683","158.0083","164","240","240","164","trueblood","0.09","w","240","164","164","240","227.1683","158.0083","39360","39360","35894.4834","tc","null","null","null","null","null","null","[3,2]","","",""
"","canvas-keyboard-response","75","150295","0.0-6.0-6.9","541","","","","","clear_screen","null","null","","","critical","d","c","t","227.1683","158.0083","164","240","240","164","trueblood","0.09","w","240","164","164","240","227.1683","158.0083","39360","39360","35894.4834","tc","null","null","null","null","null","null","[3,2]","","",""
"","canvas-keyboard-response","76","150496","0.0-6.0-0.10","541","","","","","pre trial waiting period","null","null","","","catch","sh","l","sw","168","209","175","283","197","166","trueblood","null","null","null","null","null","null","null","null","null","null","null","","180","200","260","200","36000","52000","[1,2]","477.4592393258043","429.22859029578956","500.7993749587234"
"","canvas-keyboard-response","77","150516","0.0-6.0-1.10","541","","","","","clear_screen","null","null","","","catch","sh","l","sw","168","209","175","283","197","166","trueblood","null","null","null","null","null","null","null","null","null","null","null","","180","200","260","200","36000","52000","[1,2]","477.4592393258043","429.22859029578956","500.7993749587234"
"","canvas-keyboard-response","78","151030","0.0-6.0-2.10","541","","","","","rectangles no change","null","null","","","catch","sh","l","sw","168","209","175","283","197","166","trueblood","null","null","null","null","null","null","null","null","null","null","null","","180","200","260","200","36000","52000","[1,2]","477.4592393258043","429.22859029578956","500.7993749587234"
"","canvas-keyboard-response","79","152366","0.0-6.0-3.10","541","","","","","rectangles with change","null","null","","","catch","sh","l","sw","168","209","175","283","197","166","trueblood","null","null","null","null","null","null","null","null","null","null","null","","180","200","260","200","36000","52000","[1,2]","477.4592393258043","429.22859029578956","500.7993749587234"
"","canvas-keyboard-response","80","152384","0.0-6.0-4.10","541","","","","","clear_screen","null","null","","","catch","sh","l","sw","168","209","175","283","197","166","trueblood","null","null","null","null","null","null","null","null","null","null","null","","180","200","260","200","36000","52000","[1,2]","477.4592393258043","429.22859029578956","500.7993749587234"
"","canvas-keyboard-response","81","152915","0.0-6.0-5.10","541","","","","","make choice","522","2","","","catch","sh","l","sw","168","209","175","283","197","166","trueblood","null","null","null","null","null","null","null","null","null","null","null","","180","200","260","200","36000","52000","[1,2]","","",""
"","canvas-keyboard-response","82","152934","0.0-6.0-6.10","541","","","","","clear_screen","null","null","","","catch","sh","l","sw","168","209","175","283","197","166","trueblood","null","null","null","null","null","null","null","null","null","null","null","","180","200","260","200","36000","52000","[1,2]","","",""
"","canvas-keyboard-response","83","153135","0.0-6.0-0.11","541","","","","","pre trial waiting period","null","null","","","critical","t","c","d","240","164","164","240","227.1683","158.0083","spektor","0.09","w","240","164","164","240","227.1683","158.0083","39360","39360","35894.4834","tc","null","null","null","null","null","null","[1,2]","503.17442058623345","119.8808422373452","519.4469418083054"
"","canvas-keyboard-response","84","153154","0.0-6.0-1.11","541","","","","","clear_screen","null","null","","","critical","t","c","d","240","164","164","240","227.1683","158.0083","spektor","0.09","w","240","164","164","240","227.1683","158.0083","39360","39360","35894.4834","tc","null","null","null","null","null","null","[1,2]","503.17442058623345","119.8808422373452","519.4469418083054"
"","canvas-keyboard-response","85","153665","0.0-6.0-2.11","541","","","","","rectangles no change","null","null","","","critical","t","c","d","240","164","164","240","227.1683","158.0083","spektor","0.09","w","240","164","164","240","227.1683","158.0083","39360","39360","35894.4834","tc","null","null","null","null","null","null","[1,2]","503.17442058623345","119.8808422373452","519.4469418083054"
"","canvas-keyboard-response","86","155001","0.0-6.0-3.11","541","","","","","rectangles with change","null","null","","","critical","t","c","d","240","164","164","240","227.1683","158.0083","spektor","0.09","w","240","164","164","240","227.1683","158.0083","39360","39360","35894.4834","tc","null","null","null","null","null","null","[1,2]","503.17442058623345","119.8808422373452","519.4469418083054"
"","canvas-keyboard-response","87","155019","0.0-6.0-4.11","541","","","","","clear_screen","null","null","","","critical","t","c","d","240","164","164","240","227.1683","158.0083","spektor","0.09","w","240","164","164","240","227.1683","158.0083","39360","39360","35894.4834","tc","null","null","null","null","null","null","[1,2]","503.17442058623345","119.8808422373452","519.4469418083054"
"","canvas-keyboard-response","88","156095","0.0-6.0-5.11","541","","","","","make choice","1067","1","","","critical","t","c","d","240","164","164","240","227.1683","158.0083","spektor","0.09","w","240","164","164","240","227.1683","158.0083","39360","39360","35894.4834","tc","null","null","null","null","null","null","[1,2]","","",""
"","canvas-keyboard-response","89","156112","0.0-6.0-6.11","541","","","","","clear_screen","null","null","","","critical","t","c","d","240","164","164","240","227.1683","158.0083","spektor","0.09","w","240","164","164","240","227.1683","158.0083","39360","39360","35894.4834","tc","null","null","null","null","null","null","[1,2]","","",""
"","canvas-keyboard-response","90","156313","0.0-6.0-0.12","541","","","","","pre trial waiting period","null","null","","","catch","sw","l","sh","180","200","225","185","182","174","spektor","null","null","null","null","null","null","null","null","null","null","null","","180","200","260","200","36000","52000","[2,3]","513.3686241270054","156.26520637099108","503.83353670936066"
"","canvas-keyboard-response","91","156332","0.0-6.0-1.12","541","","","","","clear_screen","null","null","","","catch","sw","l","sh","180","200","225","185","182","174","spektor","null","null","null","null","null","null","null","null","null","null","null","","180","200","260","200","36000","52000","[2,3]","513.3686241270054","156.26520637099108","503.83353670936066"
"","canvas-keyboard-response","92","156849","0.0-6.0-2.12","541","","","","","rectangles no change","null","null","","","catch","sw","l","sh","180","200","225","185","182","174","spektor","null","null","null","null","null","null","null","null","null","null","null","","180","200","260","200","36000","52000","[2,3]","513.3686241270054","156.26520637099108","503.83353670936066"
"","canvas-keyboard-response","93","158184","0.0-6.0-3.12","541","","","","","rectangles with change","null","null","","","catch","sw","l","sh","180","200","225","185","182","174","spektor","null","null","null","null","null","null","null","null","null","null","null","","180","200","260","200","36000","52000","[2,3]","513.3686241270054","156.26520637099108","503.83353670936066"
"","canvas-keyboard-response","94","158203","0.0-6.0-4.12","541","","","","","clear_screen","null","null","","","catch","sw","l","sh","180","200","225","185","182","174","spektor","null","null","null","null","null","null","null","null","null","null","null","","180","200","260","200","36000","52000","[2,3]","513.3686241270054","156.26520637099108","503.83353670936066"
"","canvas-keyboard-response","95","158516","0.0-6.0-5.12","541","","","","","make choice","303","2","","","catch","sw","l","sh","180","200","225","185","182","174","spektor","null","null","null","null","null","null","null","null","null","null","null","","180","200","260","200","36000","52000","[2,3]","","",""
"","canvas-keyboard-response","96","158535","0.0-6.0-6.12","541","","","","","clear_screen","null","null","","","catch","sw","l","sh","180","200","225","185","182","174","spektor","null","null","null","null","null","null","null","null","null","null","null","","180","200","260","200","36000","52000","[2,3]","","",""
"","canvas-keyboard-response","97","158737","0.0-6.0-0.13","541","","","","","pre trial waiting period","null","null","","","critical","t","d","c","240","164","232.8713","160.6713","164","240","spektor","0.05","w","240","164","164","240","232.8713","160.6713","39360","39360","37415.7294","td","null","null","null","null","null","null","[1,2]","524.1355163896935","212.01939088579937","498.09756341184"
"","canvas-keyboard-response","98","158756","0.0-6.0-1.13","541","","","","","clear_screen","null","null","","","critical","t","d","c","240","164","232.8713","160.6713","164","240","spektor","0.05","w","240","164","164","240","232.8713","160.6713","39360","39360","37415.7294","td","null","null","null","null","null","null","[1,2]","524.1355163896935","212.01939088579937","498.09756341184"
"","canvas-keyboard-response","99","159267","0.0-6.0-2.13","541","","","","","rectangles no change","null","null","","","critical","t","d","c","240","164","232.8713","160.6713","164","240","spektor","0.05","w","240","164","164","240","232.8713","160.6713","39360","39360","37415.7294","td","null","null","null","null","null","null","[1,2]","524.1355163896935","212.01939088579937","498.09756341184"
"","canvas-keyboard-response","100","160602","0.0-6.0-3.13","541","","","","","rectangles with change","null","null","","","critical","t","d","c","240","164","232.8713","160.6713","164","240","spektor","0.05","w","240","164","164","240","232.8713","160.6713","39360","39360","37415.7294","td","null","null","null","null","null","null","[1,2]","524.1355163896935","212.01939088579937","498.09756341184"
"","canvas-keyboard-response","101","160621","0.0-6.0-4.13","541","","","","","clear_screen","null","null","","","critical","t","d","c","240","164","232.8713","160.6713","164","240","spektor","0.05","w","240","164","164","240","232.8713","160.6713","39360","39360","37415.7294","td","null","null","null","null","null","null","[1,2]","524.1355163896935","212.01939088579937","498.09756341184"
"","canvas-keyboard-response","102","161443","0.0-6.0-5.13","541","","","","","make choice","817","1","","","critical","t","d","c","240","164","232.8713","160.6713","164","240","spektor","0.05","w","240","164","164","240","232.8713","160.6713","39360","39360","37415.7294","td","null","null","null","null","null","null","[1,2]","","",""
"","canvas-keyboard-response","103","161462","0.0-6.0-6.13","541","","","","","clear_screen","null","null","","","critical","t","d","c","240","164","232.8713","160.6713","164","240","spektor","0.05","w","240","164","164","240","232.8713","160.6713","39360","39360","37415.7294","td","null","null","null","null","null","null","[1,2]","","",""
"","canvas-keyboard-response","104","161663","0.0-6.0-0.14","541","","","","","pre trial waiting period","null","null","","","critical","t","c","d","164","240","240","164","154.6796","220.0396","spektor","0.14","h","164","240","240","164","154.6796","220.0396","39360","39360","34035.6388","td","null","null","null","null","null","null","[1,3]","464.0701432503089","154.68407777382592","485.9380936260585"
"","canvas-keyboard-response","105","161682","0.0-6.0-1.14","541","","","","","clear_screen","null","null","","","critical","t","c","d","164","240","240","164","154.6796","220.0396","spektor","0.14","h","164","240","240","164","154.6796","220.0396","39360","39360","34035.6388","td","null","null","null","null","null","null","[1,3]","464.0701432503089","154.68407777382592","485.9380936260585"
"","canvas-keyboard-response","106","162196","0.0-6.0-2.14","541","","","","","rectangles no change","null","null","","","critical","t","c","d","164","240","240","164","154.6796","220.0396","spektor","0.14","h","164","240","240","164","154.6796","220.0396","39360","39360","34035.6388","td","null","null","null","null","null","null","[1,3]","464.0701432503089","154.68407777382592","485.9380936260585"
"","canvas-keyboard-response","107","163532","0.0-6.0-3.14","541","","","","","rectangles with change","null","null","","","critical","t","c","d","164","240","240","164","154.6796","220.0396","spektor","0.14","h","164","240","240","164","154.6796","220.0396","39360","39360","34035.6388","td","null","null","null","null","null","null","[1,3]","464.0701432503089","154.68407777382592","485.9380936260585"
"","canvas-keyboard-response","108","163550","0.0-6.0-4.14","541","","","","","clear_screen","null","null","","","critical","t","c","d","164","240","240","164","154.6796","220.0396","spektor","0.14","h","164","240","240","164","154.6796","220.0396","39360","39360","34035.6388","td","null","null","null","null","null","null","[1,3]","464.0701432503089","154.68407777382592","485.9380936260585"
"","canvas-keyboard-response","109","164292","0.0-6.0-5.14","541","","","","","make choice","733","1","","","critical","t","c","d","164","240","240","164","154.6796","220.0396","spektor","0.14","h","164","240","240","164","154.6796","220.0396","39360","39360","34035.6388","td","null","null","null","null","null","null","[1,3]","","",""
"","canvas-keyboard-response","110","164310","0.0-6.0-6.14","541","","","","","clear_screen","null","null","","","critical","t","c","d","164","240","240","164","154.6796","220.0396","spektor","0.14","h","164","240","240","164","154.6796","220.0396","39360","39360","34035.6388","td","null","null","null","null","null","null","[1,3]","","",""
"","canvas-keyboard-response","111","164511","0.0-6.0-0.15","541","","","","","pre trial waiting period","null","null","","","critical","c","d","t","240","164","160.6713","232.8713","164","240","trueblood","0.05","h","164","240","240","164","160.6713","232.8713","39360","39360","37415.7294","tc","null","null","null","null","null","null","[3,1]","491.2175956167536","440.8300877603931","445.87624148580915"
"","canvas-keyboard-response","112","164530","0.0-6.0-1.15","541","","","","","clear_screen","null","null","","","critical","c","d","t","240","164","160.6713","232.8713","164","240","trueblood","0.05","h","164","240","240","164","160.6713","232.8713","39360","39360","37415.7294","tc","null","null","null","null","null","null","[3,1]","491.2175956167536","440.8300877603931","445.87624148580915"
"","canvas-keyboard-response","113","165040","0.0-6.0-2.15","541","","","","","rectangles no change","null","null","","","critical","c","d","t","240","164","160.6713","232.8713","164","240","trueblood","0.05","h","164","240","240","164","160.6713","232.8713","39360","39360","37415.7294","tc","null","null","null","null","null","null","[3,1]","491.2175956167536","440.8300877603931","445.87624148580915"
"","canvas-keyboard-response","114","166376","0.0-6.0-3.15","541","","","","","rectangles with change","null","null","","","critical","c","d","t","240","164","160.6713","232.8713","164","240","trueblood","0.05","h","164","240","240","164","160.6713","232.8713","39360","39360","37415.7294","tc","null","null","null","null","null","null","[3,1]","491.2175956167536","440.8300877603931","445.87624148580915"
"","canvas-keyboard-response","115","166397","0.0-6.0-4.15","541","","","","","clear_screen","null","null","","","critical","c","d","t","240","164","160.6713","232.8713","164","240","trueblood","0.05","h","164","240","240","164","160.6713","232.8713","39360","39360","37415.7294","tc","null","null","null","null","null","null","[3,1]","491.2175956167536","440.8300877603931","445.87624148580915"
"","canvas-keyboard-response","116","166771","0.0-6.0-5.15","541","","","","","make choice","366","1","","","critical","c","d","t","240","164","160.6713","232.8713","164","240","trueblood","0.05","h","164","240","240","164","160.6713","232.8713","39360","39360","37415.7294","tc","null","null","null","null","null","null","[3,1]","","",""
"","canvas-keyboard-response","117","166791","0.0-6.0-6.15","541","","","","","clear_screen","null","null","","","critical","c","d","t","240","164","160.6713","232.8713","164","240","trueblood","0.05","h","164","240","240","164","160.6713","232.8713","39360","39360","37415.7294","tc","null","null","null","null","null","null","[3,1]","","",""
"","canvas-keyboard-response","118","166992","0.0-6.0-0.16","541","","","","","pre trial waiting period","null","null","","","critical","d","t","c","232.8713","160.6713","240","164","164","240","spektor","0.05","w","240","164","164","240","232.8713","160.6713","39360","39360","37415.7294","tc","null","null","null","null","null","null","[2,3]","543.1698355533982","177.9813411057974","503.72439973601564"
"","canvas-keyboard-response","119","167011","0.0-6.0-1.16","541","","","","","clear_screen","null","null","","","critical","d","t","c","232.8713","160.6713","240","164","164","240","spektor","0.05","w","240","164","164","240","232.8713","160.6713","39360","39360","37415.7294","tc","null","null","null","null","null","null","[2,3]","543.1698355533982","177.9813411057974","503.72439973601564"
"","canvas-keyboard-response","120","167523","0.0-6.0-2.16","541","","","","","rectangles no change","null","null","","","critical","d","t","c","232.8713","160.6713","240","164","164","240","spektor","0.05","w","240","164","164","240","232.8713","160.6713","39360","39360","37415.7294","tc","null","null","null","null","null","null","[2,3]","543.1698355533982","177.9813411057974","503.72439973601564"
"","canvas-keyboard-response","121","168858","0.0-6.0-3.16","541","","","","","rectangles with change","null","null","","","critical","d","t","c","232.8713","160.6713","240","164","164","240","spektor","0.05","w","240","164","164","240","232.8713","160.6713","39360","39360","37415.7294","tc","null","null","null","null","null","null","[2,3]","543.1698355533982","177.9813411057974","503.72439973601564"
"","canvas-keyboard-response","122","168877","0.0-6.0-4.16","541","","","","","clear_screen","null","null","","","critical","d","t","c","232.8713","160.6713","240","164","164","240","spektor","0.05","w","240","164","164","240","232.8713","160.6713","39360","39360","37415.7294","tc","null","null","null","null","null","null","[2,3]","543.1698355533982","177.9813411057974","503.72439973601564"
"","canvas-keyboard-response","123","168886","0.0-6.0-5.16","541","","","","","make choice","1","3","","","critical","d","t","c","232.8713","160.6713","240","164","164","240","spektor","0.05","w","240","164","164","240","232.8713","160.6713","39360","39360","37415.7294","tc","null","null","null","null","null","null","[2,3]","","",""
"","canvas-keyboard-response","124","168904","0.0-6.0-6.16","541","","","","","clear_screen","null","null","","","critical","d","t","c","232.8713","160.6713","240","164","164","240","spektor","0.05","w","240","164","164","240","232.8713","160.6713","39360","39360","37415.7294","tc","null","null","null","null","null","null","[2,3]","","",""
"","canvas-keyboard-response","125","169105","0.0-6.0-0.17","541","","","","","pre trial waiting period","null","null","","","critical","c","t","d","164","240","240","164","240","164","trueblood","0","w","240","164","164","240","240","164","39360","39360","39360","td","null","null","null","null","null","null","[2,3]","440.979289756023","484.54341650796493","514.639353887384"
"","canvas-keyboard-response","126","169124","0.0-6.0-1.17","541","","","","","clear_screen","null","null","","","critical","c","t","d","164","240","240","164","240","164","trueblood","0","w","240","164","164","240","240","164","39360","39360","39360","td","null","null","null","null","null","null","[2,3]","440.979289756023","484.54341650796493","514.639353887384"
"","canvas-keyboard-response","127","169640","0.0-6.0-2.17","541","","","","","rectangles no change","null","null","","","critical","c","t","d","164","240","240","164","240","164","trueblood","0","w","240","164","164","240","240","164","39360","39360","39360","td","null","null","null","null","null","null","[2,3]","440.979289756023","484.54341650796493","514.639353887384"
"","canvas-keyboard-response","128","170977","0.0-6.0-3.17","541","","","","","rectangles with change","null","null","","","critical","c","t","d","164","240","240","164","240","164","trueblood","0","w","240","164","164","240","240","164","39360","39360","39360","td","null","null","null","null","null","null","[2,3]","440.979289756023","484.54341650796493","514.639353887384"
"","canvas-keyboard-response","129","170998","0.0-6.0-4.17","541","","","","","clear_screen","null","null","","","critical","c","t","d","164","240","240","164","240","164","trueblood","0","w","240","164","164","240","240","164","39360","39360","39360","td","null","null","null","null","null","null","[2,3]","440.979289756023","484.54341650796493","514.639353887384"
"","canvas-keyboard-response","130","171884","0.0-6.0-5.17","541","","","","","make choice","875","3","","","critical","c","t","d","164","240","240","164","240","164","trueblood","0","w","240","164","164","240","240","164","39360","39360","39360","td","null","null","null","null","null","null","[2,3]","","",""
"","canvas-keyboard-response","131","171904","0.0-6.0-6.17","541","","","","","clear_screen","null","null","","","critical","c","t","d","164","240","240","164","240","164","trueblood","0","w","240","164","164","240","240","164","39360","39360","39360","td","null","null","null","null","null","null","[2,3]","","",""
"","canvas-keyboard-response","132","172105","0.0-6.0-0.18","541","","","","","pre trial waiting period","null","null","","","critical","c","d","t","240","164","162.6685","237.1485","164","240","spektor","0.02","h","164","240","240","164","162.6685","237.1485","39360","39360","38576.5967","tc","null","null","null","null","null","null","[3,1]","531.9165571127148","112.85561598905848","492.51967214883734"
"","canvas-keyboard-response","133","172127","0.0-6.0-1.18","541","","","","","clear_screen","null","null","","","critical","c","d","t","240","164","162.6685","237.1485","164","240","spektor","0.02","h","164","240","240","164","162.6685","237.1485","39360","39360","38576.5967","tc","null","null","null","null","null","null","[3,1]","531.9165571127148","112.85561598905848","492.51967214883734"
"","canvas-keyboard-response","134","172638","0.0-6.0-2.18","541","","","","","rectangles no change","null","null","","","critical","c","d","t","240","164","162.6685","237.1485","164","240","spektor","0.02","h","164","240","240","164","162.6685","237.1485","39360","39360","38576.5967","tc","null","null","null","null","null","null","[3,1]","531.9165571127148","112.85561598905848","492.51967214883734"
"","canvas-keyboard-response","135","173975","0.0-6.0-3.18","541","","","","","rectangles with change","null","null","","","critical","c","d","t","240","164","162.6685","237.1485","164","240","spektor","0.02","h","164","240","240","164","162.6685","237.1485","39360","39360","38576.5967","tc","null","null","null","null","null","null","[3,1]","531.9165571127148","112.85561598905848","492.51967214883734"
"","canvas-keyboard-response","136","173994","0.0-6.0-4.18","541","","","","","clear_screen","null","null","","","critical","c","d","t","240","164","162.6685","237.1485","164","240","spektor","0.02","h","164","240","240","164","162.6685","237.1485","39360","39360","38576.5967","tc","null","null","null","null","null","null","[3,1]","531.9165571127148","112.85561598905848","492.51967214883734"
"","canvas-keyboard-response","137","174692","0.0-6.0-5.18","541","","","","","make choice","688","3","","","critical","c","d","t","240","164","162.6685","237.1485","164","240","spektor","0.02","h","164","240","240","164","162.6685","237.1485","39360","39360","38576.5967","tc","null","null","null","null","null","null","[3,1]","","",""
"","canvas-keyboard-response","138","174710","0.0-6.0-6.18","541","","","","","clear_screen","null","null","","","critical","c","d","t","240","164","162.6685","237.1485","164","240","spektor","0.02","h","164","240","240","164","162.6685","237.1485","39360","39360","38576.5967","tc","null","null","null","null","null","null","[3,1]","","",""
"","canvas-keyboard-response","139","174911","0.0-6.0-0.19","541","","","","","pre trial waiting period","null","null","","","critical","t","d","c","164","240","162.6685","237.1485","240","164","trueblood","0.02","h","164","240","240","164","162.6685","237.1485","39360","39360","38576.5967","td","null","null","null","null","null","null","[1,2]","447.4906028574907","428.3469182790261","514.3311705441538"
"","canvas-keyboard-response","140","174932","0.0-6.0-1.19","541","","","","","clear_screen","null","null","","","critical","t","d","c","164","240","162.6685","237.1485","240","164","trueblood","0.02","h","164","240","240","164","162.6685","237.1485","39360","39360","38576.5967","td","null","null","null","null","null","null","[1,2]","447.4906028574907","428.3469182790261","514.3311705441538"
"","canvas-keyboard-response","141","175445","0.0-6.0-2.19","541","","","","","rectangles no change","null","null","","","critical","t","d","c","164","240","162.6685","237.1485","240","164","trueblood","0.02","h","164","240","240","164","162.6685","237.1485","39360","39360","38576.5967","td","null","null","null","null","null","null","[1,2]","447.4906028574907","428.3469182790261","514.3311705441538"
"","canvas-keyboard-response","142","176781","0.0-6.0-3.19","541","","","","","rectangles with change","null","null","","","critical","t","d","c","164","240","162.6685","237.1485","240","164","trueblood","0.02","h","164","240","240","164","162.6685","237.1485","39360","39360","38576.5967","td","null","null","null","null","null","null","[1,2]","447.4906028574907","428.3469182790261","514.3311705441538"
"","canvas-keyboard-response","143","176800","0.0-6.0-4.19","541","","","","","clear_screen","null","null","","","critical","t","d","c","164","240","162.6685","237.1485","240","164","trueblood","0.02","h","164","240","240","164","162.6685","237.1485","39360","39360","38576.5967","td","null","null","null","null","null","null","[1,2]","447.4906028574907","428.3469182790261","514.3311705441538"
"","canvas-keyboard-response","144","178019","0.0-6.0-5.19","541","","","","","make choice","1211","1","","","critical","t","d","c","164","240","162.6685","237.1485","240","164","trueblood","0.02","h","164","240","240","164","162.6685","237.1485","39360","39360","38576.5967","td","null","null","null","null","null","null","[1,2]","","",""
"","canvas-keyboard-response","145","178038","0.0-6.0-6.19","541","","","","","clear_screen","null","null","","","critical","t","d","c","164","240","162.6685","237.1485","240","164","trueblood","0.02","h","164","240","240","164","162.6685","237.1485","39360","39360","38576.5967","td","null","null","null","null","null","null","[1,2]","","",""
"","canvas-keyboard-response","146","178239","0.0-6.0-0.20","541","","","","","pre trial waiting period","null","null","","","catch","sh","l","sw","213","205","167","278","171","163","spektor","null","null","null","null","null","null","null","null","null","null","null","","180","200","260","200","36000","52000","[2,3]","516.4392915733212","107.30973273464329","520.4721538190287"
"","canvas-keyboard-response","147","178260","0.0-6.0-1.20","541","","","","","clear_screen","null","null","","","catch","sh","l","sw","213","205","167","278","171","163","spektor","null","null","null","null","null","null","null","null","null","null","null","","180","200","260","200","36000","52000","[2,3]","516.4392915733212","107.30973273464329","520.4721538190287"
"","canvas-keyboard-response","148","178773","0.0-6.0-2.20","541","","","","","rectangles no change","null","null","","","catch","sh","l","sw","213","205","167","278","171","163","spektor","null","null","null","null","null","null","null","null","null","null","null","","180","200","260","200","36000","52000","[2,3]","516.4392915733212","107.30973273464329","520.4721538190287"
"","canvas-keyboard-response","149","180109","0.0-6.0-3.20","541","","","","","rectangles with change","null","null","","","catch","sh","l","sw","213","205","167","278","171","163","spektor","null","null","null","null","null","null","null","null","null","null","null","","180","200","260","200","36000","52000","[2,3]","516.4392915733212","107.30973273464329","520.4721538190287"
"","canvas-keyboard-response","150","180131","0.0-6.0-4.20","541","","","","","clear_screen","null","null","","","catch","sh","l","sw","213","205","167","278","171","163","spektor","null","null","null","null","null","null","null","null","null","null","null","","180","200","260","200","36000","52000","[2,3]","516.4392915733212","107.30973273464329","520.4721538190287"
"","canvas-keyboard-response","151","180732","0.0-6.0-5.20","541","","","","","make choice","594","2","","","catch","sh","l","sw","213","205","167","278","171","163","spektor","null","null","null","null","null","null","null","null","null","null","null","","180","200","260","200","36000","52000","[2,3]","","",""
"","canvas-keyboard-response","152","180752","0.0-6.0-6.20","541","","","","","clear_screen","null","null","","","catch","sh","l","sw","213","205","167","278","171","163","spektor","null","null","null","null","null","null","null","null","null","null","null","","180","200","260","200","36000","52000","[2,3]","","",""
"","canvas-keyboard-response","153","180953","0.0-6.0-0.21","541","","","","","pre trial waiting period","null","null","","","catch","sw","l","sh","180","200","171","269","178","161","spektor","null","null","null","null","null","null","null","null","null","null","null","","180","200","260","200","36000","52000","[1,2]","476.60878541462614","79.52163076849345","532.9280397884379"
"","canvas-keyboard-response","154","180974","0.0-6.0-1.21","541","","","","","clear_screen","null","null","","","catch","sw","l","sh","180","200","171","269","178","161","spektor","null","null","null","null","null","null","null","null","null","null","null","","180","200","260","200","36000","52000","[1,2]","476.60878541462614","79.52163076849345","532.9280397884379"
"","canvas-keyboard-response","155","181487","0.0-6.0-2.21","541","","","","","rectangles no change","null","null","","","catch","sw","l","sh","180","200","171","269","178","161","spektor","null","null","null","null","null","null","null","null","null","null","null","","180","200","260","200","36000","52000","[1,2]","476.60878541462614","79.52163076849345","532.9280397884379"
"","canvas-keyboard-response","156","182823","0.0-6.0-3.21","541","","","","","rectangles with change","null","null","","","catch","sw","l","sh","180","200","171","269","178","161","spektor","null","null","null","null","null","null","null","null","null","null","null","","180","200","260","200","36000","52000","[1,2]","476.60878541462614","79.52163076849345","532.9280397884379"
"","canvas-keyboard-response","157","182842","0.0-6.0-4.21","541","","","","","clear_screen","null","null","","","catch","sw","l","sh","180","200","171","269","178","161","spektor","null","null","null","null","null","null","null","null","null","null","null","","180","200","260","200","36000","52000","[1,2]","476.60878541462614","79.52163076849345","532.9280397884379"
"","canvas-keyboard-response","158","183196","0.0-6.0-5.21","541","","","","","make choice","346","2","","","catch","sw","l","sh","180","200","171","269","178","161","spektor","null","null","null","null","null","null","null","null","null","null","null","","180","200","260","200","36000","52000","[1,2]","","",""
"","canvas-keyboard-response","159","183215","0.0-6.0-6.21","541","","","","","clear_screen","null","null","","","catch","sw","l","sh","180","200","171","269","178","161","spektor","null","null","null","null","null","null","null","null","null","null","null","","180","200","260","200","36000","52000","[1,2]","","",""
"","canvas-keyboard-response","160","183416","0.0-6.0-0.22","541","","","","","pre trial waiting period","null","null","","","catch","l","sh","sw","184","293","194","216","205","194","trueblood","null","null","null","null","null","null","null","null","null","null","null","","180","200","260","200","36000","52000","[1,2]","416.08227892233924","434.8853664174409","495.3143884686698"
"","canvas-keyboard-response","161","183437","0.0-6.0-1.22","541","","","","","clear_screen","null","null","","","catch","l","sh","sw","184","293","194","216","205","194","trueblood","null","null","null","null","null","null","null","null","null","null","null","","180","200","260","200","36000","52000","[1,2]","416.08227892233924","434.8853664174409","495.3143884686698"
"","canvas-keyboard-response","162","183948","0.0-6.0-2.22","541","","","","","rectangles no change","null","null","","","catch","l","sh","sw","184","293","194","216","205","194","trueblood","null","null","null","null","null","null","null","null","null","null","null","","180","200","260","200","36000","52000","[1,2]","416.08227892233924","434.8853664174409","495.3143884686698"
"","canvas-keyboard-response","163","185284","0.0-6.0-3.22","541","","","","","rectangles with change","null","null","","","catch","l","sh","sw","184","293","194","216","205","194","trueblood","null","null","null","null","null","null","null","null","null","null","null","","180","200","260","200","36000","52000","[1,2]","416.08227892233924","434.8853664174409","495.3143884686698"
"","canvas-keyboard-response","164","185304","0.0-6.0-4.22","541","","","","","clear_screen","null","null","","","catch","l","sh","sw","184","293","194","216","205","194","trueblood","null","null","null","null","null","null","null","null","null","null","null","","180","200","260","200","36000","52000","[1,2]","416.08227892233924","434.8853664174409","495.3143884686698"
"","canvas-keyboard-response","165","185675","0.0-6.0-5.22","541","","","","","make choice","363","1","","","catch","l","sh","sw","184","293","194","216","205","194","trueblood","null","null","null","null","null","null","null","null","null","null","null","","180","200","260","200","36000","52000","[1,2]","","",""
"","canvas-keyboard-response","166","185694","0.0-6.0-6.22","541","","","","","clear_screen","null","null","","","catch","l","sh","sw","184","293","194","216","205","194","trueblood","null","null","null","null","null","null","null","null","null","null","null","","180","200","260","200","36000","52000","[1,2]","","",""
"","canvas-keyboard-response","167","185895","0.0-6.0-0.23","541","","","","","pre trial waiting period","null","null","","","critical","t","c","d","240","164","164","240","240","164","trueblood","0","w","240","164","164","240","240","164","39360","39360","39360","tc","null","null","null","null","null","null","[1,2]","490.8943335213844","455.7216267980103","500.84289395038036"
"","canvas-keyboard-response","168","185914","0.0-6.0-1.23","541","","","","","clear_screen","null","null","","","critical","t","c","d","240","164","164","240","240","164","trueblood","0","w","240","164","164","240","240","164","39360","39360","39360","tc","null","null","null","null","null","null","[1,2]","490.8943335213844","455.7216267980103","500.84289395038036"
"","canvas-keyboard-response","169","186426","0.0-6.0-2.23","541","","","","","rectangles no change","null","null","","","critical","t","c","d","240","164","164","240","240","164","trueblood","0","w","240","164","164","240","240","164","39360","39360","39360","tc","null","null","null","null","null","null","[1,2]","490.8943335213844","455.7216267980103","500.84289395038036"
"","canvas-keyboard-response","170","187761","0.0-6.0-3.23","541","","","","","rectangles with change","null","null","","","critical","t","c","d","240","164","164","240","240","164","trueblood","0","w","240","164","164","240","240","164","39360","39360","39360","tc","null","null","null","null","null","null","[1,2]","490.8943335213844","455.7216267980103","500.84289395038036"
"","canvas-keyboard-response","171","187780","0.0-6.0-4.23","541","","","","","clear_screen","null","null","","","critical","t","c","d","240","164","164","240","240","164","trueblood","0","w","240","164","164","240","240","164","39360","39360","39360","tc","null","null","null","null","null","null","[1,2]","490.8943335213844","455.7216267980103","500.84289395038036"
"","canvas-keyboard-response","172","188380","0.0-6.0-5.23","541","","","","","make choice","591","2","","","critical","t","c","d","240","164","164","240","240","164","trueblood","0","w","240","164","164","240","240","164","39360","39360","39360","tc","null","null","null","null","null","null","[1,2]","","",""
"","canvas-keyboard-response","173","188398","0.0-6.0-6.23","541","","","","","clear_screen","null","null","","","critical","t","c","d","240","164","164","240","240","164","trueblood","0","w","240","164","164","240","240","164","39360","39360","39360","tc","null","null","null","null","null","null","[1,2]","","",""
"","canvas-keyboard-response","174","188599","0.0-6.0-0.24","541","","","","","pre trial waiting period","null","null","","","critical","t","d","c","164","240","164","240","240","164","spektor","0","h","164","240","240","164","164","240","39360","39360","39360","td","null","null","null","null","null","null","[1,2]","457.6372403938809","94.6530186157272","515.9131824409402"
"","canvas-keyboard-response","175","188618","0.0-6.0-1.24","541","","","","","clear_screen","null","null","","","critical","t","d","c","164","240","164","240","240","164","spektor","0","h","164","240","240","164","164","240","39360","39360","39360","td","null","null","null","null","null","null","[1,2]","457.6372403938809","94.6530186157272","515.9131824409402"
"","canvas-keyboard-response","176","189133","0.0-6.0-2.24","541","","","","","rectangles no change","null","null","","","critical","t","d","c","164","240","164","240","240","164","spektor","0","h","164","240","240","164","164","240","39360","39360","39360","td","null","null","null","null","null","null","[1,2]","457.6372403938809","94.6530186157272","515.9131824409402"
"","canvas-keyboard-response","177","190468","0.0-6.0-3.24","541","","","","","rectangles with change","null","null","","","critical","t","d","c","164","240","164","240","240","164","spektor","0","h","164","240","240","164","164","240","39360","39360","39360","td","null","null","null","null","null","null","[1,2]","457.6372403938809","94.6530186157272","515.9131824409402"
"","canvas-keyboard-response","178","190487","0.0-6.0-4.24","541","","","","","clear_screen","null","null","","","critical","t","d","c","164","240","164","240","240","164","spektor","0","h","164","240","240","164","164","240","39360","39360","39360","td","null","null","null","null","null","null","[1,2]","457.6372403938809","94.6530186157272","515.9131824409402"
"","canvas-keyboard-response","179","191243","0.0-6.0-5.24","541","","","","","make choice","749","1","","","critical","t","d","c","164","240","164","240","240","164","spektor","0","h","164","240","240","164","164","240","39360","39360","39360","td","null","null","null","null","null","null","[1,2]","","",""
"","canvas-keyboard-response","180","191262","0.0-6.0-6.24","541","","","","","clear_screen","null","null","","","critical","t","d","c","164","240","164","240","240","164","spektor","0","h","164","240","240","164","164","240","39360","39360","39360","td","null","null","null","null","null","null","[1,2]","","",""
"","canvas-keyboard-response","181","191463","0.0-6.0-0.25","541","","","","","pre trial waiting period","null","null","","","catch","l","sw","sh","204","233","192","205","228","203","spektor","null","null","null","null","null","null","null","null","null","null","null","","180","200","260","200","36000","52000","[1,2]","480.70841684299614","121.45940894462952","508.77781426738716"
"","canvas-keyboard-response","182","191482","0.0-6.0-1.25","541","","","","","clear_screen","null","null","","","catch","l","sw","sh","204","233","192","205","228","203","spektor","null","null","null","null","null","null","null","null","null","null","null","","180","200","260","200","36000","52000","[1,2]","480.70841684299614","121.45940894462952","508.77781426738716"
"","canvas-keyboard-response","183","191996","0.0-6.0-2.25","541","","","","","rectangles no change","null","null","","","catch","l","sw","sh","204","233","192","205","228","203","spektor","null","null","null","null","null","null","null","null","null","null","null","","180","200","260","200","36000","52000","[1,2]","480.70841684299614","121.45940894462952","508.77781426738716"
"","canvas-keyboard-response","184","193331","0.0-6.0-3.25","541","","","","","rectangles with change","null","null","","","catch","l","sw","sh","204","233","192","205","228","203","spektor","null","null","null","null","null","null","null","null","null","null","null","","180","200","260","200","36000","52000","[1,2]","480.70841684299614","121.45940894462952","508.77781426738716"
"","canvas-keyboard-response","185","193349","0.0-6.0-4.25","541","","","","","clear_screen","null","null","","","catch","l","sw","sh","204","233","192","205","228","203","spektor","null","null","null","null","null","null","null","null","null","null","null","","180","200","260","200","36000","52000","[1,2]","480.70841684299614","121.45940894462952","508.77781426738716"
"","canvas-keyboard-response","186","194028","0.0-6.0-5.25","541","","","","","make choice","670","1","","","catch","l","sw","sh","204","233","192","205","228","203","spektor","null","null","null","null","null","null","null","null","null","null","null","","180","200","260","200","36000","52000","[1,2]","","",""
"","canvas-keyboard-response","187","194046","0.0-6.0-6.25","541","","","","","clear_screen","null","null","","","catch","l","sw","sh","204","233","192","205","228","203","spektor","null","null","null","null","null","null","null","null","null","null","null","","180","200","260","200","36000","52000","[1,2]","","",""
"","canvas-keyboard-response","188","194247","0.0-6.0-0.26","541","","","","","pre trial waiting period","null","null","","","critical","t","c","d","240","164","164","240","220.0396","154.6796","spektor","0.14","w","240","164","164","240","220.0396","154.6796","39360","39360","34035.6388","tc","null","null","null","null","null","null","[1,2]","500.50049284539455","151.88158890832136","519.4058020908428"
"","canvas-keyboard-response","189","194266","0.0-6.0-1.26","541","","","","","clear_screen","null","null","","","critical","t","c","d","240","164","164","240","220.0396","154.6796","spektor","0.14","w","240","164","164","240","220.0396","154.6796","39360","39360","34035.6388","tc","null","null","null","null","null","null","[1,2]","500.50049284539455","151.88158890832136","519.4058020908428"
"","canvas-keyboard-response","190","194779","0.0-6.0-2.26","541","","","","","rectangles no change","null","null","","","critical","t","c","d","240","164","164","240","220.0396","154.6796","spektor","0.14","w","240","164","164","240","220.0396","154.6796","39360","39360","34035.6388","tc","null","null","null","null","null","null","[1,2]","500.50049284539455","151.88158890832136","519.4058020908428"
"","canvas-keyboard-response","191","196116","0.0-6.0-3.26","541","","","","","rectangles with change","null","null","","","critical","t","c","d","240","164","164","240","220.0396","154.6796","spektor","0.14","w","240","164","164","240","220.0396","154.6796","39360","39360","34035.6388","tc","null","null","null","null","null","null","[1,2]","500.50049284539455","151.88158890832136","519.4058020908428"
"","canvas-keyboard-response","192","196134","0.0-6.0-4.26","541","","","","","clear_screen","null","null","","","critical","t","c","d","240","164","164","240","220.0396","154.6796","spektor","0.14","w","240","164","164","240","220.0396","154.6796","39360","39360","34035.6388","tc","null","null","null","null","null","null","[1,2]","500.50049284539455","151.88158890832136","519.4058020908428"
"","canvas-keyboard-response","193","196876","0.0-6.0-5.26","541","","","","","make choice","733","2","","","critical","t","c","d","240","164","164","240","220.0396","154.6796","spektor","0.14","w","240","164","164","240","220.0396","154.6796","39360","39360","34035.6388","tc","null","null","null","null","null","null","[1,2]","","",""
"","canvas-keyboard-response","194","196895","0.0-6.0-6.26","541","","","","","clear_screen","null","null","","","critical","t","c","d","240","164","164","240","220.0396","154.6796","spektor","0.14","w","240","164","164","240","220.0396","154.6796","39360","39360","34035.6388","tc","null","null","null","null","null","null","[1,2]","","",""
"","canvas-keyboard-response","195","197095","0.0-6.0-0.27","541","","","","","pre trial waiting period","null","null","","","critical","t","d","c","240","164","220.0396","154.6796","164","240","trueblood","0.14","w","240","164","164","240","220.0396","154.6796","39360","39360","34035.6388","dc","null","null","null","null","null","null","[2,3]","517.9044348263825","502.60936631211575","451.3971594036082"
"","canvas-keyboard-response","196","197114","0.0-6.0-1.27","541","","","","","clear_screen","null","null","","","critical","t","d","c","240","164","220.0396","154.6796","164","240","trueblood","0.14","w","240","164","164","240","220.0396","154.6796","39360","39360","34035.6388","dc","null","null","null","null","null","null","[2,3]","517.9044348263825","502.60936631211575","451.3971594036082"
"","canvas-keyboard-response","197","197623","0.0-6.0-2.27","541","","","","","rectangles no change","null","null","","","critical","t","d","c","240","164","220.0396","154.6796","164","240","trueblood","0.14","w","240","164","164","240","220.0396","154.6796","39360","39360","34035.6388","dc","null","null","null","null","null","null","[2,3]","517.9044348263825","502.60936631211575","451.3971594036082"
"","canvas-keyboard-response","198","198958","0.0-6.0-3.27","541","","","","","rectangles with change","null","null","","","critical","t","d","c","240","164","220.0396","154.6796","164","240","trueblood","0.14","w","240","164","164","240","220.0396","154.6796","39360","39360","34035.6388","dc","null","null","null","null","null","null","[2,3]","517.9044348263825","502.60936631211575","451.3971594036082"
"","canvas-keyboard-response","199","198976","0.0-6.0-4.27","541","","","","","clear_screen","null","null","","","critical","t","d","c","240","164","220.0396","154.6796","164","240","trueblood","0.14","w","240","164","164","240","220.0396","154.6796","39360","39360","34035.6388","dc","null","null","null","null","null","null","[2,3]","517.9044348263825","502.60936631211575","451.3971594036082"
"","canvas-keyboard-response","200","199228","0.0-6.0-5.27","541","","","","","make choice","238","3","","","critical","t","d","c","240","164","220.0396","154.6796","164","240","trueblood","0.14","w","240","164","164","240","220.0396","154.6796","39360","39360","34035.6388","dc","null","null","null","null","null","null","[2,3]","","",""
"","canvas-keyboard-response","201","199247","0.0-6.0-6.27","541","","","","","clear_screen","null","null","","","critical","t","d","c","240","164","220.0396","154.6796","164","240","trueblood","0.14","w","240","164","164","240","220.0396","154.6796","39360","39360","34035.6388","dc","null","null","null","null","null","null","[2,3]","","",""
"","canvas-keyboard-response","202","199449","0.0-6.0-0.28","541","","","","","pre trial waiting period","null","null","","","catch","l","sw","sh","229","233","198","170","228","152","spektor","null","null","null","null","null","null","null","null","null","null","null","","180","200","260","200","36000","52000","[1,3]","470.9720482916102","207.90370922557148","508.0910207504953"
"","canvas-keyboard-response","203","199468","0.0-6.0-1.28","541","","","","","clear_screen","null","null","","","catch","l","sw","sh","229","233","198","170","228","152","spektor","null","null","null","null","null","null","null","null","null","null","null","","180","200","260","200","36000","52000","[1,3]","470.9720482916102","207.90370922557148","508.0910207504953"
"","canvas-keyboard-response","204","199981","0.0-6.0-2.28","541","","","","","rectangles no change","null","null","","","catch","l","sw","sh","229","233","198","170","228","152","spektor","null","null","null","null","null","null","null","null","null","null","null","","180","200","260","200","36000","52000","[1,3]","470.9720482916102","207.90370922557148","508.0910207504953"
"","canvas-keyboard-response","205","201316","0.0-6.0-3.28","541","","","","","rectangles with change","null","null","","","catch","l","sw","sh","229","233","198","170","228","152","spektor","null","null","null","null","null","null","null","null","null","null","null","","180","200","260","200","36000","52000","[1,3]","470.9720482916102","207.90370922557148","508.0910207504953"
"","canvas-keyboard-response","206","201335","0.0-6.0-4.28","541","","","","","clear_screen","null","null","","","catch","l","sw","sh","229","233","198","170","228","152","spektor","null","null","null","null","null","null","null","null","null","null","null","","180","200","260","200","36000","52000","[1,3]","470.9720482916102","207.90370922557148","508.0910207504953"
"","canvas-keyboard-response","207","201611","0.0-6.0-5.28","541","","","","","make choice","268","1","","","catch","l","sw","sh","229","233","198","170","228","152","spektor","null","null","null","null","null","null","null","null","null","null","null","","180","200","260","200","36000","52000","[1,3]","","",""
"","canvas-keyboard-response","208","201630","0.0-6.0-6.28","541","","","","","clear_screen","null","null","","","catch","l","sw","sh","229","233","198","170","228","152","spektor","null","null","null","null","null","null","null","null","null","null","null","","180","200","260","200","36000","52000","[1,3]","","",""
"","canvas-keyboard-response","209","201831","0.0-6.0-0.29","541","","","","","pre trial waiting period","null","null","","","critical","d","t","c","162.6685","237.1485","164","240","240","164","spektor","0.02","h","164","240","240","164","162.6685","237.1485","39360","39360","38576.5967","dc","null","null","null","null","null","null","[1,3]","469.48336783337754","118.65416206422597","494.6273292654952"
"","canvas-keyboard-response","210","201853","0.0-6.0-1.29","541","","","","","clear_screen","null","null","","","critical","d","t","c","162.6685","237.1485","164","240","240","164","spektor","0.02","h","164","240","240","164","162.6685","237.1485","39360","39360","38576.5967","dc","null","null","null","null","null","null","[1,3]","469.48336783337754","118.65416206422597","494.6273292654952"
"","canvas-keyboard-response","211","202364","0.0-6.0-2.29","541","","","","","rectangles no change","null","null","","","critical","d","t","c","162.6685","237.1485","164","240","240","164","spektor","0.02","h","164","240","240","164","162.6685","237.1485","39360","39360","38576.5967","dc","null","null","null","null","null","null","[1,3]","469.48336783337754","118.65416206422597","494.6273292654952"
"","canvas-keyboard-response","212","203700","0.0-6.0-3.29","541","","","","","rectangles with change","null","null","","","critical","d","t","c","162.6685","237.1485","164","240","240","164","spektor","0.02","h","164","240","240","164","162.6685","237.1485","39360","39360","38576.5967","dc","null","null","null","null","null","null","[1,3]","469.48336783337754","118.65416206422597","494.6273292654952"
"","canvas-keyboard-response","213","203719","0.0-6.0-4.29","541","","","","","clear_screen","null","null","","","critical","d","t","c","162.6685","237.1485","164","240","240","164","spektor","0.02","h","164","240","240","164","162.6685","237.1485","39360","39360","38576.5967","dc","null","null","null","null","null","null","[1,3]","469.48336783337754","118.65416206422597","494.6273292654952"
"","canvas-keyboard-response","214","204499","0.0-6.0-5.29","541","","","","","make choice","773","1","","","critical","d","t","c","162.6685","237.1485","164","240","240","164","spektor","0.02","h","164","240","240","164","162.6685","237.1485","39360","39360","38576.5967","dc","null","null","null","null","null","null","[1,3]","","",""
"","canvas-keyboard-response","215","204518","0.0-6.0-6.29","541","","","","","clear_screen","null","null","","","critical","d","t","c","162.6685","237.1485","164","240","240","164","spektor","0.02","h","164","240","240","164","162.6685","237.1485","39360","39360","38576.5967","dc","null","null","null","null","null","null","[1,3]","","",""
"","canvas-keyboard-response","216","204719","0.0-6.0-0.30","541","","","","","pre trial waiting period","null","null","","","critical","t","c","d","240","164","164","240","227.1683","158.0083","trueblood","0.09","w","240","164","164","240","227.1683","158.0083","39360","39360","35894.4834","dc","null","null","null","null","null","null","[3,2]","491.2235910146756","431.981022206068","477.7778160107328"
"","canvas-keyboard-response","217","204738","0.0-6.0-1.30","541","","","","","clear_screen","null","null","","","critical","t","c","d","240","164","164","240","227.1683","158.0083","trueblood","0.09","w","240","164","164","240","227.1683","158.0083","39360","39360","35894.4834","dc","null","null","null","null","null","null","[3,2]","491.2235910146756","431.981022206068","477.7778160107328"
"","canvas-keyboard-response","218","205248","0.0-6.0-2.30","541","","","","","rectangles no change","null","null","","","critical","t","c","d","240","164","164","240","227.1683","158.0083","trueblood","0.09","w","240","164","164","240","227.1683","158.0083","39360","39360","35894.4834","dc","null","null","null","null","null","null","[3,2]","491.2235910146756","431.981022206068","477.7778160107328"
"","canvas-keyboard-response","219","206584","0.0-6.0-3.30","541","","","","","rectangles with change","null","null","","","critical","t","c","d","240","164","164","240","227.1683","158.0083","trueblood","0.09","w","240","164","164","240","227.1683","158.0083","39360","39360","35894.4834","dc","null","null","null","null","null","null","[3,2]","491.2235910146756","431.981022206068","477.7778160107328"
"","canvas-keyboard-response","220","206602","0.0-6.0-4.30","541","","","","","clear_screen","null","null","","","critical","t","c","d","240","164","164","240","227.1683","158.0083","trueblood","0.09","w","240","164","164","240","227.1683","158.0083","39360","39360","35894.4834","dc","null","null","null","null","null","null","[3,2]","491.2235910146756","431.981022206068","477.7778160107328"
"","canvas-keyboard-response","221","207900","0.0-6.0-5.30","541","","","","","make choice","1289","3","","","critical","t","c","d","240","164","164","240","227.1683","158.0083","trueblood","0.09","w","240","164","164","240","227.1683","158.0083","39360","39360","35894.4834","dc","null","null","null","null","null","null","[3,2]","","",""
"","canvas-keyboard-response","222","207918","0.0-6.0-6.30","541","","","","","clear_screen","null","null","","","critical","t","c","d","240","164","164","240","227.1683","158.0083","trueblood","0.09","w","240","164","164","240","227.1683","158.0083","39360","39360","35894.4834","dc","null","null","null","null","null","null","[3,2]","","",""
"","canvas-keyboard-response","223","208120","0.0-6.0-0.31","541","","","","","pre trial waiting period","null","null","","","critical","c","d","t","240","164","154.6796","220.0396","164","240","spektor","0.14","h","164","240","240","164","154.6796","220.0396","39360","39360","34035.6388","dc","null","null","null","null","null","null","[2,1]","524.0034484525803","141.10663629119537","459.1031907287147"
"","canvas-keyboard-response","224","208141","0.0-6.0-1.31","541","","","","","clear_screen","null","null","","","critical","c","d","t","240","164","154.6796","220.0396","164","240","spektor","0.14","h","164","240","240","164","154.6796","220.0396","39360","39360","34035.6388","dc","null","null","null","null","null","null","[2,1]","524.0034484525803","141.10663629119537","459.1031907287147"
"","canvas-keyboard-response","225","208653","0.0-6.0-2.31","541","","","","","rectangles no change","null","null","","","critical","c","d","t","240","164","154.6796","220.0396","164","240","spektor","0.14","h","164","240","240","164","154.6796","220.0396","39360","39360","34035.6388","dc","null","null","null","null","null","null","[2,1]","524.0034484525803","141.10663629119537","459.1031907287147"
"","canvas-keyboard-response","226","209988","0.0-6.0-3.31","541","","","","","rectangles with change","null","null","","","critical","c","d","t","240","164","154.6796","220.0396","164","240","spektor","0.14","h","164","240","240","164","154.6796","220.0396","39360","39360","34035.6388","dc","null","null","null","null","null","null","[2,1]","524.0034484525803","141.10663629119537","459.1031907287147"
"","canvas-keyboard-response","227","210007","0.0-6.0-4.31","541","","","","","clear_screen","null","null","","","critical","c","d","t","240","164","154.6796","220.0396","164","240","spektor","0.14","h","164","240","240","164","154.6796","220.0396","39360","39360","34035.6388","dc","null","null","null","null","null","null","[2,1]","524.0034484525803","141.10663629119537","459.1031907287147"
"","canvas-keyboard-response","228","210435","0.0-6.0-5.31","541","","","","","make choice","421","1","","","critical","c","d","t","240","164","154.6796","220.0396","164","240","spektor","0.14","h","164","240","240","164","154.6796","220.0396","39360","39360","34035.6388","dc","null","null","null","null","null","null","[2,1]","","",""
"","canvas-keyboard-response","229","210454","0.0-6.0-6.31","541","","","","","clear_screen","null","null","","","critical","c","d","t","240","164","154.6796","220.0396","164","240","spektor","0.14","h","164","240","240","164","154.6796","220.0396","39360","39360","34035.6388","dc","null","null","null","null","null","null","[2,1]","","",""
"","canvas-keyboard-response","230","210655","0.0-6.0-0.32","541","","","","","pre trial waiting period","null","null","","","critical","d","t","c","154.6796","220.0396","164","240","240","164","trueblood","0.14","h","164","240","240","164","154.6796","220.0396","39360","39360","34035.6388","tc","null","null","null","null","null","null","[2,3]","470.62724699365714","423.4179968154556","469.14126428955234"
"","canvas-keyboard-response","231","210675","0.0-6.0-1.32","541","","","","","clear_screen","null","null","","","critical","d","t","c","154.6796","220.0396","164","240","240","164","trueblood","0.14","h","164","240","240","164","154.6796","220.0396","39360","39360","34035.6388","tc","null","null","null","null","null","null","[2,3]","470.62724699365714","423.4179968154556","469.14126428955234"
"","canvas-keyboard-response","232","211184","0.0-6.0-2.32","541","","","","","rectangles no change","null","null","","","critical","d","t","c","154.6796","220.0396","164","240","240","164","trueblood","0.14","h","164","240","240","164","154.6796","220.0396","39360","39360","34035.6388","tc","null","null","null","null","null","null","[2,3]","470.62724699365714","423.4179968154556","469.14126428955234"
"","canvas-keyboard-response","233","212520","0.0-6.0-3.32","541","","","","","rectangles with change","null","null","","","critical","d","t","c","154.6796","220.0396","164","240","240","164","trueblood","0.14","h","164","240","240","164","154.6796","220.0396","39360","39360","34035.6388","tc","null","null","null","null","null","null","[2,3]","470.62724699365714","423.4179968154556","469.14126428955234"
"","canvas-keyboard-response","234","212538","0.0-6.0-4.32","541","","","","","clear_screen","null","null","","","critical","d","t","c","154.6796","220.0396","164","240","240","164","trueblood","0.14","h","164","240","240","164","154.6796","220.0396","39360","39360","34035.6388","tc","null","null","null","null","null","null","[2,3]","470.62724699365714","423.4179968154556","469.14126428955234"
"","canvas-keyboard-response","235","213172","0.0-6.0-5.32","541","","","","","make choice","628","3","","","critical","d","t","c","154.6796","220.0396","164","240","240","164","trueblood","0.14","h","164","240","240","164","154.6796","220.0396","39360","39360","34035.6388","tc","null","null","null","null","null","null","[2,3]","","",""
"","canvas-keyboard-response","236","213192","0.0-6.0-6.32","541","","","","","clear_screen","null","null","","","critical","d","t","c","154.6796","220.0396","164","240","240","164","trueblood","0.14","h","164","240","240","164","154.6796","220.0396","39360","39360","34035.6388","tc","null","null","null","null","null","null","[2,3]","","",""
"","canvas-keyboard-response","237","213393","0.0-6.0-0.33","541","","","","","pre trial waiting period","null","null","","","critical","t","d","c","164","240","158.0083","227.1683","240","164","spektor","0.09","h","164","240","240","164","158.0083","227.1683","39360","39360","35894.4834","tc","null","null","null","null","null","null","[1,3]","487.19139626344247","117.66690535958571","495.0025193615785"
"","canvas-keyboard-response","238","213412","0.0-6.0-1.33","541","","","","","clear_screen","null","null","","","critical","t","d","c","164","240","158.0083","227.1683","240","164","spektor","0.09","h","164","240","240","164","158.0083","227.1683","39360","39360","35894.4834","tc","null","null","null","null","null","null","[1,3]","487.19139626344247","117.66690535958571","495.0025193615785"
"","canvas-keyboard-response","239","213928","0.0-6.0-2.33","541","","","","","rectangles no change","null","null","","","critical","t","d","c","164","240","158.0083","227.1683","240","164","spektor","0.09","h","164","240","240","164","158.0083","227.1683","39360","39360","35894.4834","tc","null","null","null","null","null","null","[1,3]","487.19139626344247","117.66690535958571","495.0025193615785"
"","canvas-keyboard-response","240","215263","0.0-6.0-3.33","541","","","","","rectangles with change","null","null","","","critical","t","d","c","164","240","158.0083","227.1683","240","164","spektor","0.09","h","164","240","240","164","158.0083","227.1683","39360","39360","35894.4834","tc","null","null","null","null","null","null","[1,3]","487.19139626344247","117.66690535958571","495.0025193615785"
"","canvas-keyboard-response","241","215282","0.0-6.0-4.33","541","","","","","clear_screen","null","null","","","critical","t","d","c","164","240","158.0083","227.1683","240","164","spektor","0.09","h","164","240","240","164","158.0083","227.1683","39360","39360","35894.4834","tc","null","null","null","null","null","null","[1,3]","487.19139626344247","117.66690535958571","495.0025193615785"
"","canvas-keyboard-response","242","215555","0.0-6.0-5.33","541","","","","","make choice","265","3","","","critical","t","d","c","164","240","158.0083","227.1683","240","164","spektor","0.09","h","164","240","240","164","158.0083","227.1683","39360","39360","35894.4834","tc","null","null","null","null","null","null","[1,3]","","",""
"","canvas-keyboard-response","243","215574","0.0-6.0-6.33","541","","","","","clear_screen","null","null","","","critical","t","d","c","164","240","158.0083","227.1683","240","164","spektor","0.09","h","164","240","240","164","158.0083","227.1683","39360","39360","35894.4834","tc","null","null","null","null","null","null","[1,3]","","",""
"","canvas-keyboard-response","244","215775","0.0-6.0-0.34","541","","","","","pre trial waiting period","null","null","","","catch","sh","sw","l","181","196","205","190","288","181","spektor","null","null","null","null","null","null","null","null","null","null","null","","180","200","260","200","36000","52000","[2,3]","505.84043815471705","154.22692794759215","514.0824872503108"
"","canvas-keyboard-response","245","215794","0.0-6.0-1.34","541","","","","","clear_screen","null","null","","","catch","sh","sw","l","181","196","205","190","288","181","spektor","null","null","null","null","null","null","null","null","null","null","null","","180","200","260","200","36000","52000","[2,3]","505.84043815471705","154.22692794759215","514.0824872503108"
"","canvas-keyboard-response","246","216306","0.0-6.0-2.34","541","","","","","rectangles no change","null","null","","","catch","sh","sw","l","181","196","205","190","288","181","spektor","null","null","null","null","null","null","null","null","null","null","null","","180","200","260","200","36000","52000","[2,3]","505.84043815471705","154.22692794759215","514.0824872503108"
"","canvas-keyboard-response","247","217643","0.0-6.0-3.34","541","","","","","rectangles with change","null","null","","","catch","sh","sw","l","181","196","205","190","288","181","spektor","null","null","null","null","null","null","null","null","null","null","null","","180","200","260","200","36000","52000","[2,3]","505.84043815471705","154.22692794759215","514.0824872503108"
"","canvas-keyboard-response","248","217661","0.0-6.0-4.34","541","","","","","clear_screen","null","null","","","catch","sh","sw","l","181","196","205","190","288","181","spektor","null","null","null","null","null","null","null","null","null","null","null","","180","200","260","200","36000","52000","[2,3]","505.84043815471705","154.22692794759215","514.0824872503108"
"","canvas-keyboard-response","249","218324","0.0-6.0-5.34","541","","","","","make choice","651","3","","","catch","sh","sw","l","181","196","205","190","288","181","spektor","null","null","null","null","null","null","null","null","null","null","null","","180","200","260","200","36000","52000","[2,3]","","",""
"","canvas-keyboard-response","250","218342","0.0-6.0-6.34","541","","","","","clear_screen","null","null","","","catch","sh","sw","l","181","196","205","190","288","181","spektor","null","null","null","null","null","null","null","null","null","null","null","","180","200","260","200","36000","52000","[2,3]","","",""
"","canvas-keyboard-response","251","218544","0.0-6.0-0.35","541","","","","","pre trial waiting period","null","null","","","critical","d","c","t","162.6685","237.1485","240","164","164","240","spektor","0.02","h","164","240","240","164","162.6685","237.1485","39360","39360","38576.5967","td","null","null","null","null","null","null","[3,1]","466.3881574612196","148.22840404469156","470.5177666279834"
"","canvas-keyboard-response","252","218563","0.0-6.0-1.35","541","","","","","clear_screen","null","null","","","critical","d","c","t","162.6685","237.1485","240","164","164","240","spektor","0.02","h","164","240","240","164","162.6685","237.1485","39360","39360","38576.5967","td","null","null","null","null","null","null","[3,1]","466.3881574612196","148.22840404469156","470.5177666279834"
"","canvas-keyboard-response","253","219073","0.0-6.0-2.35","541","","","","","rectangles no change","null","null","","","critical","d","c","t","162.6685","237.1485","240","164","164","240","spektor","0.02","h","164","240","240","164","162.6685","237.1485","39360","39360","38576.5967","td","null","null","null","null","null","null","[3,1]","466.3881574612196","148.22840404469156","470.5177666279834"
"","canvas-keyboard-response","254","220409","0.0-6.0-3.35","541","","","","","rectangles with change","null","null","","","critical","d","c","t","162.6685","237.1485","240","164","164","240","spektor","0.02","h","164","240","240","164","162.6685","237.1485","39360","39360","38576.5967","td","null","null","null","null","null","null","[3,1]","466.3881574612196","148.22840404469156","470.5177666279834"
"","canvas-keyboard-response","255","220428","0.0-6.0-4.35","541","","","","","clear_screen","null","null","","","critical","d","c","t","162.6685","237.1485","240","164","164","240","spektor","0.02","h","164","240","240","164","162.6685","237.1485","39360","39360","38576.5967","td","null","null","null","null","null","null","[3,1]","466.3881574612196","148.22840404469156","470.5177666279834"
"","canvas-keyboard-response","256","223604","0.0-6.0-5.35","541","","","","","make choice","3167","1","","","critical","d","c","t","162.6685","237.1485","240","164","164","240","spektor","0.02","h","164","240","240","164","162.6685","237.1485","39360","39360","38576.5967","td","null","null","null","null","null","null","[3,1]","","",""
"","canvas-keyboard-response","257","223626","0.0-6.0-6.35","541","","","","","clear_screen","null","null","","","critical","d","c","t","162.6685","237.1485","240","164","164","240","spektor","0.02","h","164","240","240","164","162.6685","237.1485","39360","39360","38576.5967","td","null","null","null","null","null","null","[3,1]","","",""
"","canvas-keyboard-response","258","223829","0.0-6.0-0.36","541","","","","","pre trial waiting period","null","null","","","critical","c","t","d","164","240","240","164","237.1485","162.6685","spektor","0.02","w","240","164","164","240","237.1485","162.6685","39360","39360","38576.5967","dc","null","null","null","null","null","null","[3,1]","502.0863573148305","178.49427083242716","506.6726968925773"
"","canvas-keyboard-response","259","223851","0.0-6.0-1.36","541","","","","","clear_screen","null","null","","","critical","c","t","d","164","240","240","164","237.1485","162.6685","spektor","0.02","w","240","164","164","240","237.1485","162.6685","39360","39360","38576.5967","dc","null","null","null","null","null","null","[3,1]","502.0863573148305","178.49427083242716","506.6726968925773"
"","canvas-keyboard-response","260","224364","0.0-6.0-2.36","541","","","","","rectangles no change","null","null","","","critical","c","t","d","164","240","240","164","237.1485","162.6685","spektor","0.02","w","240","164","164","240","237.1485","162.6685","39360","39360","38576.5967","dc","null","null","null","null","null","null","[3,1]","502.0863573148305","178.49427083242716","506.6726968925773"
"","canvas-keyboard-response","261","225700","0.0-6.0-3.36","541","","","","","rectangles with change","null","null","","","critical","c","t","d","164","240","240","164","237.1485","162.6685","spektor","0.02","w","240","164","164","240","237.1485","162.6685","39360","39360","38576.5967","dc","null","null","null","null","null","null","[3,1]","502.0863573148305","178.49427083242716","506.6726968925773"
"","canvas-keyboard-response","262","225719","0.0-6.0-4.36","541","","","","","clear_screen","null","null","","","critical","c","t","d","164","240","240","164","237.1485","162.6685","spektor","0.02","w","240","164","164","240","237.1485","162.6685","39360","39360","38576.5967","dc","null","null","null","null","null","null","[3,1]","502.0863573148305","178.49427083242716","506.6726968925773"
"","canvas-keyboard-response","263","228380","0.0-6.0-5.36","541","","","","","make choice","2651","1","","","critical","c","t","d","164","240","240","164","237.1485","162.6685","spektor","0.02","w","240","164","164","240","237.1485","162.6685","39360","39360","38576.5967","dc","null","null","null","null","null","null","[3,1]","","",""
"","canvas-keyboard-response","264","228399","0.0-6.0-6.36","541","","","","","clear_screen","null","null","","","critical","c","t","d","164","240","240","164","237.1485","162.6685","spektor","0.02","w","240","164","164","240","237.1485","162.6685","39360","39360","38576.5967","dc","null","null","null","null","null","null","[3,1]","","",""
"","canvas-keyboard-response","265","228601","0.0-6.0-0.37","541","","","","","pre trial waiting period","null","null","","","critical","d","c","t","240","164","164","240","240","164","spektor","0","w","240","164","164","240","240","164","39360","39360","39360","dc","null","null","null","null","null","null","[1,2]","506.09486511685293","151.6336263835323","527.5716554869625"
"","canvas-keyboard-response","266","228621","0.0-6.0-1.37","541","","","","","clear_screen","null","null","","","critical","d","c","t","240","164","164","240","240","164","spektor","0","w","240","164","164","240","240","164","39360","39360","39360","dc","null","null","null","null","null","null","[1,2]","506.09486511685293","151.6336263835323","527.5716554869625"
"","canvas-keyboard-response","267","229134","0.0-6.0-2.37","541","","","","","rectangles no change","null","null","","","critical","d","c","t","240","164","164","240","240","164","spektor","0","w","240","164","164","240","240","164","39360","39360","39360","dc","null","null","null","null","null","null","[1,2]","506.09486511685293","151.6336263835323","527.5716554869625"
