"success","trial_type","trial_index","time_elapsed","internal_node_id","sub_n","timeout","failed_images","failed_audio","failed_video","screen_id","rt","response","stimulus","view_history","trial","r1","r2","r3","w1","h1","w2","h2","w3","h3","display","tdd","tdo","tw","th","cw","ch","dw","dh","ta","ca","da","probe","csls","csss","clls","clss","sa","la","probe_rects","r1yloc","r2yloc","r3yloc"
"true","fullscreen","0","2051","0.0-0.0","569","","","","","","","","","","","","","","","","","","","","","","","","","","","","","","","","","","","","","","","","","",""
"true","preload","1","2067","0.0-1.0","569","false","[]","[]","[]","img preload","","","","","","","","","","","","","","","","","","","","","","","","","","","","","","","","","","","","",""
"","survey-html-form","2","4191","0.0-2.0","569","","","","","enter-sub-number","2115","{""response"":""569""}","","","","","","","","","","","","","","","","","","","","","","","","","","","","","","","","","","",""
"","image-button-response","3","10343","0.0-3.0","569","","","","","","6081","0","consent.png","","","","","","","","","","","","","","","","","","","","","","","","","","","","","","","","","",""
"","html-button-response","4","23278","0.0-4.0","569","","","","","intro mssg","12930","0","<div style= ""font-size:25px;"" <p> <strong> Welcome! </strong><br> <p style=""color:#8B0000; font-size:25px;""><strong> Please do NOT exit full screen until you are done with the experiment. </strong> </p><p style=""font-size:25px;color:#8B0000;""> <strong> Your data will be lost <br> if you try to go back or refresh the page after the experiment starts. Feel free to click ""previous"" during the instructions, however.</strong> </p><br><p> <strong> Thanks in advance for your contribution to our research! </strong></p>","","","","","","","","","","","","","","","","","","","","","","","","","","","","","","","","","",""
"","instructions","5","70391","0.0-5.0","569","","","","","instructions","47108","","","[{""page_index"":0,""viewing_time"":6370},{""page_index"":1,""viewing_time"":11633},{""page_index"":2,""viewing_time"":3432},{""page_index"":3,""viewing_time"":13183},{""page_index"":4,""viewing_time"":5185},{""page_index"":5,""viewing_time"":2273},{""page_index"":6,""viewing_time"":3295},{""page_index"":7,""viewing_time"":1736}]","","","","","","","","","","","","","","","","","","","","","","","","","","","","","","","","",""
"","canvas-keyboard-response","6","70595","0.0-6.0-0.0","569","","","","","pre trial waiting period","null","null","","","catch","sw","l","sh","180","200","210","254","196","192","spektor","null","null","null","null","null","null","null","null","null","null","null","","180","200","260","200","36000","52000","[1,2]","519.42345581997","117.10051448309954","518.3923538345216"
"","canvas-keyboard-response","7","70617","0.0-6.0-1.0","569","","","","","clear_screen","null","null","","","catch","sw","l","sh","180","200","210","254","196","192","spektor","null","null","null","null","null","null","null","null","null","null","null","","180","200","260","200","36000","52000","[1,2]","519.42345581997","117.10051448309954","518.3923538345216"
"","canvas-keyboard-response","8","71126","0.0-6.0-2.0","569","","","","","rectangles no change","null","null","","","catch","sw","l","sh","180","200","210","254","196","192","spektor","null","null","null","null","null","null","null","null","null","null","null","","180","200","260","200","36000","52000","[1,2]","519.42345581997","117.10051448309954","518.3923538345216"
"","canvas-keyboard-response","9","72466","0.0-6.0-3.0","569","","","","","rectangles with change","null","null","","","catch","sw","l","sh","180","200","210","254","196","192","spektor","null","null","null","null","null","null","null","null","null","null","null","","180","200","260","200","36000","52000","[1,2]","519.42345581997","117.10051448309954","518.3923538345216"
"","canvas-keyboard-response","10","72484","0.0-6.0-4.0","569","","","","","clear_screen","null","null","","","catch","sw","l","sh","180","200","210","254","196","192","spektor","null","null","null","null","null","null","null","null","null","null","null","","180","200","260","200","36000","52000","[1,2]","519.42345581997","117.10051448309954","518.3923538345216"
"","canvas-keyboard-response","11","78142","0.0-6.0-5.0","569","","","","","make choice","5651","1","","","catch","sw","l","sh","180","200","210","254","196","192","spektor","null","null","null","null","null","null","null","null","null","null","null","","180","200","260","200","36000","52000","[1,2]","","",""
"","canvas-keyboard-response","12","78158","0.0-6.0-6.0","569","","","","","clear_screen","null","null","","","catch","sw","l","sh","180","200","210","254","196","192","spektor","null","null","null","null","null","null","null","null","null","null","null","","180","200","260","200","36000","52000","[1,2]","","",""
"","canvas-keyboard-response","13","78359","0.0-6.0-0.1","569","","","","","pre trial waiting period","null","null","","","catch","l","sw","sh","230","248","143","227","189","211","spektor","null","null","null","null","null","null","null","null","null","null","null","","180","200","260","200","36000","52000","[1,2]","471.45704379633924","112.0922850559164","505.44781321941787"
"","canvas-keyboard-response","14","78380","0.0-6.0-1.1","569","","","","","clear_screen","null","null","","","catch","l","sw","sh","230","248","143","227","189","211","spektor","null","null","null","null","null","null","null","null","null","null","null","","180","200","260","200","36000","52000","[1,2]","471.45704379633924","112.0922850559164","505.44781321941787"
"","canvas-keyboard-response","15","78889","0.0-6.0-2.1","569","","","","","rectangles no change","null","null","","","catch","l","sw","sh","230","248","143","227","189","211","spektor","null","null","null","null","null","null","null","null","null","null","null","","180","200","260","200","36000","52000","[1,2]","471.45704379633924","112.0922850559164","505.44781321941787"
"","canvas-keyboard-response","16","80228","0.0-6.0-3.1","569","","","","","rectangles with change","null","null","","","catch","l","sw","sh","230","248","143","227","189","211","spektor","null","null","null","null","null","null","null","null","null","null","null","","180","200","260","200","36000","52000","[1,2]","471.45704379633924","112.0922850559164","505.44781321941787"
"","canvas-keyboard-response","17","80248","0.0-6.0-4.1","569","","","","","clear_screen","null","null","","","catch","l","sw","sh","230","248","143","227","189","211","spektor","null","null","null","null","null","null","null","null","null","null","null","","180","200","260","200","36000","52000","[1,2]","471.45704379633924","112.0922850559164","505.44781321941787"
"","canvas-keyboard-response","18","83044","0.0-6.0-5.1","569","","","","","make choice","2789","1","","","catch","l","sw","sh","230","248","143","227","189","211","spektor","null","null","null","null","null","null","null","null","null","null","null","","180","200","260","200","36000","52000","[1,2]","","",""
"","canvas-keyboard-response","19","83062","0.0-6.0-6.1","569","","","","","clear_screen","null","null","","","catch","l","sw","sh","230","248","143","227","189","211","spektor","null","null","null","null","null","null","null","null","null","null","null","","180","200","260","200","36000","52000","[1,2]","","",""
"","canvas-keyboard-response","20","83263","0.0-6.0-0.2","569","","","","","pre trial waiting period","null","null","","","critical","t","d","c","240","164","227.1683","158.0083","164","240","trueblood","0.09","w","240","164","164","240","227.1683","158.0083","39360","39360","35894.4834","td","null","null","null","null","null","null","[1,2]","489.61697425423984","498.2516988092591","439.67573046111477"
"","canvas-keyboard-response","21","83284","0.0-6.0-1.2","569","","","","","clear_screen","null","null","","","critical","t","d","c","240","164","227.1683","158.0083","164","240","trueblood","0.09","w","240","164","164","240","227.1683","158.0083","39360","39360","35894.4834","td","null","null","null","null","null","null","[1,2]","489.61697425423984","498.2516988092591","439.67573046111477"
"","canvas-keyboard-response","22","83791","0.0-6.0-2.2","569","","","","","rectangles no change","null","null","","","critical","t","d","c","240","164","227.1683","158.0083","164","240","trueblood","0.09","w","240","164","164","240","227.1683","158.0083","39360","39360","35894.4834","td","null","null","null","null","null","null","[1,2]","489.61697425423984","498.2516988092591","439.67573046111477"
"","canvas-keyboard-response","23","85126","0.0-6.0-3.2","569","","","","","rectangles with change","null","null","","","critical","t","d","c","240","164","227.1683","158.0083","164","240","trueblood","0.09","w","240","164","164","240","227.1683","158.0083","39360","39360","35894.4834","td","null","null","null","null","null","null","[1,2]","489.61697425423984","498.2516988092591","439.67573046111477"
"","canvas-keyboard-response","24","85145","0.0-6.0-4.2","569","","","","","clear_screen","null","null","","","critical","t","d","c","240","164","227.1683","158.0083","164","240","trueblood","0.09","w","240","164","164","240","227.1683","158.0083","39360","39360","35894.4834","td","null","null","null","null","null","null","[1,2]","489.61697425423984","498.2516988092591","439.67573046111477"
"","canvas-keyboard-response","25","87053","0.0-6.0-5.2","569","","","","","make choice","1901","1","","","critical","t","d","c","240","164","227.1683","158.0083","164","240","trueblood","0.09","w","240","164","164","240","227.1683","158.0083","39360","39360","35894.4834","td","null","null","null","null","null","null","[1,2]","","",""
"","canvas-keyboard-response","26","87070","0.0-6.0-6.2","569","","","","","clear_screen","null","null","","","critical","t","d","c","240","164","227.1683","158.0083","164","240","trueblood","0.09","w","240","164","164","240","227.1683","158.0083","39360","39360","35894.4834","td","null","null","null","null","null","null","[1,2]","","",""
"","canvas-keyboard-response","27","87272","0.0-6.0-0.3","569","","","","","pre trial waiting period","null","null","","","critical","c","d","t","240","164","164","240","164","240","trueblood","0","h","164","240","240","164","164","240","39360","39360","39360","tc","null","null","null","null","null","null","[3,1]","491.7059388830343","450.93715765865613","444.97835779750704"
"","canvas-keyboard-response","28","87294","0.0-6.0-1.3","569","","","","","clear_screen","null","null","","","critical","c","d","t","240","164","164","240","164","240","trueblood","0","h","164","240","240","164","164","240","39360","39360","39360","tc","null","null","null","null","null","null","[3,1]","491.7059388830343","450.93715765865613","444.97835779750704"
"","canvas-keyboard-response","29","87804","0.0-6.0-2.3","569","","","","","rectangles no change","null","null","","","critical","c","d","t","240","164","164","240","164","240","trueblood","0","h","164","240","240","164","164","240","39360","39360","39360","tc","null","null","null","null","null","null","[3,1]","491.7059388830343","450.93715765865613","444.97835779750704"
"","canvas-keyboard-response","30","89139","0.0-6.0-3.3","569","","","","","rectangles with change","null","null","","","critical","c","d","t","240","164","164","240","164","240","trueblood","0","h","164","240","240","164","164","240","39360","39360","39360","tc","null","null","null","null","null","null","[3,1]","491.7059388830343","450.93715765865613","444.97835779750704"
"","canvas-keyboard-response","31","89159","0.0-6.0-4.3","569","","","","","clear_screen","null","null","","","critical","c","d","t","240","164","164","240","164","240","trueblood","0","h","164","240","240","164","164","240","39360","39360","39360","tc","null","null","null","null","null","null","[3,1]","491.7059388830343","450.93715765865613","444.97835779750704"
"","canvas-keyboard-response","32","90579","0.0-6.0-5.3","569","","","","","make choice","1414","3","","","critical","c","d","t","240","164","164","240","164","240","trueblood","0","h","164","240","240","164","164","240","39360","39360","39360","tc","null","null","null","null","null","null","[3,1]","","",""
"","canvas-keyboard-response","33","90596","0.0-6.0-6.3","569","","","","","clear_screen","null","null","","","critical","c","d","t","240","164","164","240","164","240","trueblood","0","h","164","240","240","164","164","240","39360","39360","39360","tc","null","null","null","null","null","null","[3,1]","","",""
"","canvas-keyboard-response","34","90798","0.0-6.0-0.4","569","","","","","pre trial waiting period","null","null","","","critical","d","t","c","232.8713","160.6713","240","164","164","240","spektor","0.05","w","240","164","164","240","232.8713","160.6713","39360","39360","37415.7294","td","null","null","null","null","null","null","[2,1]","512.7919510808287","208.39716574818328","503.9954624100515"
"","canvas-keyboard-response","35","90822","0.0-6.0-1.4","569","","","","","clear_screen","null","null","","","critical","d","t","c","232.8713","160.6713","240","164","164","240","spektor","0.05","w","240","164","164","240","232.8713","160.6713","39360","39360","37415.7294","td","null","null","null","null","null","null","[2,1]","512.7919510808287","208.39716574818328","503.9954624100515"
"","canvas-keyboard-response","36","91329","0.0-6.0-2.4","569","","","","","rectangles no change","null","null","","","critical","d","t","c","232.8713","160.6713","240","164","164","240","spektor","0.05","w","240","164","164","240","232.8713","160.6713","39360","39360","37415.7294","td","null","null","null","null","null","null","[2,1]","512.7919510808287","208.39716574818328","503.9954624100515"
"","canvas-keyboard-response","37","92667","0.0-6.0-3.4","569","","","","","rectangles with change","null","null","","","critical","d","t","c","232.8713","160.6713","240","164","164","240","spektor","0.05","w","240","164","164","240","232.8713","160.6713","39360","39360","37415.7294","td","null","null","null","null","null","null","[2,1]","512.7919510808287","208.39716574818328","503.9954624100515"
"","canvas-keyboard-response","38","92687","0.0-6.0-4.4","569","","","","","clear_screen","null","null","","","critical","d","t","c","232.8713","160.6713","240","164","164","240","spektor","0.05","w","240","164","164","240","232.8713","160.6713","39360","39360","37415.7294","td","null","null","null","null","null","null","[2,1]","512.7919510808287","208.39716574818328","503.9954624100515"
"","canvas-keyboard-response","39","95422","0.0-6.0-5.4","569","","","","","make choice","2730","1","","","critical","d","t","c","232.8713","160.6713","240","164","164","240","spektor","0.05","w","240","164","164","240","232.8713","160.6713","39360","39360","37415.7294","td","null","null","null","null","null","null","[2,1]","","",""
"","canvas-keyboard-response","40","95440","0.0-6.0-6.4","569","","","","","clear_screen","null","null","","","critical","d","t","c","232.8713","160.6713","240","164","164","240","spektor","0.05","w","240","164","164","240","232.8713","160.6713","39360","39360","37415.7294","td","null","null","null","null","null","null","[2,1]","","",""
"","canvas-keyboard-response","41","95640","0.0-6.0-0.5","569","","","","","pre trial waiting period","null","null","","","critical","d","c","t","154.6796","220.0396","240","164","164","240","trueblood","0.14","h","164","240","240","164","154.6796","220.0396","39360","39360","34035.6388","tc","null","null","null","null","null","null","[3,2]","453.79863020165413","497.4919472540486","425.61391436421553"
"","canvas-keyboard-response","42","95660","0.0-6.0-1.5","569","","","","","clear_screen","null","null","","","critical","d","c","t","154.6796","220.0396","240","164","164","240","trueblood","0.14","h","164","240","240","164","154.6796","220.0396","39360","39360","34035.6388","tc","null","null","null","null","null","null","[3,2]","453.79863020165413","497.4919472540486","425.61391436421553"
"","canvas-keyboard-response","43","96169","0.0-6.0-2.5","569","","","","","rectangles no change","null","null","","","critical","d","c","t","154.6796","220.0396","240","164","164","240","trueblood","0.14","h","164","240","240","164","154.6796","220.0396","39360","39360","34035.6388","tc","null","null","null","null","null","null","[3,2]","453.79863020165413","497.4919472540486","425.61391436421553"
"","canvas-keyboard-response","44","97505","0.0-6.0-3.5","569","","","","","rectangles with change","null","null","","","critical","d","c","t","154.6796","220.0396","240","164","164","240","trueblood","0.14","h","164","240","240","164","154.6796","220.0396","39360","39360","34035.6388","tc","null","null","null","null","null","null","[3,2]","453.79863020165413","497.4919472540486","425.61391436421553"
"","canvas-keyboard-response","45","97526","0.0-6.0-4.5","569","","","","","clear_screen","null","null","","","critical","d","c","t","154.6796","220.0396","240","164","164","240","trueblood","0.14","h","164","240","240","164","154.6796","220.0396","39360","39360","34035.6388","tc","null","null","null","null","null","null","[3,2]","453.79863020165413","497.4919472540486","425.61391436421553"
"","canvas-keyboard-response","46","99197","0.0-6.0-5.5","569","","","","","make choice","1666","3","","","critical","d","c","t","154.6796","220.0396","240","164","164","240","trueblood","0.14","h","164","240","240","164","154.6796","220.0396","39360","39360","34035.6388","tc","null","null","null","null","null","null","[3,2]","","",""
"","canvas-keyboard-response","47","99215","0.0-6.0-6.5","569","","","","","clear_screen","null","null","","","critical","d","c","t","154.6796","220.0396","240","164","164","240","trueblood","0.14","h","164","240","240","164","154.6796","220.0396","39360","39360","34035.6388","tc","null","null","null","null","null","null","[3,2]","","",""
"","canvas-keyboard-response","48","99417","0.0-6.0-0.6","569","","","","","pre trial waiting period","null","null","","","critical","c","t","d","164","240","240","164","220.0396","154.6796","spektor","0.14","w","240","164","164","240","220.0396","154.6796","39360","39360","34035.6388","dc","null","null","null","null","null","null","[3,1]","479.60018568656943","206.9473724088653","509.62984193354526"
"","canvas-keyboard-response","49","99438","0.0-6.0-1.6","569","","","","","clear_screen","null","null","","","critical","c","t","d","164","240","240","164","220.0396","154.6796","spektor","0.14","w","240","164","164","240","220.0396","154.6796","39360","39360","34035.6388","dc","null","null","null","null","null","null","[3,1]","479.60018568656943","206.9473724088653","509.62984193354526"
"","canvas-keyboard-response","50","99946","0.0-6.0-2.6","569","","","","","rectangles no change","null","null","","","critical","c","t","d","164","240","240","164","220.0396","154.6796","spektor","0.14","w","240","164","164","240","220.0396","154.6796","39360","39360","34035.6388","dc","null","null","null","null","null","null","[3,1]","479.60018568656943","206.9473724088653","509.62984193354526"
"","canvas-keyboard-response","51","101283","0.0-6.0-3.6","569","","","","","rectangles with change","null","null","","","critical","c","t","d","164","240","240","164","220.0396","154.6796","spektor","0.14","w","240","164","164","240","220.0396","154.6796","39360","39360","34035.6388","dc","null","null","null","null","null","null","[3,1]","479.60018568656943","206.9473724088653","509.62984193354526"
"","canvas-keyboard-response","52","101301","0.0-6.0-4.6","569","","","","","clear_screen","null","null","","","critical","c","t","d","164","240","240","164","220.0396","154.6796","spektor","0.14","w","240","164","164","240","220.0396","154.6796","39360","39360","34035.6388","dc","null","null","null","null","null","null","[3,1]","479.60018568656943","206.9473724088653","509.62984193354526"
"","canvas-keyboard-response","53","103124","0.0-6.0-5.6","569","","","","","make choice","1817","3","","","critical","c","t","d","164","240","240","164","220.0396","154.6796","spektor","0.14","w","240","164","164","240","220.0396","154.6796","39360","39360","34035.6388","dc","null","null","null","null","null","null","[3,1]","","",""
"","canvas-keyboard-response","54","103142","0.0-6.0-6.6","569","","","","","clear_screen","null","null","","","critical","c","t","d","164","240","240","164","220.0396","154.6796","spektor","0.14","w","240","164","164","240","220.0396","154.6796","39360","39360","34035.6388","dc","null","null","null","null","null","null","[3,1]","","",""
"","canvas-keyboard-response","55","103343","0.0-6.0-0.7","569","","","","","pre trial waiting period","null","null","","","critical","t","d","c","240","164","240","164","164","240","spektor","0","w","240","164","164","240","240","164","39360","39360","39360","tc","null","null","null","null","null","null","[1,3]","525.1899335193632","166.41465416822655","480.2900446084007"
"","canvas-keyboard-response","56","103363","0.0-6.0-1.7","569","","","","","clear_screen","null","null","","","critical","t","d","c","240","164","240","164","164","240","spektor","0","w","240","164","164","240","240","164","39360","39360","39360","tc","null","null","null","null","null","null","[1,3]","525.1899335193632","166.41465416822655","480.2900446084007"
"","canvas-keyboard-response","57","103870","0.0-6.0-2.7","569","","","","","rectangles no change","null","null","","","critical","t","d","c","240","164","240","164","164","240","spektor","0","w","240","164","164","240","240","164","39360","39360","39360","tc","null","null","null","null","null","null","[1,3]","525.1899335193632","166.41465416822655","480.2900446084007"
"","canvas-keyboard-response","58","105208","0.0-6.0-3.7","569","","","","","rectangles with change","null","null","","","critical","t","d","c","240","164","240","164","164","240","spektor","0","w","240","164","164","240","240","164","39360","39360","39360","tc","null","null","null","null","null","null","[1,3]","525.1899335193632","166.41465416822655","480.2900446084007"
"","canvas-keyboard-response","59","105228","0.0-6.0-4.7","569","","","","","clear_screen","null","null","","","critical","t","d","c","240","164","240","164","164","240","spektor","0","w","240","164","164","240","240","164","39360","39360","39360","tc","null","null","null","null","null","null","[1,3]","525.1899335193632","166.41465416822655","480.2900446084007"
"","canvas-keyboard-response","60","108373","0.0-6.0-5.7","569","","","","","make choice","3138","1","","","critical","t","d","c","240","164","240","164","164","240","spektor","0","w","240","164","164","240","240","164","39360","39360","39360","tc","null","null","null","null","null","null","[1,3]","","",""
"","canvas-keyboard-response","61","108390","0.0-6.0-6.7","569","","","","","clear_screen","null","null","","","critical","t","d","c","240","164","240","164","164","240","spektor","0","w","240","164","164","240","240","164","39360","39360","39360","tc","null","null","null","null","null","null","[1,3]","","",""
"","canvas-keyboard-response","62","108592","0.0-6.0-0.8","569","","","","","pre trial waiting period","null","null","","","catch","sw","sh","l","180","200","224","140","292","166","spektor","null","null","null","null","null","null","null","null","null","null","null","","180","200","260","200","36000","52000","[2,3]","498.0835081120788","206.31229619034505","508.6487750475855"
"","canvas-keyboard-response","63","108612","0.0-6.0-1.8","569","","","","","clear_screen","null","null","","","catch","sw","sh","l","180","200","224","140","292","166","spektor","null","null","null","null","null","null","null","null","null","null","null","","180","200","260","200","36000","52000","[2,3]","498.0835081120788","206.31229619034505","508.6487750475855"
"","canvas-keyboard-response","64","109119","0.0-6.0-2.8","569","","","","","rectangles no change","null","null","","","catch","sw","sh","l","180","200","224","140","292","166","spektor","null","null","null","null","null","null","null","null","null","null","null","","180","200","260","200","36000","52000","[2,3]","498.0835081120788","206.31229619034505","508.6487750475855"
"","canvas-keyboard-response","65","110454","0.0-6.0-3.8","569","","","","","rectangles with change","null","null","","","catch","sw","sh","l","180","200","224","140","292","166","spektor","null","null","null","null","null","null","null","null","null","null","null","","180","200","260","200","36000","52000","[2,3]","498.0835081120788","206.31229619034505","508.6487750475855"
"","canvas-keyboard-response","66","110476","0.0-6.0-4.8","569","","","","","clear_screen","null","null","","","catch","sw","sh","l","180","200","224","140","292","166","spektor","null","null","null","null","null","null","null","null","null","null","null","","180","200","260","200","36000","52000","[2,3]","498.0835081120788","206.31229619034505","508.6487750475855"
"","canvas-keyboard-response","67","111613","0.0-6.0-5.8","569","","","","","make choice","1133","3","","","catch","sw","sh","l","180","200","224","140","292","166","spektor","null","null","null","null","null","null","null","null","null","null","null","","180","200","260","200","36000","52000","[2,3]","","",""
"","canvas-keyboard-response","68","111629","0.0-6.0-6.8","569","","","","","clear_screen","null","null","","","catch","sw","sh","l","180","200","224","140","292","166","spektor","null","null","null","null","null","null","null","null","null","null","null","","180","200","260","200","36000","52000","[2,3]","","",""
"","canvas-keyboard-response","69","111830","0.0-6.0-0.9","569","","","","","pre trial waiting period","null","null","","","catch","sw","sh","l","180","200","182","172","235","276","spektor","null","null","null","null","null","null","null","null","null","null","null","","180","200","260","200","36000","52000","[1,3]","490.2226230901983","170.7343615822196","456.54311838130593"
"","canvas-keyboard-response","70","111851","0.0-6.0-1.9","569","","","","","clear_screen","null","null","","","catch","sw","sh","l","180","200","182","172","235","276","spektor","null","null","null","null","null","null","null","null","null","null","null","","180","200","260","200","36000","52000","[1,3]","490.2226230901983","170.7343615822196","456.54311838130593"
"","canvas-keyboard-response","71","112355","0.0-6.0-2.9","569","","","","","rectangles no change","null","null","","","catch","sw","sh","l","180","200","182","172","235","276","spektor","null","null","null","null","null","null","null","null","null","null","null","","180","200","260","200","36000","52000","[1,3]","490.2226230901983","170.7343615822196","456.54311838130593"
"","canvas-keyboard-response","72","113694","0.0-6.0-3.9","569","","","","","rectangles with change","null","null","","","catch","sw","sh","l","180","200","182","172","235","276","spektor","null","null","null","null","null","null","null","null","null","null","null","","180","200","260","200","36000","52000","[1,3]","490.2226230901983","170.7343615822196","456.54311838130593"
"","canvas-keyboard-response","73","113715","0.0-6.0-4.9","569","","","","","clear_screen","null","null","","","catch","sw","sh","l","180","200","182","172","235","276","spektor","null","null","null","null","null","null","null","null","null","null","null","","180","200","260","200","36000","52000","[1,3]","490.2226230901983","170.7343615822196","456.54311838130593"
"","canvas-keyboard-response","74","114274","0.0-6.0-5.9","569","","","","","make choice","556","3","","","catch","sw","sh","l","180","200","182","172","235","276","spektor","null","null","null","null","null","null","null","null","null","null","null","","180","200","260","200","36000","52000","[1,3]","","",""
"","canvas-keyboard-response","75","114294","0.0-6.0-6.9","569","","","","","clear_screen","null","null","","","catch","sw","sh","l","180","200","182","172","235","276","spektor","null","null","null","null","null","null","null","null","null","null","null","","180","200","260","200","36000","52000","[1,3]","","",""
"","canvas-keyboard-response","76","114496","0.0-6.0-0.10","569","","","","","pre trial waiting period","null","null","","","critical","c","d","t","164","240","240","164","240","164","trueblood","0","w","240","164","164","240","240","164","39360","39360","39360","tc","null","null","null","null","null","null","[3,1]","458.445806866508","515.0274376893124","493.25090558156086"
"","canvas-keyboard-response","77","114518","0.0-6.0-1.10","569","","","","","clear_screen","null","null","","","critical","c","d","t","164","240","240","164","240","164","trueblood","0","w","240","164","164","240","240","164","39360","39360","39360","tc","null","null","null","null","null","null","[3,1]","458.445806866508","515.0274376893124","493.25090558156086"
"","canvas-keyboard-response","78","115026","0.0-6.0-2.10","569","","","","","rectangles no change","null","null","","","critical","c","d","t","164","240","240","164","240","164","trueblood","0","w","240","164","164","240","240","164","39360","39360","39360","tc","null","null","null","null","null","null","[3,1]","458.445806866508","515.0274376893124","493.25090558156086"
"","canvas-keyboard-response","79","116364","0.0-6.0-3.10","569","","","","","rectangles with change","null","null","","","critical","c","d","t","164","240","240","164","240","164","trueblood","0","w","240","164","164","240","240","164","39360","39360","39360","tc","null","null","null","null","null","null","[3,1]","458.445806866508","515.0274376893124","493.25090558156086"
"","canvas-keyboard-response","80","116381","0.0-6.0-4.10","569","","","","","clear_screen","null","null","","","critical","c","d","t","164","240","240","164","240","164","trueblood","0","w","240","164","164","240","240","164","39360","39360","39360","tc","null","null","null","null","null","null","[3,1]","458.445806866508","515.0274376893124","493.25090558156086"
"","canvas-keyboard-response","81","117339","0.0-6.0-5.10","569","","","","","make choice","953","3","","","critical","c","d","t","164","240","240","164","240","164","trueblood","0","w","240","164","164","240","240","164","39360","39360","39360","tc","null","null","null","null","null","null","[3,1]","","",""
"","canvas-keyboard-response","82","117357","0.0-6.0-6.10","569","","","","","clear_screen","null","null","","","critical","c","d","t","164","240","240","164","240","164","trueblood","0","w","240","164","164","240","240","164","39360","39360","39360","tc","null","null","null","null","null","null","[3,1]","","",""
"","canvas-keyboard-response","83","117559","0.0-6.0-0.11","569","","","","","pre trial waiting period","null","null","","","critical","c","d","t","164","240","237.1485","162.6685","240","164","spektor","0.02","w","240","164","164","240","237.1485","162.6685","39360","39360","38576.5967","td","null","null","null","null","null","null","[3,2]","478.0027795625534","186.7730639624931","516.5979216726461"
"","canvas-keyboard-response","84","117580","0.0-6.0-1.11","569","","","","","clear_screen","null","null","","","critical","c","d","t","164","240","237.1485","162.6685","240","164","spektor","0.02","w","240","164","164","240","237.1485","162.6685","39360","39360","38576.5967","td","null","null","null","null","null","null","[3,2]","478.0027795625534","186.7730639624931","516.5979216726461"
"","canvas-keyboard-response","85","118088","0.0-6.0-2.11","569","","","","","rectangles no change","null","null","","","critical","c","d","t","164","240","237.1485","162.6685","240","164","spektor","0.02","w","240","164","164","240","237.1485","162.6685","39360","39360","38576.5967","td","null","null","null","null","null","null","[3,2]","478.0027795625534","186.7730639624931","516.5979216726461"
"","canvas-keyboard-response","86","119426","0.0-6.0-3.11","569","","","","","rectangles with change","null","null","","","critical","c","d","t","164","240","237.1485","162.6685","240","164","spektor","0.02","w","240","164","164","240","237.1485","162.6685","39360","39360","38576.5967","td","null","null","null","null","null","null","[3,2]","478.0027795625534","186.7730639624931","516.5979216726461"
"","canvas-keyboard-response","87","119445","0.0-6.0-4.11","569","","","","","clear_screen","null","null","","","critical","c","d","t","164","240","237.1485","162.6685","240","164","spektor","0.02","w","240","164","164","240","237.1485","162.6685","39360","39360","38576.5967","td","null","null","null","null","null","null","[3,2]","478.0027795625534","186.7730639624931","516.5979216726461"
"","canvas-keyboard-response","88","121082","0.0-6.0-5.11","569","","","","","make choice","1632","2","","","critical","c","d","t","164","240","237.1485","162.6685","240","164","spektor","0.02","w","240","164","164","240","237.1485","162.6685","39360","39360","38576.5967","td","null","null","null","null","null","null","[3,2]","","",""
"","canvas-keyboard-response","89","121097","0.0-6.0-6.11","569","","","","","clear_screen","null","null","","","critical","c","d","t","164","240","237.1485","162.6685","240","164","spektor","0.02","w","240","164","164","240","237.1485","162.6685","39360","39360","38576.5967","td","null","null","null","null","null","null","[3,2]","","",""
"","canvas-keyboard-response","90","121299","0.0-6.0-0.12","569","","","","","pre trial waiting period","null","null","","","catch","l","sw","sh","280","233","162","202","160","193","trueblood","null","null","null","null","null","null","null","null","null","null","null","","180","200","260","200","36000","52000","[1,2]","464.67135056265533","488.648923611908","450.206235522871"
"","canvas-keyboard-response","91","121319","0.0-6.0-1.12","569","","","","","clear_screen","null","null","","","catch","l","sw","sh","280","233","162","202","160","193","trueblood","null","null","null","null","null","null","null","null","null","null","null","","180","200","260","200","36000","52000","[1,2]","464.67135056265533","488.648923611908","450.206235522871"
"","canvas-keyboard-response","92","121826","0.0-6.0-2.12","569","","","","","rectangles no change","null","null","","","catch","l","sw","sh","280","233","162","202","160","193","trueblood","null","null","null","null","null","null","null","null","null","null","null","","180","200","260","200","36000","52000","[1,2]","464.67135056265533","488.648923611908","450.206235522871"
"","canvas-keyboard-response","93","123161","0.0-6.0-3.12","569","","","","","rectangles with change","null","null","","","catch","l","sw","sh","280","233","162","202","160","193","trueblood","null","null","null","null","null","null","null","null","null","null","null","","180","200","260","200","36000","52000","[1,2]","464.67135056265533","488.648923611908","450.206235522871"
"","canvas-keyboard-response","94","123182","0.0-6.0-4.12","569","","","","","clear_screen","null","null","","","catch","l","sw","sh","280","233","162","202","160","193","trueblood","null","null","null","null","null","null","null","null","null","null","null","","180","200","260","200","36000","52000","[1,2]","464.67135056265533","488.648923611908","450.206235522871"
"","canvas-keyboard-response","95","124020","0.0-6.0-5.12","569","","","","","make choice","834","1","","","catch","l","sw","sh","280","233","162","202","160","193","trueblood","null","null","null","null","null","null","null","null","null","null","null","","180","200","260","200","36000","52000","[1,2]","","",""
"","canvas-keyboard-response","96","124036","0.0-6.0-6.12","569","","","","","clear_screen","null","null","","","catch","l","sw","sh","280","233","162","202","160","193","trueblood","null","null","null","null","null","null","null","null","null","null","null","","180","200","260","200","36000","52000","[1,2]","","",""
"","canvas-keyboard-response","97","124236","0.0-6.0-0.13","569","","","","","pre trial waiting period","null","null","","","catch","l","sh","sw","280","206","187","182","189","209","trueblood","null","null","null","null","null","null","null","null","null","null","null","","180","200","260","200","36000","52000","[1,2]","448.61598104041497","501.2836662776727","463.349729762951"
"","canvas-keyboard-response","98","124256","0.0-6.0-1.13","569","","","","","clear_screen","null","null","","","catch","l","sh","sw","280","206","187","182","189","209","trueblood","null","null","null","null","null","null","null","null","null","null","null","","180","200","260","200","36000","52000","[1,2]","448.61598104041497","501.2836662776727","463.349729762951"
"","canvas-keyboard-response","99","124763","0.0-6.0-2.13","569","","","","","rectangles no change","null","null","","","catch","l","sh","sw","280","206","187","182","189","209","trueblood","null","null","null","null","null","null","null","null","null","null","null","","180","200","260","200","36000","52000","[1,2]","448.61598104041497","501.2836662776727","463.349729762951"
"","canvas-keyboard-response","100","126099","0.0-6.0-3.13","569","","","","","rectangles with change","null","null","","","catch","l","sh","sw","280","206","187","182","189","209","trueblood","null","null","null","null","null","null","null","null","null","null","null","","180","200","260","200","36000","52000","[1,2]","448.61598104041497","501.2836662776727","463.349729762951"
"","canvas-keyboard-response","101","126113","0.0-6.0-4.13","569","","","","","clear_screen","null","null","","","catch","l","sh","sw","280","206","187","182","189","209","trueblood","null","null","null","null","null","null","null","null","null","null","null","","180","200","260","200","36000","52000","[1,2]","448.61598104041497","501.2836662776727","463.349729762951"
"","canvas-keyboard-response","102","126658","0.0-6.0-5.13","569","","","","","make choice","538","1","","","catch","l","sh","sw","280","206","187","182","189","209","trueblood","null","null","null","null","null","null","null","null","null","null","null","","180","200","260","200","36000","52000","[1,2]","","",""
"","canvas-keyboard-response","103","126677","0.0-6.0-6.13","569","","","","","clear_screen","null","null","","","catch","l","sh","sw","280","206","187","182","189","209","trueblood","null","null","null","null","null","null","null","null","null","null","null","","180","200","260","200","36000","52000","[1,2]","","",""
"","canvas-keyboard-response","104","126878","0.0-6.0-0.14","569","","","","","pre trial waiting period","null","null","","","critical","c","d","t","240","164","162.6685","237.1485","164","240","trueblood","0.02","h","164","240","240","164","162.6685","237.1485","39360","39360","38576.5967","dc","null","null","null","null","null","null","[2,1]","485.49360389443035","439.00532077453045","465.5984652647538"
"","canvas-keyboard-response","105","126900","0.0-6.0-1.14","569","","","","","clear_screen","null","null","","","critical","c","d","t","240","164","162.6685","237.1485","164","240","trueblood","0.02","h","164","240","240","164","162.6685","237.1485","39360","39360","38576.5967","dc","null","null","null","null","null","null","[2,1]","485.49360389443035","439.00532077453045","465.5984652647538"
"","canvas-keyboard-response","106","127404","0.0-6.0-2.14","569","","","","","rectangles no change","null","null","","","critical","c","d","t","240","164","162.6685","237.1485","164","240","trueblood","0.02","h","164","240","240","164","162.6685","237.1485","39360","39360","38576.5967","dc","null","null","null","null","null","null","[2,1]","485.49360389443035","439.00532077453045","465.5984652647538"
"","canvas-keyboard-response","107","128738","0.0-6.0-3.14","569","","","","","rectangles with change","null","null","","","critical","c","d","t","240","164","162.6685","237.1485","164","240","trueblood","0.02","h","164","240","240","164","162.6685","237.1485","39360","39360","38576.5967","dc","null","null","null","null","null","null","[2,1]","485.49360389443035","439.00532077453045","465.5984652647538"
"","canvas-keyboard-response","108","128758","0.0-6.0-4.14","569","","","","","clear_screen","null","null","","","critical","c","d","t","240","164","162.6685","237.1485","164","240","trueblood","0.02","h","164","240","240","164","162.6685","237.1485","39360","39360","38576.5967","dc","null","null","null","null","null","null","[2,1]","485.49360389443035","439.00532077453045","465.5984652647538"
"","canvas-keyboard-response","109","129922","0.0-6.0-5.14","569","","","","","make choice","1154","1","","","critical","c","d","t","240","164","162.6685","237.1485","164","240","trueblood","0.02","h","164","240","240","164","162.6685","237.1485","39360","39360","38576.5967","dc","null","null","null","null","null","null","[2,1]","","",""
"","canvas-keyboard-response","110","129944","0.0-6.0-6.14","569","","","","","clear_screen","null","null","","","critical","c","d","t","240","164","162.6685","237.1485","164","240","trueblood","0.02","h","164","240","240","164","162.6685","237.1485","39360","39360","38576.5967","dc","null","null","null","null","null","null","[2,1]","","",""
"","canvas-keyboard-response","111","130145","0.0-6.0-0.15","569","","","","","pre trial waiting period","null","null","","","critical","d","t","c","237.1485","162.6685","240","164","164","240","spektor","0.02","w","240","164","164","240","237.1485","162.6685","39360","39360","38576.5967","dc","null","null","null","null","null","null","[1,3]","503.5129908166595","188.18112883311204","485.1068145015075"
"","canvas-keyboard-response","112","130163","0.0-6.0-1.15","569","","","","","clear_screen","null","null","","","critical","d","t","c","237.1485","162.6685","240","164","164","240","spektor","0.02","w","240","164","164","240","237.1485","162.6685","39360","39360","38576.5967","dc","null","null","null","null","null","null","[1,3]","503.5129908166595","188.18112883311204","485.1068145015075"
"","canvas-keyboard-response","113","130671","0.0-6.0-2.15","569","","","","","rectangles no change","null","null","","","critical","d","t","c","237.1485","162.6685","240","164","164","240","spektor","0.02","w","240","164","164","240","237.1485","162.6685","39360","39360","38576.5967","dc","null","null","null","null","null","null","[1,3]","503.5129908166595","188.18112883311204","485.1068145015075"
"","canvas-keyboard-response","114","132007","0.0-6.0-3.15","569","","","","","rectangles with change","null","null","","","critical","d","t","c","237.1485","162.6685","240","164","164","240","spektor","0.02","w","240","164","164","240","237.1485","162.6685","39360","39360","38576.5967","dc","null","null","null","null","null","null","[1,3]","503.5129908166595","188.18112883311204","485.1068145015075"
"","canvas-keyboard-response","115","132030","0.0-6.0-4.15","569","","","","","clear_screen","null","null","","","critical","d","t","c","237.1485","162.6685","240","164","164","240","spektor","0.02","w","240","164","164","240","237.1485","162.6685","39360","39360","38576.5967","dc","null","null","null","null","null","null","[1,3]","503.5129908166595","188.18112883311204","485.1068145015075"
"","canvas-keyboard-response","116","133234","0.0-6.0-5.15","569","","","","","make choice","1200","3","","","critical","d","t","c","237.1485","162.6685","240","164","164","240","spektor","0.02","w","240","164","164","240","237.1485","162.6685","39360","39360","38576.5967","dc","null","null","null","null","null","null","[1,3]","","",""
"","canvas-keyboard-response","117","133255","0.0-6.0-6.15","569","","","","","clear_screen","null","null","","","critical","d","t","c","237.1485","162.6685","240","164","164","240","spektor","0.02","w","240","164","164","240","237.1485","162.6685","39360","39360","38576.5967","dc","null","null","null","null","null","null","[1,3]","","",""
"","canvas-keyboard-response","118","133455","0.0-6.0-0.16","569","","","","","pre trial waiting period","null","null","","","critical","c","t","d","164","240","240","164","232.8713","160.6713","trueblood","0.05","w","240","164","164","240","232.8713","160.6713","39360","39360","37415.7294","tc","null","null","null","null","null","null","[2,1]","424.3267919286174","471.76932177426255","496.37969083388566"
"","canvas-keyboard-response","119","133473","0.0-6.0-1.16","569","","","","","clear_screen","null","null","","","critical","c","t","d","164","240","240","164","232.8713","160.6713","trueblood","0.05","w","240","164","164","240","232.8713","160.6713","39360","39360","37415.7294","tc","null","null","null","null","null","null","[2,1]","424.3267919286174","471.76932177426255","496.37969083388566"
"","canvas-keyboard-response","120","133981","0.0-6.0-2.16","569","","","","","rectangles no change","null","null","","","critical","c","t","d","164","240","240","164","232.8713","160.6713","trueblood","0.05","w","240","164","164","240","232.8713","160.6713","39360","39360","37415.7294","tc","null","null","null","null","null","null","[2,1]","424.3267919286174","471.76932177426255","496.37969083388566"
"","canvas-keyboard-response","121","135315","0.0-6.0-3.16","569","","","","","rectangles with change","null","null","","","critical","c","t","d","164","240","240","164","232.8713","160.6713","trueblood","0.05","w","240","164","164","240","232.8713","160.6713","39360","39360","37415.7294","tc","null","null","null","null","null","null","[2,1]","424.3267919286174","471.76932177426255","496.37969083388566"
"","canvas-keyboard-response","122","135330","0.0-6.0-4.16","569","","","","","clear_screen","null","null","","","critical","c","t","d","164","240","240","164","232.8713","160.6713","trueblood","0.05","w","240","164","164","240","232.8713","160.6713","39360","39360","37415.7294","tc","null","null","null","null","null","null","[2,1]","424.3267919286174","471.76932177426255","496.37969083388566"
"","canvas-keyboard-response","123","136514","0.0-6.0-5.16","569","","","","","make choice","1178","2","","","critical","c","t","d","164","240","240","164","232.8713","160.6713","trueblood","0.05","w","240","164","164","240","232.8713","160.6713","39360","39360","37415.7294","tc","null","null","null","null","null","null","[2,1]","","",""
"","canvas-keyboard-response","124","136535","0.0-6.0-6.16","569","","","","","clear_screen","null","null","","","critical","c","t","d","164","240","240","164","232.8713","160.6713","trueblood","0.05","w","240","164","164","240","232.8713","160.6713","39360","39360","37415.7294","tc","null","null","null","null","null","null","[2,1]","","",""
"","canvas-keyboard-response","125","136736","0.0-6.0-0.17","569","","","","","pre trial waiting period","null","null","","","critical","t","d","c","240","164","237.1485","162.6685","164","240","spektor","0.02","w","240","164","164","240","237.1485","162.6685","39360","39360","38576.5967","tc","null","null","null","null","null","null","[1,3]","533.0052253291675","182.58770346061166","501.39776214098237"
"","canvas-keyboard-response","126","136754","0.0-6.0-1.17","569","","","","","clear_screen","null","null","","","critical","t","d","c","240","164","237.1485","162.6685","164","240","spektor","0.02","w","240","164","164","240","237.1485","162.6685","39360","39360","38576.5967","tc","null","null","null","null","null","null","[1,3]","533.0052253291675","182.58770346061166","501.39776214098237"
"","canvas-keyboard-response","127","137261","0.0-6.0-2.17","569","","","","","rectangles no change","null","null","","","critical","t","d","c","240","164","237.1485","162.6685","164","240","spektor","0.02","w","240","164","164","240","237.1485","162.6685","39360","39360","38576.5967","tc","null","null","null","null","null","null","[1,3]","533.0052253291675","182.58770346061166","501.39776214098237"
"","canvas-keyboard-response","128","138598","0.0-6.0-3.17","569","","","","","rectangles with change","null","null","","","critical","t","d","c","240","164","237.1485","162.6685","164","240","spektor","0.02","w","240","164","164","240","237.1485","162.6685","39360","39360","38576.5967","tc","null","null","null","null","null","null","[1,3]","533.0052253291675","182.58770346061166","501.39776214098237"
"","canvas-keyboard-response","129","138616","0.0-6.0-4.17","569","","","","","clear_screen","null","null","","","critical","t","d","c","240","164","237.1485","162.6685","164","240","spektor","0.02","w","240","164","164","240","237.1485","162.6685","39360","39360","38576.5967","tc","null","null","null","null","null","null","[1,3]","533.0052253291675","182.58770346061166","501.39776214098237"
"","canvas-keyboard-response","130","139577","0.0-6.0-5.17","569","","","","","make choice","955","3","","","critical","t","d","c","240","164","237.1485","162.6685","164","240","spektor","0.02","w","240","164","164","240","237.1485","162.6685","39360","39360","38576.5967","tc","null","null","null","null","null","null","[1,3]","","",""
"","canvas-keyboard-response","131","139595","0.0-6.0-6.17","569","","","","","clear_screen","null","null","","","critical","t","d","c","240","164","237.1485","162.6685","164","240","spektor","0.02","w","240","164","164","240","237.1485","162.6685","39360","39360","38576.5967","tc","null","null","null","null","null","null","[1,3]","","",""
"","canvas-keyboard-response","132","139796","0.0-6.0-0.18","569","","","","","pre trial waiting period","null","null","","","critical","d","t","c","162.6685","237.1485","164","240","240","164","trueblood","0.02","h","164","240","240","164","162.6685","237.1485","39360","39360","38576.5967","tc","null","null","null","null","null","null","[2,3]","436.2754136776474","419.6322720456801","471.54801320320314"
"","canvas-keyboard-response","133","139819","0.0-6.0-1.18","569","","","","","clear_screen","null","null","","","critical","d","t","c","162.6685","237.1485","164","240","240","164","trueblood","0.02","h","164","240","240","164","162.6685","237.1485","39360","39360","38576.5967","tc","null","null","null","null","null","null","[2,3]","436.2754136776474","419.6322720456801","471.54801320320314"
"","canvas-keyboard-response","134","140326","0.0-6.0-2.18","569","","","","","rectangles no change","null","null","","","critical","d","t","c","162.6685","237.1485","164","240","240","164","trueblood","0.02","h","164","240","240","164","162.6685","237.1485","39360","39360","38576.5967","tc","null","null","null","null","null","null","[2,3]","436.2754136776474","419.6322720456801","471.54801320320314"
"","canvas-keyboard-response","135","141659","0.0-6.0-3.18","569","","","","","rectangles with change","null","null","","","critical","d","t","c","162.6685","237.1485","164","240","240","164","trueblood","0.02","h","164","240","240","164","162.6685","237.1485","39360","39360","38576.5967","tc","null","null","null","null","null","null","[2,3]","436.2754136776474","419.6322720456801","471.54801320320314"
"","canvas-keyboard-response","136","141681","0.0-6.0-4.18","569","","","","","clear_screen","null","null","","","critical","d","t","c","162.6685","237.1485","164","240","240","164","trueblood","0.02","h","164","240","240","164","162.6685","237.1485","39360","39360","38576.5967","tc","null","null","null","null","null","null","[2,3]","436.2754136776474","419.6322720456801","471.54801320320314"
"","canvas-keyboard-response","137","142523","0.0-6.0-5.18","569","","","","","make choice","835","3","","","critical","d","t","c","162.6685","237.1485","164","240","240","164","trueblood","0.02","h","164","240","240","164","162.6685","237.1485","39360","39360","38576.5967","tc","null","null","null","null","null","null","[2,3]","","",""
"","canvas-keyboard-response","138","142539","0.0-6.0-6.18","569","","","","","clear_screen","null","null","","","critical","d","t","c","162.6685","237.1485","164","240","240","164","trueblood","0.02","h","164","240","240","164","162.6685","237.1485","39360","39360","38576.5967","tc","null","null","null","null","null","null","[2,3]","","",""
"","canvas-keyboard-response","139","142741","0.0-6.0-0.19","569","","","","","pre trial waiting period","null","null","","","critical","d","c","t","237.1485","162.6685","164","240","240","164","trueblood","0.02","w","240","164","164","240","237.1485","162.6685","39360","39360","38576.5967","dc","null","null","null","null","null","null","[1,2]","515.3313279750487","423.2289537313068","503.27763543452136"
"","canvas-keyboard-response","140","142759","0.0-6.0-1.19","569","","","","","clear_screen","null","null","","","critical","d","c","t","237.1485","162.6685","164","240","240","164","trueblood","0.02","w","240","164","164","240","237.1485","162.6685","39360","39360","38576.5967","dc","null","null","null","null","null","null","[1,2]","515.3313279750487","423.2289537313068","503.27763543452136"
"","canvas-keyboard-response","141","143265","0.0-6.0-2.19","569","","","","","rectangles no change","null","null","","","critical","d","c","t","237.1485","162.6685","164","240","240","164","trueblood","0.02","w","240","164","164","240","237.1485","162.6685","39360","39360","38576.5967","dc","null","null","null","null","null","null","[1,2]","515.3313279750487","423.2289537313068","503.27763543452136"
"","canvas-keyboard-response","142","144601","0.0-6.0-3.19","569","","","","","rectangles with change","null","null","","","critical","d","c","t","237.1485","162.6685","164","240","240","164","trueblood","0.02","w","240","164","164","240","237.1485","162.6685","39360","39360","38576.5967","dc","null","null","null","null","null","null","[1,2]","515.3313279750487","423.2289537313068","503.27763543452136"
"","canvas-keyboard-response","143","144624","0.0-6.0-4.19","569","","","","","clear_screen","null","null","","","critical","d","c","t","237.1485","162.6685","164","240","240","164","trueblood","0.02","w","240","164","164","240","237.1485","162.6685","39360","39360","38576.5967","dc","null","null","null","null","null","null","[1,2]","515.3313279750487","423.2289537313068","503.27763543452136"
"","canvas-keyboard-response","144","145594","0.0-6.0-5.19","569","","","","","make choice","964","1","","","critical","d","c","t","237.1485","162.6685","164","240","240","164","trueblood","0.02","w","240","164","164","240","237.1485","162.6685","39360","39360","38576.5967","dc","null","null","null","null","null","null","[1,2]","","",""
"","canvas-keyboard-response","145","145613","0.0-6.0-6.19","569","","","","","clear_screen","null","null","","","critical","d","c","t","237.1485","162.6685","164","240","240","164","trueblood","0.02","w","240","164","164","240","237.1485","162.6685","39360","39360","38576.5967","dc","null","null","null","null","null","null","[1,2]","","",""
"","canvas-keyboard-response","146","145814","0.0-6.0-0.20","569","","","","","pre trial waiting period","null","null","","","critical","t","c","d","164","240","240","164","164","240","trueblood","0","h","164","240","240","164","164","240","39360","39360","39360","td","null","null","null","null","null","null","[1,3]","432.0315645589395","483.70424422393296","424.7989660879993"
"","canvas-keyboard-response","147","145834","0.0-6.0-1.20","569","","","","","clear_screen","null","null","","","critical","t","c","d","164","240","240","164","164","240","trueblood","0","h","164","240","240","164","164","240","39360","39360","39360","td","null","null","null","null","null","null","[1,3]","432.0315645589395","483.70424422393296","424.7989660879993"
"","canvas-keyboard-response","148","146342","0.0-6.0-2.20","569","","","","","rectangles no change","null","null","","","critical","t","c","d","164","240","240","164","164","240","trueblood","0","h","164","240","240","164","164","240","39360","39360","39360","td","null","null","null","null","null","null","[1,3]","432.0315645589395","483.70424422393296","424.7989660879993"
"","canvas-keyboard-response","149","147678","0.0-6.0-3.20","569","","","","","rectangles with change","null","null","","","critical","t","c","d","164","240","240","164","164","240","trueblood","0","h","164","240","240","164","164","240","39360","39360","39360","td","null","null","null","null","null","null","[1,3]","432.0315645589395","483.70424422393296","424.7989660879993"
"","canvas-keyboard-response","150","147696","0.0-6.0-4.20","569","","","","","clear_screen","null","null","","","critical","t","c","d","164","240","240","164","164","240","trueblood","0","h","164","240","240","164","164","240","39360","39360","39360","td","null","null","null","null","null","null","[1,3]","432.0315645589395","483.70424422393296","424.7989660879993"
"","canvas-keyboard-response","151","148574","0.0-6.0-5.20","569","","","","","make choice","871","3","","","critical","t","c","d","164","240","240","164","164","240","trueblood","0","h","164","240","240","164","164","240","39360","39360","39360","td","null","null","null","null","null","null","[1,3]","","",""
"","canvas-keyboard-response","152","148592","0.0-6.0-6.20","569","","","","","clear_screen","null","null","","","critical","t","c","d","164","240","240","164","164","240","trueblood","0","h","164","240","240","164","164","240","39360","39360","39360","td","null","null","null","null","null","null","[1,3]","","",""
"","canvas-keyboard-response","153","148793","0.0-6.0-0.21","569","","","","","pre trial waiting period","null","null","","","catch","l","sw","sh","220","285","196","178","204","144","spektor","null","null","null","null","null","null","null","null","null","null","null","","180","200","260","200","36000","52000","[1,3]","481.47976252278585","190.33724714957793","518.1302523682831"
"","canvas-keyboard-response","154","148815","0.0-6.0-1.21","569","","","","","clear_screen","null","null","","","catch","l","sw","sh","220","285","196","178","204","144","spektor","null","null","null","null","null","null","null","null","null","null","null","","180","200","260","200","36000","52000","[1,3]","481.47976252278585","190.33724714957793","518.1302523682831"
"","canvas-keyboard-response","155","149324","0.0-6.0-2.21","569","","","","","rectangles no change","null","null","","","catch","l","sw","sh","220","285","196","178","204","144","spektor","null","null","null","null","null","null","null","null","null","null","null","","180","200","260","200","36000","52000","[1,3]","481.47976252278585","190.33724714957793","518.1302523682831"
"","canvas-keyboard-response","156","150661","0.0-6.0-3.21","569","","","","","rectangles with change","null","null","","","catch","l","sw","sh","220","285","196","178","204","144","spektor","null","null","null","null","null","null","null","null","null","null","null","","180","200","260","200","36000","52000","[1,3]","481.47976252278585","190.33724714957793","518.1302523682831"
"","canvas-keyboard-response","157","150679","0.0-6.0-4.21","569","","","","","clear_screen","null","null","","","catch","l","sw","sh","220","285","196","178","204","144","spektor","null","null","null","null","null","null","null","null","null","null","null","","180","200","260","200","36000","52000","[1,3]","481.47976252278585","190.33724714957793","518.1302523682831"
"","canvas-keyboard-response","158","151051","0.0-6.0-5.21","569","","","","","make choice","366","1","","","catch","l","sw","sh","220","285","196","178","204","144","spektor","null","null","null","null","null","null","null","null","null","null","null","","180","200","260","200","36000","52000","[1,3]","","",""
"","canvas-keyboard-response","159","151071","0.0-6.0-6.21","569","","","","","clear_screen","null","null","","","catch","l","sw","sh","220","285","196","178","204","144","spektor","null","null","null","null","null","null","null","null","null","null","null","","180","200","260","200","36000","52000","[1,3]","","",""
"","canvas-keyboard-response","160","151272","0.0-6.0-0.22","569","","","","","pre trial waiting period","null","null","","","critical","t","c","d","240","164","164","240","240","164","spektor","0","w","240","164","164","240","240","164","39360","39360","39360","td","null","null","null","null","null","null","[1,3]","515.4219829289597","120.9444845373142","514.1106337289566"
"","canvas-keyboard-response","161","151290","0.0-6.0-1.22","569","","","","","clear_screen","null","null","","","critical","t","c","d","240","164","164","240","240","164","spektor","0","w","240","164","164","240","240","164","39360","39360","39360","td","null","null","null","null","null","null","[1,3]","515.4219829289597","120.9444845373142","514.1106337289566"
"","canvas-keyboard-response","162","151796","0.0-6.0-2.22","569","","","","","rectangles no change","null","null","","","critical","t","c","d","240","164","164","240","240","164","spektor","0","w","240","164","164","240","240","164","39360","39360","39360","td","null","null","null","null","null","null","[1,3]","515.4219829289597","120.9444845373142","514.1106337289566"
"","canvas-keyboard-response","163","153134","0.0-6.0-3.22","569","","","","","rectangles with change","null","null","","","critical","t","c","d","240","164","164","240","240","164","spektor","0","w","240","164","164","240","240","164","39360","39360","39360","td","null","null","null","null","null","null","[1,3]","515.4219829289597","120.9444845373142","514.1106337289566"
"","canvas-keyboard-response","164","153153","0.0-6.0-4.22","569","","","","","clear_screen","null","null","","","critical","t","c","d","240","164","164","240","240","164","spektor","0","w","240","164","164","240","240","164","39360","39360","39360","td","null","null","null","null","null","null","[1,3]","515.4219829289597","120.9444845373142","514.1106337289566"
"","canvas-keyboard-response","165","153644","0.0-6.0-5.22","569","","","","","make choice","483","3","","","critical","t","c","d","240","164","164","240","240","164","spektor","0","w","240","164","164","240","240","164","39360","39360","39360","td","null","null","null","null","null","null","[1,3]","","",""
"","canvas-keyboard-response","166","153658","0.0-6.0-6.22","569","","","","","clear_screen","null","null","","","critical","t","c","d","240","164","164","240","240","164","spektor","0","w","240","164","164","240","240","164","39360","39360","39360","td","null","null","null","null","null","null","[1,3]","","",""
"","canvas-keyboard-response","167","153859","0.0-6.0-0.23","569","","","","","pre trial waiting period","null","null","","","catch","l","sh","sw","276","173","174","192","212","173","spektor","null","null","null","null","null","null","null","null","null","null","null","","180","200","260","200","36000","52000","[1,3]","530.9708740850064","199.91833694452785","511.694834204155"
"","canvas-keyboard-response","168","153878","0.0-6.0-1.23","569","","","","","clear_screen","null","null","","","catch","l","sh","sw","276","173","174","192","212","173","spektor","null","null","null","null","null","null","null","null","null","null","null","","180","200","260","200","36000","52000","[1,3]","530.9708740850064","199.91833694452785","511.694834204155"
"","canvas-keyboard-response","169","154385","0.0-6.0-2.23","569","","","","","rectangles no change","null","null","","","catch","l","sh","sw","276","173","174","192","212","173","spektor","null","null","null","null","null","null","null","null","null","null","null","","180","200","260","200","36000","52000","[1,3]","530.9708740850064","199.91833694452785","511.694834204155"
"","canvas-keyboard-response","170","155721","0.0-6.0-3.23","569","","","","","rectangles with change","null","null","","","catch","l","sh","sw","276","173","174","192","212","173","spektor","null","null","null","null","null","null","null","null","null","null","null","","180","200","260","200","36000","52000","[1,3]","530.9708740850064","199.91833694452785","511.694834204155"
"","canvas-keyboard-response","171","155739","0.0-6.0-4.23","569","","","","","clear_screen","null","null","","","catch","l","sh","sw","276","173","174","192","212","173","spektor","null","null","null","null","null","null","null","null","null","null","null","","180","200","260","200","36000","52000","[1,3]","530.9708740850064","199.91833694452785","511.694834204155"
"","canvas-keyboard-response","172","155979","0.0-6.0-5.23","569","","","","","make choice","232","1","","","catch","l","sh","sw","276","173","174","192","212","173","spektor","null","null","null","null","null","null","null","null","null","null","null","","180","200","260","200","36000","52000","[1,3]","","",""
"","canvas-keyboard-response","173","155996","0.0-6.0-6.23","569","","","","","clear_screen","null","null","","","catch","l","sh","sw","276","173","174","192","212","173","spektor","null","null","null","null","null","null","null","null","null","null","null","","180","200","260","200","36000","52000","[1,3]","","",""
"","canvas-keyboard-response","174","156198","0.0-6.0-0.24","569","","","","","pre trial waiting period","null","null","","","critical","t","c","d","240","164","164","240","220.0396","154.6796","trueblood","0.14","w","240","164","164","240","220.0396","154.6796","39360","39360","34035.6388","dc","null","null","null","null","null","null","[3,2]","504.61813115754404","446.03377203280075","493.642974997359"
"","canvas-keyboard-response","175","156220","0.0-6.0-1.24","569","","","","","clear_screen","null","null","","","critical","t","c","d","240","164","164","240","220.0396","154.6796","trueblood","0.14","w","240","164","164","240","220.0396","154.6796","39360","39360","34035.6388","dc","null","null","null","null","null","null","[3,2]","504.61813115754404","446.03377203280075","493.642974997359"
"","canvas-keyboard-response","176","156728","0.0-6.0-2.24","569","","","","","rectangles no change","null","null","","","critical","t","c","d","240","164","164","240","220.0396","154.6796","trueblood","0.14","w","240","164","164","240","220.0396","154.6796","39360","39360","34035.6388","dc","null","null","null","null","null","null","[3,2]","504.61813115754404","446.03377203280075","493.642974997359"
"","canvas-keyboard-response","177","158067","0.0-6.0-3.24","569","","","","","rectangles with change","null","null","","","critical","t","c","d","240","164","164","240","220.0396","154.6796","trueblood","0.14","w","240","164","164","240","220.0396","154.6796","39360","39360","34035.6388","dc","null","null","null","null","null","null","[3,2]","504.61813115754404","446.03377203280075","493.642974997359"
"","canvas-keyboard-response","178","158088","0.0-6.0-4.24","569","","","","","clear_screen","null","null","","","critical","t","c","d","240","164","164","240","220.0396","154.6796","trueblood","0.14","w","240","164","164","240","220.0396","154.6796","39360","39360","34035.6388","dc","null","null","null","null","null","null","[3,2]","504.61813115754404","446.03377203280075","493.642974997359"
"","canvas-keyboard-response","179","159011","0.0-6.0-5.24","569","","","","","make choice","917","2","","","critical","t","c","d","240","164","164","240","220.0396","154.6796","trueblood","0.14","w","240","164","164","240","220.0396","154.6796","39360","39360","34035.6388","dc","null","null","null","null","null","null","[3,2]","","",""
"","canvas-keyboard-response","180","159031","0.0-6.0-6.24","569","","","","","clear_screen","null","null","","","critical","t","c","d","240","164","164","240","220.0396","154.6796","trueblood","0.14","w","240","164","164","240","220.0396","154.6796","39360","39360","34035.6388","dc","null","null","null","null","null","null","[3,2]","","",""
"","canvas-keyboard-response","181","159232","0.0-6.0-0.25","569","","","","","pre trial waiting period","null","null","","","catch","sw","l","sh","180","200","175","274","207","215","trueblood","null","null","null","null","null","null","null","null","null","null","null","","180","200","260","200","36000","52000","[2,3]","457.3439537400581","414.57767494381824","472.48277081028294"
"","canvas-keyboard-response","182","159252","0.0-6.0-1.25","569","","","","","clear_screen","null","null","","","catch","sw","l","sh","180","200","175","274","207","215","trueblood","null","null","null","null","null","null","null","null","null","null","null","","180","200","260","200","36000","52000","[2,3]","457.3439537400581","414.57767494381824","472.48277081028294"
"","canvas-keyboard-response","183","159761","0.0-6.0-2.25","569","","","","","rectangles no change","null","null","","","catch","sw","l","sh","180","200","175","274","207","215","trueblood","null","null","null","null","null","null","null","null","null","null","null","","180","200","260","200","36000","52000","[2,3]","457.3439537400581","414.57767494381824","472.48277081028294"
"","canvas-keyboard-response","184","161099","0.0-6.0-3.25","569","","","","","rectangles with change","null","null","","","catch","sw","l","sh","180","200","175","274","207","215","trueblood","null","null","null","null","null","null","null","null","null","null","null","","180","200","260","200","36000","52000","[2,3]","457.3439537400581","414.57767494381824","472.48277081028294"
"","canvas-keyboard-response","185","161119","0.0-6.0-4.25","569","","","","","clear_screen","null","null","","","catch","sw","l","sh","180","200","175","274","207","215","trueblood","null","null","null","null","null","null","null","null","null","null","null","","180","200","260","200","36000","52000","[2,3]","457.3439537400581","414.57767494381824","472.48277081028294"
"","canvas-keyboard-response","186","163338","0.0-6.0-5.25","569","","","","","make choice","2211","2","","","catch","sw","l","sh","180","200","175","274","207","215","trueblood","null","null","null","null","null","null","null","null","null","null","null","","180","200","260","200","36000","52000","[2,3]","","",""
"","canvas-keyboard-response","187","163356","0.0-6.0-6.25","569","","","","","clear_screen","null","null","","","catch","sw","l","sh","180","200","175","274","207","215","trueblood","null","null","null","null","null","null","null","null","null","null","null","","180","200","260","200","36000","52000","[2,3]","","",""
"","canvas-keyboard-response","188","163557","0.0-6.0-0.26","569","","","","","pre trial waiting period","null","null","","","critical","c","d","t","240","164","158.0083","227.1683","164","240","spektor","0.09","h","164","240","240","164","158.0083","227.1683","39360","39360","35894.4834","tc","null","null","null","null","null","null","[3,1]","521.8442930157673","118.65894761951444","477.19377548617723"
"","canvas-keyboard-response","189","163578","0.0-6.0-1.26","569","","","","","clear_screen","null","null","","","critical","c","d","t","240","164","158.0083","227.1683","164","240","spektor","0.09","h","164","240","240","164","158.0083","227.1683","39360","39360","35894.4834","tc","null","null","null","null","null","null","[3,1]","521.8442930157673","118.65894761951444","477.19377548617723"
"","canvas-keyboard-response","190","164091","0.0-6.0-2.26","569","","","","","rectangles no change","null","null","","","critical","c","d","t","240","164","158.0083","227.1683","164","240","spektor","0.09","h","164","240","240","164","158.0083","227.1683","39360","39360","35894.4834","tc","null","null","null","null","null","null","[3,1]","521.8442930157673","118.65894761951444","477.19377548617723"
"","canvas-keyboard-response","191","165426","0.0-6.0-3.26","569","","","","","rectangles with change","null","null","","","critical","c","d","t","240","164","158.0083","227.1683","164","240","spektor","0.09","h","164","240","240","164","158.0083","227.1683","39360","39360","35894.4834","tc","null","null","null","null","null","null","[3,1]","521.8442930157673","118.65894761951444","477.19377548617723"
"","canvas-keyboard-response","192","165444","0.0-6.0-4.26","569","","","","","clear_screen","null","null","","","critical","c","d","t","240","164","158.0083","227.1683","164","240","spektor","0.09","h","164","240","240","164","158.0083","227.1683","39360","39360","35894.4834","tc","null","null","null","null","null","null","[3,1]","521.8442930157673","118.65894761951444","477.19377548617723"
"","canvas-keyboard-response","193","166418","0.0-6.0-5.26","569","","","","","make choice","969","3","","","critical","c","d","t","240","164","158.0083","227.1683","164","240","spektor","0.09","h","164","240","240","164","158.0083","227.1683","39360","39360","35894.4834","tc","null","null","null","null","null","null","[3,1]","","",""
"","canvas-keyboard-response","194","166440","0.0-6.0-6.26","569","","","","","clear_screen","null","null","","","critical","c","d","t","240","164","158.0083","227.1683","164","240","spektor","0.09","h","164","240","240","164","158.0083","227.1683","39360","39360","35894.4834","tc","null","null","null","null","null","null","[3,1]","","",""
"","canvas-keyboard-response","195","166641","0.0-6.0-0.27","569","","","","","pre trial waiting period","null","null","","","critical","c","d","t","240","164","160.6713","232.8713","164","240","trueblood","0.05","h","164","240","240","164","160.6713","232.8713","39360","39360","37415.7294","td","null","null","null","null","null","null","[3,2]","505.251754791215","447.6591888756846","434.44855915556934"
"","canvas-keyboard-response","196","166661","0.0-6.0-1.27","569","","","","","clear_screen","null","null","","","critical","c","d","t","240","164","160.6713","232.8713","164","240","trueblood","0.05","h","164","240","240","164","160.6713","232.8713","39360","39360","37415.7294","td","null","null","null","null","null","null","[3,2]","505.251754791215","447.6591888756846","434.44855915556934"
"","canvas-keyboard-response","197","167166","0.0-6.0-2.27","569","","","","","rectangles no change","null","null","","","critical","c","d","t","240","164","160.6713","232.8713","164","240","trueblood","0.05","h","164","240","240","164","160.6713","232.8713","39360","39360","37415.7294","td","null","null","null","null","null","null","[3,2]","505.251754791215","447.6591888756846","434.44855915556934"
"","canvas-keyboard-response","198","168501","0.0-6.0-3.27","569","","","","","rectangles with change","null","null","","","critical","c","d","t","240","164","160.6713","232.8713","164","240","trueblood","0.05","h","164","240","240","164","160.6713","232.8713","39360","39360","37415.7294","td","null","null","null","null","null","null","[3,2]","505.251754791215","447.6591888756846","434.44855915556934"
"","canvas-keyboard-response","199","168523","0.0-6.0-4.27","569","","","","","clear_screen","null","null","","","critical","c","d","t","240","164","160.6713","232.8713","164","240","trueblood","0.05","h","164","240","240","164","160.6713","232.8713","39360","39360","37415.7294","td","null","null","null","null","null","null","[3,2]","505.251754791215","447.6591888756846","434.44855915556934"
"","canvas-keyboard-response","200","169395","0.0-6.0-5.27","569","","","","","make choice","865","3","","","critical","c","d","t","240","164","160.6713","232.8713","164","240","trueblood","0.05","h","164","240","240","164","160.6713","232.8713","39360","39360","37415.7294","td","null","null","null","null","null","null","[3,2]","","",""
"","canvas-keyboard-response","201","169415","0.0-6.0-6.27","569","","","","","clear_screen","null","null","","","critical","c","d","t","240","164","160.6713","232.8713","164","240","trueblood","0.05","h","164","240","240","164","160.6713","232.8713","39360","39360","37415.7294","td","null","null","null","null","null","null","[3,2]","","",""
"","canvas-keyboard-response","202","169616","0.0-6.0-0.28","569","","","","","pre trial waiting period","null","null","","","catch","sw","l","sh","180","200","182","287","190","164","trueblood","null","null","null","null","null","null","null","null","null","null","null","","180","200","260","200","36000","52000","[1,2]","494.42873805105864","403.44842524125835","496.2450289270055"
"","canvas-keyboard-response","203","169634","0.0-6.0-1.28","569","","","","","clear_screen","null","null","","","catch","sw","l","sh","180","200","182","287","190","164","trueblood","null","null","null","null","null","null","null","null","null","null","null","","180","200","260","200","36000","52000","[1,2]","494.42873805105864","403.44842524125835","496.2450289270055"
"","canvas-keyboard-response","204","170140","0.0-6.0-2.28","569","","","","","rectangles no change","null","null","","","catch","sw","l","sh","180","200","182","287","190","164","trueblood","null","null","null","null","null","null","null","null","null","null","null","","180","200","260","200","36000","52000","[1,2]","494.42873805105864","403.44842524125835","496.2450289270055"
"","canvas-keyboard-response","205","171476","0.0-6.0-3.28","569","","","","","rectangles with change","null","null","","","catch","sw","l","sh","180","200","182","287","190","164","trueblood","null","null","null","null","null","null","null","null","null","null","null","","180","200","260","200","36000","52000","[1,2]","494.42873805105864","403.44842524125835","496.2450289270055"
"","canvas-keyboard-response","206","171497","0.0-6.0-4.28","569","","","","","clear_screen","null","null","","","catch","sw","l","sh","180","200","182","287","190","164","trueblood","null","null","null","null","null","null","null","null","null","null","null","","180","200","260","200","36000","52000","[1,2]","494.42873805105864","403.44842524125835","496.2450289270055"
"","canvas-keyboard-response","207","172267","0.0-6.0-5.28","569","","","","","make choice","767","2","","","catch","sw","l","sh","180","200","182","287","190","164","trueblood","null","null","null","null","null","null","null","null","null","null","null","","180","200","260","200","36000","52000","[1,2]","","",""
"","canvas-keyboard-response","208","172287","0.0-6.0-6.28","569","","","","","clear_screen","null","null","","","catch","sw","l","sh","180","200","182","287","190","164","trueblood","null","null","null","null","null","null","null","null","null","null","null","","180","200","260","200","36000","52000","[1,2]","","",""
"","canvas-keyboard-response","209","172488","0.0-6.0-0.29","569","","","","","pre trial waiting period","null","null","","","critical","t","c","d","164","240","240","164","162.6685","237.1485","spektor","0.02","h","164","240","240","164","162.6685","237.1485","39360","39360","38576.5967","tc","null","null","null","null","null","null","[1,2]","504.51672577056297","173.97325891635012","496.40441612341004"
"","canvas-keyboard-response","210","172506","0.0-6.0-1.29","569","","","","","clear_screen","null","null","","","critical","t","c","d","164","240","240","164","162.6685","237.1485","spektor","0.02","h","164","240","240","164","162.6685","237.1485","39360","39360","38576.5967","tc","null","null","null","null","null","null","[1,2]","504.51672577056297","173.97325891635012","496.40441612341004"
"","canvas-keyboard-response","211","173015","0.0-6.0-2.29","569","","","","","rectangles no change","null","null","","","critical","t","c","d","164","240","240","164","162.6685","237.1485","spektor","0.02","h","164","240","240","164","162.6685","237.1485","39360","39360","38576.5967","tc","null","null","null","null","null","null","[1,2]","504.51672577056297","173.97325891635012","496.40441612341004"
"","canvas-keyboard-response","212","174352","0.0-6.0-3.29","569","","","","","rectangles with change","null","null","","","critical","t","c","d","164","240","240","164","162.6685","237.1485","spektor","0.02","h","164","240","240","164","162.6685","237.1485","39360","39360","38576.5967","tc","null","null","null","null","null","null","[1,2]","504.51672577056297","173.97325891635012","496.40441612341004"
"","canvas-keyboard-response","213","174371","0.0-6.0-4.29","569","","","","","clear_screen","null","null","","","critical","t","c","d","164","240","240","164","162.6685","237.1485","spektor","0.02","h","164","240","240","164","162.6685","237.1485","39360","39360","38576.5967","tc","null","null","null","null","null","null","[1,2]","504.51672577056297","173.97325891635012","496.40441612341004"
"","canvas-keyboard-response","214","175267","0.0-6.0-5.29","569","","","","","make choice","888","2","","","critical","t","c","d","164","240","240","164","162.6685","237.1485","spektor","0.02","h","164","240","240","164","162.6685","237.1485","39360","39360","38576.5967","tc","null","null","null","null","null","null","[1,2]","","",""
"","canvas-keyboard-response","215","175284","0.0-6.0-6.29","569","","","","","clear_screen","null","null","","","critical","t","c","d","164","240","240","164","162.6685","237.1485","spektor","0.02","h","164","240","240","164","162.6685","237.1485","39360","39360","38576.5967","tc","null","null","null","null","null","null","[1,2]","","",""
"","canvas-keyboard-response","216","175486","0.0-6.0-0.30","569","","","","","pre trial waiting period","null","null","","","catch","l","sw","sh","192","294","187","195","207","169","trueblood","null","null","null","null","null","null","null","null","null","null","null","","180","200","260","200","36000","52000","[1,3]","429.4607255307906","488.026483052602","496.1191031284436"
"","canvas-keyboard-response","217","175506","0.0-6.0-1.30","569","","","","","clear_screen","null","null","","","catch","l","sw","sh","192","294","187","195","207","169","trueblood","null","null","null","null","null","null","null","null","null","null","null","","180","200","260","200","36000","52000","[1,3]","429.4607255307906","488.026483052602","496.1191031284436"
"","canvas-keyboard-response","218","176013","0.0-6.0-2.30","569","","","","","rectangles no change","null","null","","","catch","l","sw","sh","192","294","187","195","207","169","trueblood","null","null","null","null","null","null","null","null","null","null","null","","180","200","260","200","36000","52000","[1,3]","429.4607255307906","488.026483052602","496.1191031284436"
"","canvas-keyboard-response","219","177350","0.0-6.0-3.30","569","","","","","rectangles with change","null","null","","","catch","l","sw","sh","192","294","187","195","207","169","trueblood","null","null","null","null","null","null","null","null","null","null","null","","180","200","260","200","36000","52000","[1,3]","429.4607255307906","488.026483052602","496.1191031284436"
"","canvas-keyboard-response","220","177365","0.0-6.0-4.30","569","","","","","clear_screen","null","null","","","catch","l","sw","sh","192","294","187","195","207","169","trueblood","null","null","null","null","null","null","null","null","null","null","null","","180","200","260","200","36000","52000","[1,3]","429.4607255307906","488.026483052602","496.1191031284436"
"","canvas-keyboard-response","221","177973","0.0-6.0-5.30","569","","","","","make choice","602","1","","","catch","l","sw","sh","192","294","187","195","207","169","trueblood","null","null","null","null","null","null","null","null","null","null","null","","180","200","260","200","36000","52000","[1,3]","","",""
"","canvas-keyboard-response","222","177993","0.0-6.0-6.30","569","","","","","clear_screen","null","null","","","catch","l","sw","sh","192","294","187","195","207","169","trueblood","null","null","null","null","null","null","null","null","null","null","null","","180","200","260","200","36000","52000","[1,3]","","",""
"","canvas-keyboard-response","223","178194","0.0-6.0-0.31","569","","","","","pre trial waiting period","null","null","","","critical","c","t","d","240","164","164","240","164","240","trueblood","0","h","164","240","240","164","164","240","39360","39360","39360","dc","null","null","null","null","null","null","[3,1]","484.19404648678244","460.43017928280625","460.0380459051628"
"","canvas-keyboard-response","224","178214","0.0-6.0-1.31","569","","","","","clear_screen","null","null","","","critical","c","t","d","240","164","164","240","164","240","trueblood","0","h","164","240","240","164","164","240","39360","39360","39360","dc","null","null","null","null","null","null","[3,1]","484.19404648678244","460.43017928280625","460.0380459051628"
"","canvas-keyboard-response","225","178719","0.0-6.0-2.31","569","","","","","rectangles no change","null","null","","","critical","c","t","d","240","164","164","240","164","240","trueblood","0","h","164","240","240","164","164","240","39360","39360","39360","dc","null","null","null","null","null","null","[3,1]","484.19404648678244","460.43017928280625","460.0380459051628"
"","canvas-keyboard-response","226","180058","0.0-6.0-3.31","569","","","","","rectangles with change","null","null","","","critical","c","t","d","240","164","164","240","164","240","trueblood","0","h","164","240","240","164","164","240","39360","39360","39360","dc","null","null","null","null","null","null","[3,1]","484.19404648678244","460.43017928280625","460.0380459051628"
"","canvas-keyboard-response","227","180075","0.0-6.0-4.31","569","","","","","clear_screen","null","null","","","critical","c","t","d","240","164","164","240","164","240","trueblood","0","h","164","240","240","164","164","240","39360","39360","39360","dc","null","null","null","null","null","null","[3,1]","484.19404648678244","460.43017928280625","460.0380459051628"
"","canvas-keyboard-response","228","182946","0.0-6.0-5.31","569","","","","","make choice","2865","3","","","critical","c","t","d","240","164","164","240","164","240","trueblood","0","h","164","240","240","164","164","240","39360","39360","39360","dc","null","null","null","null","null","null","[3,1]","","",""
"","canvas-keyboard-response","229","182965","0.0-6.0-6.31","569","","","","","clear_screen","null","null","","","critical","c","t","d","240","164","164","240","164","240","trueblood","0","h","164","240","240","164","164","240","39360","39360","39360","dc","null","null","null","null","null","null","[3,1]","","",""
"","canvas-keyboard-response","230","183167","0.0-6.0-0.32","569","","","","","pre trial waiting period","null","null","","","critical","t","d","c","240","164","220.0396","154.6796","164","240","trueblood","0.14","w","240","164","164","240","220.0396","154.6796","39360","39360","34035.6388","td","null","null","null","null","null","null","[1,2]","492.0909341391621","513.9213425815786","426.8393473276729"
"","canvas-keyboard-response","231","183185","0.0-6.0-1.32","569","","","","","clear_screen","null","null","","","critical","t","d","c","240","164","220.0396","154.6796","164","240","trueblood","0.14","w","240","164","164","240","220.0396","154.6796","39360","39360","34035.6388","td","null","null","null","null","null","null","[1,2]","492.0909341391621","513.9213425815786","426.8393473276729"
"","canvas-keyboard-response","232","183692","0.0-6.0-2.32","569","","","","","rectangles no change","null","null","","","critical","t","d","c","240","164","220.0396","154.6796","164","240","trueblood","0.14","w","240","164","164","240","220.0396","154.6796","39360","39360","34035.6388","td","null","null","null","null","null","null","[1,2]","492.0909341391621","513.9213425815786","426.8393473276729"
"","canvas-keyboard-response","233","185027","0.0-6.0-3.32","569","","","","","rectangles with change","null","null","","","critical","t","d","c","240","164","220.0396","154.6796","164","240","trueblood","0.14","w","240","164","164","240","220.0396","154.6796","39360","39360","34035.6388","td","null","null","null","null","null","null","[1,2]","492.0909341391621","513.9213425815786","426.8393473276729"
"","canvas-keyboard-response","234","185048","0.0-6.0-4.32","569","","","","","clear_screen","null","null","","","critical","t","d","c","240","164","220.0396","154.6796","164","240","trueblood","0.14","w","240","164","164","240","220.0396","154.6796","39360","39360","34035.6388","td","null","null","null","null","null","null","[1,2]","492.0909341391621","513.9213425815786","426.8393473276729"
"","canvas-keyboard-response","235","185642","0.0-6.0-5.32","569","","","","","make choice","589","1","","","critical","t","d","c","240","164","220.0396","154.6796","164","240","trueblood","0.14","w","240","164","164","240","220.0396","154.6796","39360","39360","34035.6388","td","null","null","null","null","null","null","[1,2]","","",""
"","canvas-keyboard-response","236","185661","0.0-6.0-6.32","569","","","","","clear_screen","null","null","","","critical","t","d","c","240","164","220.0396","154.6796","164","240","trueblood","0.14","w","240","164","164","240","220.0396","154.6796","39360","39360","34035.6388","td","null","null","null","null","null","null","[1,2]","","",""
"","canvas-keyboard-response","237","185862","0.0-6.0-0.33","569","","","","","pre trial waiting period","null","null","","","critical","t","c","d","240","164","164","240","227.1683","158.0083","spektor","0.09","w","240","164","164","240","227.1683","158.0083","39360","39360","35894.4834","td","null","null","null","null","null","null","[1,3]","517.2217389722068","154.23790865535375","520.139470460756"
"","canvas-keyboard-response","238","185883","0.0-6.0-1.33","569","","","","","clear_screen","null","null","","","critical","t","c","d","240","164","164","240","227.1683","158.0083","spektor","0.09","w","240","164","164","240","227.1683","158.0083","39360","39360","35894.4834","td","null","null","null","null","null","null","[1,3]","517.2217389722068","154.23790865535375","520.139470460756"
"","canvas-keyboard-response","239","186393","0.0-6.0-2.33","569","","","","","rectangles no change","null","null","","","critical","t","c","d","240","164","164","240","227.1683","158.0083","spektor","0.09","w","240","164","164","240","227.1683","158.0083","39360","39360","35894.4834","td","null","null","null","null","null","null","[1,3]","517.2217389722068","154.23790865535375","520.139470460756"
"","canvas-keyboard-response","240","187723","0.0-6.0-3.33","569","","","","","rectangles with change","null","null","","","critical","t","c","d","240","164","164","240","227.1683","158.0083","spektor","0.09","w","240","164","164","240","227.1683","158.0083","39360","39360","35894.4834","td","null","null","null","null","null","null","[1,3]","517.2217389722068","154.23790865535375","520.139470460756"
"","canvas-keyboard-response","241","187746","0.0-6.0-4.33","569","","","","","clear_screen","null","null","","","critical","t","c","d","240","164","164","240","227.1683","158.0083","spektor","0.09","w","240","164","164","240","227.1683","158.0083","39360","39360","35894.4834","td","null","null","null","null","null","null","[1,3]","517.2217389722068","154.23790865535375","520.139470460756"
"","canvas-keyboard-response","242","189275","0.0-6.0-5.33","569","","","","","make choice","1523","1","","","critical","t","c","d","240","164","164","240","227.1683","158.0083","spektor","0.09","w","240","164","164","240","227.1683","158.0083","39360","39360","35894.4834","td","null","null","null","null","null","null","[1,3]","","",""
"","canvas-keyboard-response","243","189295","0.0-6.0-6.33","569","","","","","clear_screen","null","null","","","critical","t","c","d","240","164","164","240","227.1683","158.0083","spektor","0.09","w","240","164","164","240","227.1683","158.0083","39360","39360","35894.4834","td","null","null","null","null","null","null","[1,3]","","",""
"","canvas-keyboard-response","244","189496","0.0-6.0-0.34","569","","","","","pre trial waiting period","null","null","","","critical","t","c","d","240","164","164","240","240","164","trueblood","0","w","240","164","164","240","240","164","39360","39360","39360","dc","null","null","null","null","null","null","[3,2]","486.42297962735176","426.7526564395321","513.580151576335"
"","canvas-keyboard-response","245","189515","0.0-6.0-1.34","569","","","","","clear_screen","null","null","","","critical","t","c","d","240","164","164","240","240","164","trueblood","0","w","240","164","164","240","240","164","39360","39360","39360","dc","null","null","null","null","null","null","[3,2]","486.42297962735176","426.7526564395321","513.580151576335"
"","canvas-keyboard-response","246","190023","0.0-6.0-2.34","569","","","","","rectangles no change","null","null","","","critical","t","c","d","240","164","164","240","240","164","trueblood","0","w","240","164","164","240","240","164","39360","39360","39360","dc","null","null","null","null","null","null","[3,2]","486.42297962735176","426.7526564395321","513.580151576335"
"","canvas-keyboard-response","247","191357","0.0-6.0-3.34","569","","","","","rectangles with change","null","null","","","critical","t","c","d","240","164","164","240","240","164","trueblood","0","w","240","164","164","240","240","164","39360","39360","39360","dc","null","null","null","null","null","null","[3,2]","486.42297962735176","426.7526564395321","513.580151576335"
"","canvas-keyboard-response","248","191378","0.0-6.0-4.34","569","","","","","clear_screen","null","null","","","critical","t","c","d","240","164","164","240","240","164","trueblood","0","w","240","164","164","240","240","164","39360","39360","39360","dc","null","null","null","null","null","null","[3,2]","486.42297962735176","426.7526564395321","513.580151576335"
"","canvas-keyboard-response","249","192425","0.0-6.0-5.34","569","","","","","make choice","1041","3","","","critical","t","c","d","240","164","164","240","240","164","trueblood","0","w","240","164","164","240","240","164","39360","39360","39360","dc","null","null","null","null","null","null","[3,2]","","",""
"","canvas-keyboard-response","250","192443","0.0-6.0-6.34","569","","","","","clear_screen","null","null","","","critical","t","c","d","240","164","164","240","240","164","trueblood","0","w","240","164","164","240","240","164","39360","39360","39360","dc","null","null","null","null","null","null","[3,2]","","",""
"","canvas-keyboard-response","251","192644","0.0-6.0-0.35","569","","","","","pre trial waiting period","null","null","","","critical","t","d","c","164","240","154.6796","220.0396","240","164","spektor","0.14","h","164","240","240","164","154.6796","220.0396","39360","39360","34035.6388","tc","null","null","null","null","null","null","[1,3]","491.3557758784913","128.4960603417786","503.570491623364"
"","canvas-keyboard-response","252","192662","0.0-6.0-1.35","569","","","","","clear_screen","null","null","","","critical","t","d","c","164","240","154.6796","220.0396","240","164","spektor","0.14","h","164","240","240","164","154.6796","220.0396","39360","39360","34035.6388","tc","null","null","null","null","null","null","[1,3]","491.3557758784913","128.4960603417786","503.570491623364"
"","canvas-keyboard-response","253","193171","0.0-6.0-2.35","569","","","","","rectangles no change","null","null","","","critical","t","d","c","164","240","154.6796","220.0396","240","164","spektor","0.14","h","164","240","240","164","154.6796","220.0396","39360","39360","34035.6388","tc","null","null","null","null","null","null","[1,3]","491.3557758784913","128.4960603417786","503.570491623364"
"","canvas-keyboard-response","254","194508","0.0-6.0-3.35","569","","","","","rectangles with change","null","null","","","critical","t","d","c","164","240","154.6796","220.0396","240","164","spektor","0.14","h","164","240","240","164","154.6796","220.0396","39360","39360","34035.6388","tc","null","null","null","null","null","null","[1,3]","491.3557758784913","128.4960603417786","503.570491623364"
"","canvas-keyboard-response","255","194529","0.0-6.0-4.35","569","","","","","clear_screen","null","null","","","critical","t","d","c","164","240","154.6796","220.0396","240","164","spektor","0.14","h","164","240","240","164","154.6796","220.0396","39360","39360","34035.6388","tc","null","null","null","null","null","null","[1,3]","491.3557758784913","128.4960603417786","503.570491623364"
"","canvas-keyboard-response","256","195405","0.0-6.0-5.35","569","","","","","make choice","872","3","","","critical","t","d","c","164","240","154.6796","220.0396","240","164","spektor","0.14","h","164","240","240","164","154.6796","220.0396","39360","39360","34035.6388","tc","null","null","null","null","null","null","[1,3]","","",""
"","canvas-keyboard-response","257","195421","0.0-6.0-6.35","569","","","","","clear_screen","null","null","","","critical","t","d","c","164","240","154.6796","220.0396","240","164","spektor","0.14","h","164","240","240","164","154.6796","220.0396","39360","39360","34035.6388","tc","null","null","null","null","null","null","[1,3]","","",""
"","canvas-keyboard-response","258","195622","0.0-6.0-0.36","569","","","","","pre trial waiting period","null","null","","","catch","l","sw","sh","281","176","159","187","183","163","spektor","null","null","null","null","null","null","null","null","null","null","null","","180","200","260","200","36000","52000","[1,2]","494.40141095199186","191.59496257664995","542.8926939254741"
"","canvas-keyboard-response","259","195643","0.0-6.0-1.36","569","","","","","clear_screen","null","null","","","catch","l","sw","sh","281","176","159","187","183","163","spektor","null","null","null","null","null","null","null","null","null","null","null","","180","200","260","200","36000","52000","[1,2]","494.40141095199186","191.59496257664995","542.8926939254741"
"","canvas-keyboard-response","260","196147","0.0-6.0-2.36","569","","","","","rectangles no change","null","null","","","catch","l","sw","sh","281","176","159","187","183","163","spektor","null","null","null","null","null","null","null","null","null","null","null","","180","200","260","200","36000","52000","[1,2]","494.40141095199186","191.59496257664995","542.8926939254741"
"","canvas-keyboard-response","261","197482","0.0-6.0-3.36","569","","","","","rectangles with change","null","null","","","catch","l","sw","sh","281","176","159","187","183","163","spektor","null","null","null","null","null","null","null","null","null","null","null","","180","200","260","200","36000","52000","[1,2]","494.40141095199186","191.59496257664995","542.8926939254741"
"","canvas-keyboard-response","262","197503","0.0-6.0-4.36","569","","","","","clear_screen","null","null","","","catch","l","sw","sh","281","176","159","187","183","163","spektor","null","null","null","null","null","null","null","null","null","null","null","","180","200","260","200","36000","52000","[1,2]","494.40141095199186","191.59496257664995","542.8926939254741"
"","canvas-keyboard-response","263","198020","0.0-6.0-5.36","569","","","","","make choice","511","1","","","catch","l","sw","sh","281","176","159","187","183","163","spektor","null","null","null","null","null","null","null","null","null","null","null","","180","200","260","200","36000","52000","[1,2]","","",""
"","canvas-keyboard-response","264","198039","0.0-6.0-6.36","569","","","","","clear_screen","null","null","","","catch","l","sw","sh","281","176","159","187","183","163","spektor","null","null","null","null","null","null","null","null","null","null","null","","180","200","260","200","36000","52000","[1,2]","","",""
"","canvas-keyboard-response","265","198241","0.0-6.0-0.37","569","","","","","pre trial waiting period","null","null","","","catch","sh","l","sw","187","151","219","232","199","162","trueblood","null","null","null","null","null","null","null","null","null","null","null","","180","200","260","200","36000","52000","[1,2]","500.6181920395821","442.1412409664843","498.5240259669768"
"","canvas-keyboard-response","266","198262","0.0-6.0-1.37","569","","","","","clear_screen","null","null","","","catch","sh","l","sw","187","151","219","232","199","162","trueblood","null","null","null","null","null","null","null","null","null","null","null","","180","200","260","200","36000","52000","[1,2]","500.6181920395821","442.1412409664843","498.5240259669768"
"","canvas-keyboard-response","267","198768","0.0-6.0-2.37","569","","","","","rectangles no change","null","null","","","catch","sh","l","sw","187","151","219","232","199","162","trueblood","null","null","null","null","null","null","null","null","null","null","null","","180","200","260","200","36000","52000","[1,2]","500.6181920395821","442.1412409664843","498.5240259669768"
"","canvas-keyboard-response","268","200103","0.0-6.0-3.37","569","","","","","rectangles with change","null","null","","","catch","sh","l","sw","187","151","219","232","199","162","trueblood","null","null","null","null","null","null","null","null","null","null","null","","180","200","260","200","36000","52000","[1,2]","500.6181920395821","442.1412409664843","498.5240259669768"
