"success","trial_type","trial_index","time_elapsed","internal_node_id","sub_n","timeout","failed_images","failed_audio","failed_video","screen_id","rt","response","stimulus","view_history","trial","r1","r2","r3","w1","h1","w2","h2","w3","h3","display","tdd","tdo","tw","th","cw","ch","dw","dh","ta","ca","da","probe","csls","csss","clls","clss","sa","la","probe_rects","r1yloc","r2yloc","r3yloc"
"true","fullscreen","0","2703","0.0-0.0","502","","","","","","","","","","","","","","","","","","","","","","","","","","","","","","","","","","","","","","","","","",""
"true","preload","1","2745","0.0-1.0","502","false","[]","[]","[]","img preload","","","","","","","","","","","","","","","","","","","","","","","","","","","","","","","","","","","","",""
"","survey-html-form","2","28127","0.0-2.0","502","","","","","enter-sub-number","25371","{""response"":""502""}","","","","","","","","","","","","","","","","","","","","","","","","","","","","","","","","","","",""
"","image-button-response","3","57204","0.0-3.0","502","","","","","","29008","0","consent.png","","","","","","","","","","","","","","","","","","","","","","","","","","","","","","","","","",""
"","html-button-response","4","66044","0.0-4.0","502","","","","","intro mssg","8834","0","<div style= ""font-size:25px;"" <p> <strong> Welcome! </strong><br> <p style=""color:#8B0000; font-size:25px;""><strong> Please do NOT exit full screen until you are done with the experiment. </strong> </p><p style=""font-size:25px;color:#8B0000;""> <strong> Your data will be lost <br> if you try to go back or refresh the page after the experiment starts. Feel free to click ""previous"" during the instructions, however.</strong> </p><br><p> <strong> Thanks in advance for your contribution to our research! </strong></p>","","","","","","","","","","","","","","","","","","","","","","","","","","","","","","","","","",""
"","instructions","5","106054","0.0-5.0","502","","","","","instructions","40002","","","[{""page_index"":0,""viewing_time"":8482},{""page_index"":1,""viewing_time"":4525},{""page_index"":2,""viewing_time"":2546},{""page_index"":3,""viewing_time"":13727},{""page_index"":4,""viewing_time"":5161},{""page_index"":5,""viewing_time"":2695},{""page_index"":6,""viewing_time"":1625},{""page_index"":7,""viewing_time"":1241}]","","","","","","","","","","","","","","","","","","","","","","","","","","","","","","","","",""
"","canvas-keyboard-response","6","106260","0.0-6.0-0.0","502","","","","","pre trial waiting period","null","null","","","critical","d","t","c","164","240","164","240","240","164","trueblood","0","h","164","240","240","164","164","240","39360","39360","39360","dc","null","null","null","null","null","null","[1,3]","461.96747573536396","439.8763476424886","504.01648423648913"
"","canvas-keyboard-response","7","106284","0.0-6.0-1.0","502","","","","","clear_screen","null","null","","","critical","d","t","c","164","240","164","240","240","164","trueblood","0","h","164","240","240","164","164","240","39360","39360","39360","dc","null","null","null","null","null","null","[1,3]","461.96747573536396","439.8763476424886","504.01648423648913"
"","canvas-keyboard-response","8","106793","0.0-6.0-2.0","502","","","","","rectangles no change","null","null","","","critical","d","t","c","164","240","164","240","240","164","trueblood","0","h","164","240","240","164","164","240","39360","39360","39360","dc","null","null","null","null","null","null","[1,3]","461.96747573536396","439.8763476424886","504.01648423648913"
"","canvas-keyboard-response","9","108131","0.0-6.0-3.0","502","","","","","rectangles with change","null","null","","","critical","d","t","c","164","240","164","240","240","164","trueblood","0","h","164","240","240","164","164","240","39360","39360","39360","dc","null","null","null","null","null","null","[1,3]","461.96747573536396","439.8763476424886","504.01648423648913"
"","canvas-keyboard-response","10","108151","0.0-6.0-4.0","502","","","","","clear_screen","null","null","","","critical","d","t","c","164","240","164","240","240","164","trueblood","0","h","164","240","240","164","164","240","39360","39360","39360","dc","null","null","null","null","null","null","[1,3]","461.96747573536396","439.8763476424886","504.01648423648913"
"","canvas-keyboard-response","11","114261","0.0-6.0-5.0","502","","","","","make choice","6100","3","","","critical","d","t","c","164","240","164","240","240","164","trueblood","0","h","164","240","240","164","164","240","39360","39360","39360","dc","null","null","null","null","null","null","[1,3]","","",""
"","canvas-keyboard-response","12","114278","0.0-6.0-6.0","502","","","","","clear_screen","null","null","","","critical","d","t","c","164","240","164","240","240","164","trueblood","0","h","164","240","240","164","164","240","39360","39360","39360","dc","null","null","null","null","null","null","[1,3]","","",""
"","canvas-keyboard-response","13","114480","0.0-6.0-0.1","502","","","","","pre trial waiting period","null","null","","","critical","c","t","d","164","240","240","164","227.1683","158.0083","spektor","0.09","w","240","164","164","240","227.1683","158.0083","39360","39360","35894.4834","dc","null","null","null","null","null","null","[3,1]","483.4282359754336","179.55302744994762","503.95249337960655"
"","canvas-keyboard-response","14","114500","0.0-6.0-1.1","502","","","","","clear_screen","null","null","","","critical","c","t","d","164","240","240","164","227.1683","158.0083","spektor","0.09","w","240","164","164","240","227.1683","158.0083","39360","39360","35894.4834","dc","null","null","null","null","null","null","[3,1]","483.4282359754336","179.55302744994762","503.95249337960655"
"","canvas-keyboard-response","15","115008","0.0-6.0-2.1","502","","","","","rectangles no change","null","null","","","critical","c","t","d","164","240","240","164","227.1683","158.0083","spektor","0.09","w","240","164","164","240","227.1683","158.0083","39360","39360","35894.4834","dc","null","null","null","null","null","null","[3,1]","483.4282359754336","179.55302744994762","503.95249337960655"
"","canvas-keyboard-response","16","116345","0.0-6.0-3.1","502","","","","","rectangles with change","null","null","","","critical","c","t","d","164","240","240","164","227.1683","158.0083","spektor","0.09","w","240","164","164","240","227.1683","158.0083","39360","39360","35894.4834","dc","null","null","null","null","null","null","[3,1]","483.4282359754336","179.55302744994762","503.95249337960655"
"","canvas-keyboard-response","17","116366","0.0-6.0-4.1","502","","","","","clear_screen","null","null","","","critical","c","t","d","164","240","240","164","227.1683","158.0083","spektor","0.09","w","240","164","164","240","227.1683","158.0083","39360","39360","35894.4834","dc","null","null","null","null","null","null","[3,1]","483.4282359754336","179.55302744994762","503.95249337960655"
"","canvas-keyboard-response","18","119516","0.0-6.0-5.1","502","","","","","make choice","3140","1","","","critical","c","t","d","164","240","240","164","227.1683","158.0083","spektor","0.09","w","240","164","164","240","227.1683","158.0083","39360","39360","35894.4834","dc","null","null","null","null","null","null","[3,1]","","",""
"","canvas-keyboard-response","19","119535","0.0-6.0-6.1","502","","","","","clear_screen","null","null","","","critical","c","t","d","164","240","240","164","227.1683","158.0083","spektor","0.09","w","240","164","164","240","227.1683","158.0083","39360","39360","35894.4834","dc","null","null","null","null","null","null","[3,1]","","",""
"","canvas-keyboard-response","20","119736","0.0-6.0-0.2","502","","","","","pre trial waiting period","null","null","","","critical","d","c","t","160.6713","232.8713","240","164","164","240","spektor","0.05","h","164","240","240","164","160.6713","232.8713","39360","39360","37415.7294","dc","null","null","null","null","null","null","[1,2]","496.76618418772625","170.30159367999914","488.21764239017915"
"","canvas-keyboard-response","21","119758","0.0-6.0-1.2","502","","","","","clear_screen","null","null","","","critical","d","c","t","160.6713","232.8713","240","164","164","240","spektor","0.05","h","164","240","240","164","160.6713","232.8713","39360","39360","37415.7294","dc","null","null","null","null","null","null","[1,2]","496.76618418772625","170.30159367999914","488.21764239017915"
"","canvas-keyboard-response","22","120265","0.0-6.0-2.2","502","","","","","rectangles no change","null","null","","","critical","d","c","t","160.6713","232.8713","240","164","164","240","spektor","0.05","h","164","240","240","164","160.6713","232.8713","39360","39360","37415.7294","dc","null","null","null","null","null","null","[1,2]","496.76618418772625","170.30159367999914","488.21764239017915"
"","canvas-keyboard-response","23","121602","0.0-6.0-3.2","502","","","","","rectangles with change","null","null","","","critical","d","c","t","160.6713","232.8713","240","164","164","240","spektor","0.05","h","164","240","240","164","160.6713","232.8713","39360","39360","37415.7294","dc","null","null","null","null","null","null","[1,2]","496.76618418772625","170.30159367999914","488.21764239017915"
"","canvas-keyboard-response","24","121626","0.0-6.0-4.2","502","","","","","clear_screen","null","null","","","critical","d","c","t","160.6713","232.8713","240","164","164","240","spektor","0.05","h","164","240","240","164","160.6713","232.8713","39360","39360","37415.7294","dc","null","null","null","null","null","null","[1,2]","496.76618418772625","170.30159367999914","488.21764239017915"
"","canvas-keyboard-response","25","124611","0.0-6.0-5.2","502","","","","","make choice","2979","2","","","critical","d","c","t","160.6713","232.8713","240","164","164","240","spektor","0.05","h","164","240","240","164","160.6713","232.8713","39360","39360","37415.7294","dc","null","null","null","null","null","null","[1,2]","","",""
"","canvas-keyboard-response","26","124629","0.0-6.0-6.2","502","","","","","clear_screen","null","null","","","critical","d","c","t","160.6713","232.8713","240","164","164","240","spektor","0.05","h","164","240","240","164","160.6713","232.8713","39360","39360","37415.7294","dc","null","null","null","null","null","null","[1,2]","","",""
"","canvas-keyboard-response","27","124830","0.0-6.0-0.3","502","","","","","pre trial waiting period","null","null","","","catch","l","sw","sh","251","184","192","200","220","155","trueblood","null","null","null","null","null","null","null","null","null","null","null","","180","200","260","200","36000","52000","[1,2]","473.38697989805826","459.6281704526133","512.6209640244823"
"","canvas-keyboard-response","28","124854","0.0-6.0-1.3","502","","","","","clear_screen","null","null","","","catch","l","sw","sh","251","184","192","200","220","155","trueblood","null","null","null","null","null","null","null","null","null","null","null","","180","200","260","200","36000","52000","[1,2]","473.38697989805826","459.6281704526133","512.6209640244823"
"","canvas-keyboard-response","29","125360","0.0-6.0-2.3","502","","","","","rectangles no change","null","null","","","catch","l","sw","sh","251","184","192","200","220","155","trueblood","null","null","null","null","null","null","null","null","null","null","null","","180","200","260","200","36000","52000","[1,2]","473.38697989805826","459.6281704526133","512.6209640244823"
"","canvas-keyboard-response","30","126699","0.0-6.0-3.3","502","","","","","rectangles with change","null","null","","","catch","l","sw","sh","251","184","192","200","220","155","trueblood","null","null","null","null","null","null","null","null","null","null","null","","180","200","260","200","36000","52000","[1,2]","473.38697989805826","459.6281704526133","512.6209640244823"
"","canvas-keyboard-response","31","126722","0.0-6.0-4.3","502","","","","","clear_screen","null","null","","","catch","l","sw","sh","251","184","192","200","220","155","trueblood","null","null","null","null","null","null","null","null","null","null","null","","180","200","260","200","36000","52000","[1,2]","473.38697989805826","459.6281704526133","512.6209640244823"
"","canvas-keyboard-response","32","128620","0.0-6.0-5.3","502","","","","","make choice","1892","1","","","catch","l","sw","sh","251","184","192","200","220","155","trueblood","null","null","null","null","null","null","null","null","null","null","null","","180","200","260","200","36000","52000","[1,2]","","",""
"","canvas-keyboard-response","33","128639","0.0-6.0-6.3","502","","","","","clear_screen","null","null","","","catch","l","sw","sh","251","184","192","200","220","155","trueblood","null","null","null","null","null","null","null","null","null","null","null","","180","200","260","200","36000","52000","[1,2]","","",""
"","canvas-keyboard-response","34","128840","0.0-6.0-0.4","502","","","","","pre trial waiting period","null","null","","","critical","c","t","d","240","164","164","240","160.6713","232.8713","spektor","0.05","h","164","240","240","164","160.6713","232.8713","39360","39360","37415.7294","tc","null","null","null","null","null","null","[2,1]","515.0477050836595","132.0820979884467","477.81300598741376"
"","canvas-keyboard-response","35","128862","0.0-6.0-1.4","502","","","","","clear_screen","null","null","","","critical","c","t","d","240","164","164","240","160.6713","232.8713","spektor","0.05","h","164","240","240","164","160.6713","232.8713","39360","39360","37415.7294","tc","null","null","null","null","null","null","[2,1]","515.0477050836595","132.0820979884467","477.81300598741376"
"","canvas-keyboard-response","36","129372","0.0-6.0-2.4","502","","","","","rectangles no change","null","null","","","critical","c","t","d","240","164","164","240","160.6713","232.8713","spektor","0.05","h","164","240","240","164","160.6713","232.8713","39360","39360","37415.7294","tc","null","null","null","null","null","null","[2,1]","515.0477050836595","132.0820979884467","477.81300598741376"
"","canvas-keyboard-response","37","130708","0.0-6.0-3.4","502","","","","","rectangles with change","null","null","","","critical","c","t","d","240","164","164","240","160.6713","232.8713","spektor","0.05","h","164","240","240","164","160.6713","232.8713","39360","39360","37415.7294","tc","null","null","null","null","null","null","[2,1]","515.0477050836595","132.0820979884467","477.81300598741376"
"","canvas-keyboard-response","38","130727","0.0-6.0-4.4","502","","","","","clear_screen","null","null","","","critical","c","t","d","240","164","164","240","160.6713","232.8713","spektor","0.05","h","164","240","240","164","160.6713","232.8713","39360","39360","37415.7294","tc","null","null","null","null","null","null","[2,1]","515.0477050836595","132.0820979884467","477.81300598741376"
"","canvas-keyboard-response","39","132652","0.0-6.0-5.4","502","","","","","make choice","1918","1","","","critical","c","t","d","240","164","164","240","160.6713","232.8713","spektor","0.05","h","164","240","240","164","160.6713","232.8713","39360","39360","37415.7294","tc","null","null","null","null","null","null","[2,1]","","",""
"","canvas-keyboard-response","40","132670","0.0-6.0-6.4","502","","","","","clear_screen","null","null","","","critical","c","t","d","240","164","164","240","160.6713","232.8713","spektor","0.05","h","164","240","240","164","160.6713","232.8713","39360","39360","37415.7294","tc","null","null","null","null","null","null","[2,1]","","",""
"","canvas-keyboard-response","41","132872","0.0-6.0-0.5","502","","","","","pre trial waiting period","null","null","","","critical","t","c","d","164","240","240","164","154.6796","220.0396","trueblood","0.14","h","164","240","240","164","154.6796","220.0396","39360","39360","34035.6388","dc","null","null","null","null","null","null","[3,2]","423.1040109959244","502.11337563410433","451.82027968970306"
"","canvas-keyboard-response","42","132893","0.0-6.0-1.5","502","","","","","clear_screen","null","null","","","critical","t","c","d","164","240","240","164","154.6796","220.0396","trueblood","0.14","h","164","240","240","164","154.6796","220.0396","39360","39360","34035.6388","dc","null","null","null","null","null","null","[3,2]","423.1040109959244","502.11337563410433","451.82027968970306"
"","canvas-keyboard-response","43","133400","0.0-6.0-2.5","502","","","","","rectangles no change","null","null","","","critical","t","c","d","164","240","240","164","154.6796","220.0396","trueblood","0.14","h","164","240","240","164","154.6796","220.0396","39360","39360","34035.6388","dc","null","null","null","null","null","null","[3,2]","423.1040109959244","502.11337563410433","451.82027968970306"
"","canvas-keyboard-response","44","134735","0.0-6.0-3.5","502","","","","","rectangles with change","null","null","","","critical","t","c","d","164","240","240","164","154.6796","220.0396","trueblood","0.14","h","164","240","240","164","154.6796","220.0396","39360","39360","34035.6388","dc","null","null","null","null","null","null","[3,2]","423.1040109959244","502.11337563410433","451.82027968970306"
"","canvas-keyboard-response","45","134754","0.0-6.0-4.5","502","","","","","clear_screen","null","null","","","critical","t","c","d","164","240","240","164","154.6796","220.0396","trueblood","0.14","h","164","240","240","164","154.6796","220.0396","39360","39360","34035.6388","dc","null","null","null","null","null","null","[3,2]","423.1040109959244","502.11337563410433","451.82027968970306"
"","canvas-keyboard-response","46","136668","0.0-6.0-5.5","502","","","","","make choice","1907","2","","","critical","t","c","d","164","240","240","164","154.6796","220.0396","trueblood","0.14","h","164","240","240","164","154.6796","220.0396","39360","39360","34035.6388","dc","null","null","null","null","null","null","[3,2]","","",""
"","canvas-keyboard-response","47","136687","0.0-6.0-6.5","502","","","","","clear_screen","null","null","","","critical","t","c","d","164","240","240","164","154.6796","220.0396","trueblood","0.14","h","164","240","240","164","154.6796","220.0396","39360","39360","34035.6388","dc","null","null","null","null","null","null","[3,2]","","",""
"","canvas-keyboard-response","48","136888","0.0-6.0-0.6","502","","","","","pre trial waiting period","null","null","","","catch","sh","l","sw","226","184","225","245","165","210","trueblood","null","null","null","null","null","null","null","null","null","null","null","","180","200","260","200","36000","52000","[2,3]","499.6966557164974","449.0884986179227","482.37313887386983"
"","canvas-keyboard-response","49","136909","0.0-6.0-1.6","502","","","","","clear_screen","null","null","","","catch","sh","l","sw","226","184","225","245","165","210","trueblood","null","null","null","null","null","null","null","null","null","null","null","","180","200","260","200","36000","52000","[2,3]","499.6966557164974","449.0884986179227","482.37313887386983"
"","canvas-keyboard-response","50","137415","0.0-6.0-2.6","502","","","","","rectangles no change","null","null","","","catch","sh","l","sw","226","184","225","245","165","210","trueblood","null","null","null","null","null","null","null","null","null","null","null","","180","200","260","200","36000","52000","[2,3]","499.6966557164974","449.0884986179227","482.37313887386983"
"","canvas-keyboard-response","51","138751","0.0-6.0-3.6","502","","","","","rectangles with change","null","null","","","catch","sh","l","sw","226","184","225","245","165","210","trueblood","null","null","null","null","null","null","null","null","null","null","null","","180","200","260","200","36000","52000","[2,3]","499.6966557164974","449.0884986179227","482.37313887386983"
"","canvas-keyboard-response","52","138773","0.0-6.0-4.6","502","","","","","clear_screen","null","null","","","catch","sh","l","sw","226","184","225","245","165","210","trueblood","null","null","null","null","null","null","null","null","null","null","null","","180","200","260","200","36000","52000","[2,3]","499.6966557164974","449.0884986179227","482.37313887386983"
"","canvas-keyboard-response","53","140347","0.0-6.0-5.6","502","","","","","make choice","1568","2","","","catch","sh","l","sw","226","184","225","245","165","210","trueblood","null","null","null","null","null","null","null","null","null","null","null","","180","200","260","200","36000","52000","[2,3]","","",""
"","canvas-keyboard-response","54","140364","0.0-6.0-6.6","502","","","","","clear_screen","null","null","","","catch","sh","l","sw","226","184","225","245","165","210","trueblood","null","null","null","null","null","null","null","null","null","null","null","","180","200","260","200","36000","52000","[2,3]","","",""
"","canvas-keyboard-response","55","140566","0.0-6.0-0.7","502","","","","","pre trial waiting period","null","null","","","critical","c","d","t","164","240","227.1683","158.0083","240","164","trueblood","0.09","w","240","164","164","240","227.1683","158.0083","39360","39360","35894.4834","tc","null","null","null","null","null","null","[3,1]","435.3622889419681","508.840266611202","496.12303461264963"
"","canvas-keyboard-response","56","140587","0.0-6.0-1.7","502","","","","","clear_screen","null","null","","","critical","c","d","t","164","240","227.1683","158.0083","240","164","trueblood","0.09","w","240","164","164","240","227.1683","158.0083","39360","39360","35894.4834","tc","null","null","null","null","null","null","[3,1]","435.3622889419681","508.840266611202","496.12303461264963"
"","canvas-keyboard-response","57","141099","0.0-6.0-2.7","502","","","","","rectangles no change","null","null","","","critical","c","d","t","164","240","227.1683","158.0083","240","164","trueblood","0.09","w","240","164","164","240","227.1683","158.0083","39360","39360","35894.4834","tc","null","null","null","null","null","null","[3,1]","435.3622889419681","508.840266611202","496.12303461264963"
"","canvas-keyboard-response","58","142434","0.0-6.0-3.7","502","","","","","rectangles with change","null","null","","","critical","c","d","t","164","240","227.1683","158.0083","240","164","trueblood","0.09","w","240","164","164","240","227.1683","158.0083","39360","39360","35894.4834","tc","null","null","null","null","null","null","[3,1]","435.3622889419681","508.840266611202","496.12303461264963"
"","canvas-keyboard-response","59","142456","0.0-6.0-4.7","502","","","","","clear_screen","null","null","","","critical","c","d","t","164","240","227.1683","158.0083","240","164","trueblood","0.09","w","240","164","164","240","227.1683","158.0083","39360","39360","35894.4834","tc","null","null","null","null","null","null","[3,1]","435.3622889419681","508.840266611202","496.12303461264963"
"","canvas-keyboard-response","60","144596","0.0-6.0-5.7","502","","","","","make choice","2133","3","","","critical","c","d","t","164","240","227.1683","158.0083","240","164","trueblood","0.09","w","240","164","164","240","227.1683","158.0083","39360","39360","35894.4834","tc","null","null","null","null","null","null","[3,1]","","",""
"","canvas-keyboard-response","61","144619","0.0-6.0-6.7","502","","","","","clear_screen","null","null","","","critical","c","d","t","164","240","227.1683","158.0083","240","164","trueblood","0.09","w","240","164","164","240","227.1683","158.0083","39360","39360","35894.4834","tc","null","null","null","null","null","null","[3,1]","","",""
"","canvas-keyboard-response","62","144820","0.0-6.0-0.8","502","","","","","pre trial waiting period","null","null","","","critical","d","c","t","227.1683","158.0083","164","240","240","164","trueblood","0.09","w","240","164","164","240","227.1683","158.0083","39360","39360","35894.4834","td","null","null","null","null","null","null","[3,1]","480.7849437710814","434.8069098105489","480.7953538452546"
"","canvas-keyboard-response","63","144841","0.0-6.0-1.8","502","","","","","clear_screen","null","null","","","critical","d","c","t","227.1683","158.0083","164","240","240","164","trueblood","0.09","w","240","164","164","240","227.1683","158.0083","39360","39360","35894.4834","td","null","null","null","null","null","null","[3,1]","480.7849437710814","434.8069098105489","480.7953538452546"
"","canvas-keyboard-response","64","145349","0.0-6.0-2.8","502","","","","","rectangles no change","null","null","","","critical","d","c","t","227.1683","158.0083","164","240","240","164","trueblood","0.09","w","240","164","164","240","227.1683","158.0083","39360","39360","35894.4834","td","null","null","null","null","null","null","[3,1]","480.7849437710814","434.8069098105489","480.7953538452546"
"","canvas-keyboard-response","65","146686","0.0-6.0-3.8","502","","","","","rectangles with change","null","null","","","critical","d","c","t","227.1683","158.0083","164","240","240","164","trueblood","0.09","w","240","164","164","240","227.1683","158.0083","39360","39360","35894.4834","td","null","null","null","null","null","null","[3,1]","480.7849437710814","434.8069098105489","480.7953538452546"
"","canvas-keyboard-response","66","146710","0.0-6.0-4.8","502","","","","","clear_screen","null","null","","","critical","d","c","t","227.1683","158.0083","164","240","240","164","trueblood","0.09","w","240","164","164","240","227.1683","158.0083","39360","39360","35894.4834","td","null","null","null","null","null","null","[3,1]","480.7849437710814","434.8069098105489","480.7953538452546"
"","canvas-keyboard-response","67","150004","0.0-6.0-5.8","502","","","","","make choice","3287","3","","","critical","d","c","t","227.1683","158.0083","164","240","240","164","trueblood","0.09","w","240","164","164","240","227.1683","158.0083","39360","39360","35894.4834","td","null","null","null","null","null","null","[3,1]","","",""
"","canvas-keyboard-response","68","150025","0.0-6.0-6.8","502","","","","","clear_screen","null","null","","","critical","d","c","t","227.1683","158.0083","164","240","240","164","trueblood","0.09","w","240","164","164","240","227.1683","158.0083","39360","39360","35894.4834","td","null","null","null","null","null","null","[3,1]","","",""
"","canvas-keyboard-response","69","150227","0.0-6.0-0.9","502","","","","","pre trial waiting period","null","null","","","critical","t","d","c","240","164","232.8713","160.6713","164","240","trueblood","0.05","w","240","164","164","240","232.8713","160.6713","39360","39360","37415.7294","td","null","null","null","null","null","null","[1,2]","491.95977598180554","488.73808442373894","428.58885099640594"
"","canvas-keyboard-response","70","150247","0.0-6.0-1.9","502","","","","","clear_screen","null","null","","","critical","t","d","c","240","164","232.8713","160.6713","164","240","trueblood","0.05","w","240","164","164","240","232.8713","160.6713","39360","39360","37415.7294","td","null","null","null","null","null","null","[1,2]","491.95977598180554","488.73808442373894","428.58885099640594"
"","canvas-keyboard-response","71","150753","0.0-6.0-2.9","502","","","","","rectangles no change","null","null","","","critical","t","d","c","240","164","232.8713","160.6713","164","240","trueblood","0.05","w","240","164","164","240","232.8713","160.6713","39360","39360","37415.7294","td","null","null","null","null","null","null","[1,2]","491.95977598180554","488.73808442373894","428.58885099640594"
"","canvas-keyboard-response","72","152090","0.0-6.0-3.9","502","","","","","rectangles with change","null","null","","","critical","t","d","c","240","164","232.8713","160.6713","164","240","trueblood","0.05","w","240","164","164","240","232.8713","160.6713","39360","39360","37415.7294","td","null","null","null","null","null","null","[1,2]","491.95977598180554","488.73808442373894","428.58885099640594"
"","canvas-keyboard-response","73","152111","0.0-6.0-4.9","502","","","","","clear_screen","null","null","","","critical","t","d","c","240","164","232.8713","160.6713","164","240","trueblood","0.05","w","240","164","164","240","232.8713","160.6713","39360","39360","37415.7294","td","null","null","null","null","null","null","[1,2]","491.95977598180554","488.73808442373894","428.58885099640594"
"","canvas-keyboard-response","74","153475","0.0-6.0-5.9","502","","","","","make choice","1358","1","","","critical","t","d","c","240","164","232.8713","160.6713","164","240","trueblood","0.05","w","240","164","164","240","232.8713","160.6713","39360","39360","37415.7294","td","null","null","null","null","null","null","[1,2]","","",""
"","canvas-keyboard-response","75","153498","0.0-6.0-6.9","502","","","","","clear_screen","null","null","","","critical","t","d","c","240","164","232.8713","160.6713","164","240","trueblood","0.05","w","240","164","164","240","232.8713","160.6713","39360","39360","37415.7294","td","null","null","null","null","null","null","[1,2]","","",""
"","canvas-keyboard-response","76","153699","0.0-6.0-0.10","502","","","","","pre trial waiting period","null","null","","","catch","sh","sw","l","178","148","153","172","180","227","spektor","null","null","null","null","null","null","null","null","null","null","null","","180","200","260","200","36000","52000","[2,3]","526.3149200635596","209.78871965302477","472.23209276399626"
"","canvas-keyboard-response","77","153720","0.0-6.0-1.10","502","","","","","clear_screen","null","null","","","catch","sh","sw","l","178","148","153","172","180","227","spektor","null","null","null","null","null","null","null","null","null","null","null","","180","200","260","200","36000","52000","[2,3]","526.3149200635596","209.78871965302477","472.23209276399626"
"","canvas-keyboard-response","78","154229","0.0-6.0-2.10","502","","","","","rectangles no change","null","null","","","catch","sh","sw","l","178","148","153","172","180","227","spektor","null","null","null","null","null","null","null","null","null","null","null","","180","200","260","200","36000","52000","[2,3]","526.3149200635596","209.78871965302477","472.23209276399626"
"","canvas-keyboard-response","79","155567","0.0-6.0-3.10","502","","","","","rectangles with change","null","null","","","catch","sh","sw","l","178","148","153","172","180","227","spektor","null","null","null","null","null","null","null","null","null","null","null","","180","200","260","200","36000","52000","[2,3]","526.3149200635596","209.78871965302477","472.23209276399626"
"","canvas-keyboard-response","80","155586","0.0-6.0-4.10","502","","","","","clear_screen","null","null","","","catch","sh","sw","l","178","148","153","172","180","227","spektor","null","null","null","null","null","null","null","null","null","null","null","","180","200","260","200","36000","52000","[2,3]","526.3149200635596","209.78871965302477","472.23209276399626"
"","canvas-keyboard-response","81","158067","0.0-6.0-5.10","502","","","","","make choice","2473","3","","","catch","sh","sw","l","178","148","153","172","180","227","spektor","null","null","null","null","null","null","null","null","null","null","null","","180","200","260","200","36000","52000","[2,3]","","",""
"","canvas-keyboard-response","82","158087","0.0-6.0-6.10","502","","","","","clear_screen","null","null","","","catch","sh","sw","l","178","148","153","172","180","227","spektor","null","null","null","null","null","null","null","null","null","null","null","","180","200","260","200","36000","52000","[2,3]","","",""
"","canvas-keyboard-response","83","158287","0.0-6.0-0.11","502","","","","","pre trial waiting period","null","null","","","critical","c","t","d","240","164","164","240","164","240","spektor","0","h","164","240","240","164","164","240","39360","39360","39360","tc","null","null","null","null","null","null","[2,1]","538.3797880680379","133.8221567074806","464.5438417613726"
"","canvas-keyboard-response","84","158307","0.0-6.0-1.11","502","","","","","clear_screen","null","null","","","critical","c","t","d","240","164","164","240","164","240","spektor","0","h","164","240","240","164","164","240","39360","39360","39360","tc","null","null","null","null","null","null","[2,1]","538.3797880680379","133.8221567074806","464.5438417613726"
"","canvas-keyboard-response","85","158817","0.0-6.0-2.11","502","","","","","rectangles no change","null","null","","","critical","c","t","d","240","164","164","240","164","240","spektor","0","h","164","240","240","164","164","240","39360","39360","39360","tc","null","null","null","null","null","null","[2,1]","538.3797880680379","133.8221567074806","464.5438417613726"
"","canvas-keyboard-response","86","160152","0.0-6.0-3.11","502","","","","","rectangles with change","null","null","","","critical","c","t","d","240","164","164","240","164","240","spektor","0","h","164","240","240","164","164","240","39360","39360","39360","tc","null","null","null","null","null","null","[2,1]","538.3797880680379","133.8221567074806","464.5438417613726"
"","canvas-keyboard-response","87","160170","0.0-6.0-4.11","502","","","","","clear_screen","null","null","","","critical","c","t","d","240","164","164","240","164","240","spektor","0","h","164","240","240","164","164","240","39360","39360","39360","tc","null","null","null","null","null","null","[2,1]","538.3797880680379","133.8221567074806","464.5438417613726"
"","canvas-keyboard-response","88","161627","0.0-6.0-5.11","502","","","","","make choice","1451","1","","","critical","c","t","d","240","164","164","240","164","240","spektor","0","h","164","240","240","164","164","240","39360","39360","39360","tc","null","null","null","null","null","null","[2,1]","","",""
"","canvas-keyboard-response","89","161647","0.0-6.0-6.11","502","","","","","clear_screen","null","null","","","critical","c","t","d","240","164","164","240","164","240","spektor","0","h","164","240","240","164","164","240","39360","39360","39360","tc","null","null","null","null","null","null","[2,1]","","",""
"","canvas-keyboard-response","90","161848","0.0-6.0-0.12","502","","","","","pre trial waiting period","null","null","","","critical","t","c","d","164","240","240","164","158.0083","227.1683","spektor","0.09","h","164","240","240","164","158.0083","227.1683","39360","39360","35894.4834","tc","null","null","null","null","null","null","[1,2]","481.3429052296408","164.2860255791378","487.90146035511924"
"","canvas-keyboard-response","91","161869","0.0-6.0-1.12","502","","","","","clear_screen","null","null","","","critical","t","c","d","164","240","240","164","158.0083","227.1683","spektor","0.09","h","164","240","240","164","158.0083","227.1683","39360","39360","35894.4834","tc","null","null","null","null","null","null","[1,2]","481.3429052296408","164.2860255791378","487.90146035511924"
"","canvas-keyboard-response","92","162376","0.0-6.0-2.12","502","","","","","rectangles no change","null","null","","","critical","t","c","d","164","240","240","164","158.0083","227.1683","spektor","0.09","h","164","240","240","164","158.0083","227.1683","39360","39360","35894.4834","tc","null","null","null","null","null","null","[1,2]","481.3429052296408","164.2860255791378","487.90146035511924"
"","canvas-keyboard-response","93","163712","0.0-6.0-3.12","502","","","","","rectangles with change","null","null","","","critical","t","c","d","164","240","240","164","158.0083","227.1683","spektor","0.09","h","164","240","240","164","158.0083","227.1683","39360","39360","35894.4834","tc","null","null","null","null","null","null","[1,2]","481.3429052296408","164.2860255791378","487.90146035511924"
"","canvas-keyboard-response","94","163730","0.0-6.0-4.12","502","","","","","clear_screen","null","null","","","critical","t","c","d","164","240","240","164","158.0083","227.1683","spektor","0.09","h","164","240","240","164","158.0083","227.1683","39360","39360","35894.4834","tc","null","null","null","null","null","null","[1,2]","481.3429052296408","164.2860255791378","487.90146035511924"
"","canvas-keyboard-response","95","165291","0.0-6.0-5.12","502","","","","","make choice","1555","2","","","critical","t","c","d","164","240","240","164","158.0083","227.1683","spektor","0.09","h","164","240","240","164","158.0083","227.1683","39360","39360","35894.4834","tc","null","null","null","null","null","null","[1,2]","","",""
"","canvas-keyboard-response","96","165311","0.0-6.0-6.12","502","","","","","clear_screen","null","null","","","critical","t","c","d","164","240","240","164","158.0083","227.1683","spektor","0.09","h","164","240","240","164","158.0083","227.1683","39360","39360","35894.4834","tc","null","null","null","null","null","null","[1,2]","","",""
"","canvas-keyboard-response","97","165513","0.0-6.0-0.13","502","","","","","pre trial waiting period","null","null","","","critical","c","t","d","164","240","240","164","232.8713","160.6713","trueblood","0.05","w","240","164","164","240","232.8713","160.6713","39360","39360","37415.7294","dc","null","null","null","null","null","null","[3,1]","443.54182891580047","498.6890811391754","483.8445944663299"
"","canvas-keyboard-response","98","165533","0.0-6.0-1.13","502","","","","","clear_screen","null","null","","","critical","c","t","d","164","240","240","164","232.8713","160.6713","trueblood","0.05","w","240","164","164","240","232.8713","160.6713","39360","39360","37415.7294","dc","null","null","null","null","null","null","[3,1]","443.54182891580047","498.6890811391754","483.8445944663299"
"","canvas-keyboard-response","99","166041","0.0-6.0-2.13","502","","","","","rectangles no change","null","null","","","critical","c","t","d","164","240","240","164","232.8713","160.6713","trueblood","0.05","w","240","164","164","240","232.8713","160.6713","39360","39360","37415.7294","dc","null","null","null","null","null","null","[3,1]","443.54182891580047","498.6890811391754","483.8445944663299"
"","canvas-keyboard-response","100","167379","0.0-6.0-3.13","502","","","","","rectangles with change","null","null","","","critical","c","t","d","164","240","240","164","232.8713","160.6713","trueblood","0.05","w","240","164","164","240","232.8713","160.6713","39360","39360","37415.7294","dc","null","null","null","null","null","null","[3,1]","443.54182891580047","498.6890811391754","483.8445944663299"
"","canvas-keyboard-response","101","167402","0.0-6.0-4.13","502","","","","","clear_screen","null","null","","","critical","c","t","d","164","240","240","164","232.8713","160.6713","trueblood","0.05","w","240","164","164","240","232.8713","160.6713","39360","39360","37415.7294","dc","null","null","null","null","null","null","[3,1]","443.54182891580047","498.6890811391754","483.8445944663299"
"","canvas-keyboard-response","102","169482","0.0-6.0-5.13","502","","","","","make choice","2072","3","","","critical","c","t","d","164","240","240","164","232.8713","160.6713","trueblood","0.05","w","240","164","164","240","232.8713","160.6713","39360","39360","37415.7294","dc","null","null","null","null","null","null","[3,1]","","",""
"","canvas-keyboard-response","103","169496","0.0-6.0-6.13","502","","","","","clear_screen","null","null","","","critical","c","t","d","164","240","240","164","232.8713","160.6713","trueblood","0.05","w","240","164","164","240","232.8713","160.6713","39360","39360","37415.7294","dc","null","null","null","null","null","null","[3,1]","","",""
"","canvas-keyboard-response","104","169696","0.0-6.0-0.14","502","","","","","pre trial waiting period","null","null","","","catch","l","sw","sh","190","255","219","174","172","164","spektor","null","null","null","null","null","null","null","null","null","null","null","","180","200","260","200","36000","52000","[1,3]","495.10425523885704","161.7906255465235","518.3201282293946"
"","canvas-keyboard-response","105","169717","0.0-6.0-1.14","502","","","","","clear_screen","null","null","","","catch","l","sw","sh","190","255","219","174","172","164","spektor","null","null","null","null","null","null","null","null","null","null","null","","180","200","260","200","36000","52000","[1,3]","495.10425523885704","161.7906255465235","518.3201282293946"
"","canvas-keyboard-response","106","170224","0.0-6.0-2.14","502","","","","","rectangles no change","null","null","","","catch","l","sw","sh","190","255","219","174","172","164","spektor","null","null","null","null","null","null","null","null","null","null","null","","180","200","260","200","36000","52000","[1,3]","495.10425523885704","161.7906255465235","518.3201282293946"
"","canvas-keyboard-response","107","171562","0.0-6.0-3.14","502","","","","","rectangles with change","null","null","","","catch","l","sw","sh","190","255","219","174","172","164","spektor","null","null","null","null","null","null","null","null","null","null","null","","180","200","260","200","36000","52000","[1,3]","495.10425523885704","161.7906255465235","518.3201282293946"
"","canvas-keyboard-response","108","171581","0.0-6.0-4.14","502","","","","","clear_screen","null","null","","","catch","l","sw","sh","190","255","219","174","172","164","spektor","null","null","null","null","null","null","null","null","null","null","null","","180","200","260","200","36000","52000","[1,3]","495.10425523885704","161.7906255465235","518.3201282293946"
"","canvas-keyboard-response","109","173212","0.0-6.0-5.14","502","","","","","make choice","1626","1","","","catch","l","sw","sh","190","255","219","174","172","164","spektor","null","null","null","null","null","null","null","null","null","null","null","","180","200","260","200","36000","52000","[1,3]","","",""
"","canvas-keyboard-response","110","173231","0.0-6.0-6.14","502","","","","","clear_screen","null","null","","","catch","l","sw","sh","190","255","219","174","172","164","spektor","null","null","null","null","null","null","null","null","null","null","null","","180","200","260","200","36000","52000","[1,3]","","",""
"","canvas-keyboard-response","111","173431","0.0-6.0-0.15","502","","","","","pre trial waiting period","null","null","","","catch","sw","l","sh","180","200","258","204","170","213","trueblood","null","null","null","null","null","null","null","null","null","null","null","","180","200","260","200","36000","52000","[1,2]","449.8667176514754","489.876043010535","438.0554629995916"
"","canvas-keyboard-response","112","173454","0.0-6.0-1.15","502","","","","","clear_screen","null","null","","","catch","sw","l","sh","180","200","258","204","170","213","trueblood","null","null","null","null","null","null","null","null","null","null","null","","180","200","260","200","36000","52000","[1,2]","449.8667176514754","489.876043010535","438.0554629995916"
"","canvas-keyboard-response","113","173963","0.0-6.0-2.15","502","","","","","rectangles no change","null","null","","","catch","sw","l","sh","180","200","258","204","170","213","trueblood","null","null","null","null","null","null","null","null","null","null","null","","180","200","260","200","36000","52000","[1,2]","449.8667176514754","489.876043010535","438.0554629995916"
"","canvas-keyboard-response","114","175300","0.0-6.0-3.15","502","","","","","rectangles with change","null","null","","","catch","sw","l","sh","180","200","258","204","170","213","trueblood","null","null","null","null","null","null","null","null","null","null","null","","180","200","260","200","36000","52000","[1,2]","449.8667176514754","489.876043010535","438.0554629995916"
"","canvas-keyboard-response","115","175319","0.0-6.0-4.15","502","","","","","clear_screen","null","null","","","catch","sw","l","sh","180","200","258","204","170","213","trueblood","null","null","null","null","null","null","null","null","null","null","null","","180","200","260","200","36000","52000","[1,2]","449.8667176514754","489.876043010535","438.0554629995916"
"","canvas-keyboard-response","116","178437","0.0-6.0-5.15","502","","","","","make choice","3109","2","","","catch","sw","l","sh","180","200","258","204","170","213","trueblood","null","null","null","null","null","null","null","null","null","null","null","","180","200","260","200","36000","52000","[1,2]","","",""
"","canvas-keyboard-response","117","178457","0.0-6.0-6.15","502","","","","","clear_screen","null","null","","","catch","sw","l","sh","180","200","258","204","170","213","trueblood","null","null","null","null","null","null","null","null","null","null","null","","180","200","260","200","36000","52000","[1,2]","","",""
"","canvas-keyboard-response","118","178659","0.0-6.0-0.16","502","","","","","pre trial waiting period","null","null","","","critical","t","c","d","164","240","240","164","158.0083","227.1683","spektor","0.09","h","164","240","240","164","158.0083","227.1683","39360","39360","35894.4834","dc","null","null","null","null","null","null","[3,2]","462.875031751703","155.9713949729055","489.7330518469032"
"","canvas-keyboard-response","119","178680","0.0-6.0-1.16","502","","","","","clear_screen","null","null","","","critical","t","c","d","164","240","240","164","158.0083","227.1683","spektor","0.09","h","164","240","240","164","158.0083","227.1683","39360","39360","35894.4834","dc","null","null","null","null","null","null","[3,2]","462.875031751703","155.9713949729055","489.7330518469032"
"","canvas-keyboard-response","120","179190","0.0-6.0-2.16","502","","","","","rectangles no change","null","null","","","critical","t","c","d","164","240","240","164","158.0083","227.1683","spektor","0.09","h","164","240","240","164","158.0083","227.1683","39360","39360","35894.4834","dc","null","null","null","null","null","null","[3,2]","462.875031751703","155.9713949729055","489.7330518469032"
"","canvas-keyboard-response","121","180525","0.0-6.0-3.16","502","","","","","rectangles with change","null","null","","","critical","t","c","d","164","240","240","164","158.0083","227.1683","spektor","0.09","h","164","240","240","164","158.0083","227.1683","39360","39360","35894.4834","dc","null","null","null","null","null","null","[3,2]","462.875031751703","155.9713949729055","489.7330518469032"
"","canvas-keyboard-response","122","180545","0.0-6.0-4.16","502","","","","","clear_screen","null","null","","","critical","t","c","d","164","240","240","164","158.0083","227.1683","spektor","0.09","h","164","240","240","164","158.0083","227.1683","39360","39360","35894.4834","dc","null","null","null","null","null","null","[3,2]","462.875031751703","155.9713949729055","489.7330518469032"
"","canvas-keyboard-response","123","183108","0.0-6.0-5.16","502","","","","","make choice","2555","2","","","critical","t","c","d","164","240","240","164","158.0083","227.1683","spektor","0.09","h","164","240","240","164","158.0083","227.1683","39360","39360","35894.4834","dc","null","null","null","null","null","null","[3,2]","","",""
"","canvas-keyboard-response","124","183128","0.0-6.0-6.16","502","","","","","clear_screen","null","null","","","critical","t","c","d","164","240","240","164","158.0083","227.1683","spektor","0.09","h","164","240","240","164","158.0083","227.1683","39360","39360","35894.4834","dc","null","null","null","null","null","null","[3,2]","","",""
"","canvas-keyboard-response","125","183329","0.0-6.0-0.17","502","","","","","pre trial waiting period","null","null","","","catch","l","sh","sw","164","220","215","153","192","213","trueblood","null","null","null","null","null","null","null","null","null","null","null","","180","200","260","200","36000","52000","[1,2]","473.1796997289284","483.20708843578757","484.3969168226854"
"","canvas-keyboard-response","126","183349","0.0-6.0-1.17","502","","","","","clear_screen","null","null","","","catch","l","sh","sw","164","220","215","153","192","213","trueblood","null","null","null","null","null","null","null","null","null","null","null","","180","200","260","200","36000","52000","[1,2]","473.1796997289284","483.20708843578757","484.3969168226854"
"","canvas-keyboard-response","127","183858","0.0-6.0-2.17","502","","","","","rectangles no change","null","null","","","catch","l","sh","sw","164","220","215","153","192","213","trueblood","null","null","null","null","null","null","null","null","null","null","null","","180","200","260","200","36000","52000","[1,2]","473.1796997289284","483.20708843578757","484.3969168226854"
"","canvas-keyboard-response","128","185195","0.0-6.0-3.17","502","","","","","rectangles with change","null","null","","","catch","l","sh","sw","164","220","215","153","192","213","trueblood","null","null","null","null","null","null","null","null","null","null","null","","180","200","260","200","36000","52000","[1,2]","473.1796997289284","483.20708843578757","484.3969168226854"
"","canvas-keyboard-response","129","185219","0.0-6.0-4.17","502","","","","","clear_screen","null","null","","","catch","l","sh","sw","164","220","215","153","192","213","trueblood","null","null","null","null","null","null","null","null","null","null","null","","180","200","260","200","36000","52000","[1,2]","473.1796997289284","483.20708843578757","484.3969168226854"
"","canvas-keyboard-response","130","187371","0.0-6.0-5.17","502","","","","","make choice","2140","2","","","catch","l","sh","sw","164","220","215","153","192","213","trueblood","null","null","null","null","null","null","null","null","null","null","null","","180","200","260","200","36000","52000","[1,2]","","",""
"","canvas-keyboard-response","131","187391","0.0-6.0-6.17","502","","","","","clear_screen","null","null","","","catch","l","sh","sw","164","220","215","153","192","213","trueblood","null","null","null","null","null","null","null","null","null","null","null","","180","200","260","200","36000","52000","[1,2]","","",""
"","canvas-keyboard-response","132","187592","0.0-6.0-0.18","502","","","","","pre trial waiting period","null","null","","","critical","c","t","d","240","164","164","240","164","240","trueblood","0","h","164","240","240","164","164","240","39360","39360","39360","td","null","null","null","null","null","null","[2,3]","469.92643167554866","420.25766859800336","451.39457041472383"
"","canvas-keyboard-response","133","187613","0.0-6.0-1.18","502","","","","","clear_screen","null","null","","","critical","c","t","d","240","164","164","240","164","240","trueblood","0","h","164","240","240","164","164","240","39360","39360","39360","td","null","null","null","null","null","null","[2,3]","469.92643167554866","420.25766859800336","451.39457041472383"
"","canvas-keyboard-response","134","188122","0.0-6.0-2.18","502","","","","","rectangles no change","null","null","","","critical","c","t","d","240","164","164","240","164","240","trueblood","0","h","164","240","240","164","164","240","39360","39360","39360","td","null","null","null","null","null","null","[2,3]","469.92643167554866","420.25766859800336","451.39457041472383"
"","canvas-keyboard-response","135","189457","0.0-6.0-3.18","502","","","","","rectangles with change","null","null","","","critical","c","t","d","240","164","164","240","164","240","trueblood","0","h","164","240","240","164","164","240","39360","39360","39360","td","null","null","null","null","null","null","[2,3]","469.92643167554866","420.25766859800336","451.39457041472383"
"","canvas-keyboard-response","136","189478","0.0-6.0-4.18","502","","","","","clear_screen","null","null","","","critical","c","t","d","240","164","164","240","164","240","trueblood","0","h","164","240","240","164","164","240","39360","39360","39360","td","null","null","null","null","null","null","[2,3]","469.92643167554866","420.25766859800336","451.39457041472383"
"","canvas-keyboard-response","137","196060","0.0-6.0-5.18","502","","","","","make choice","6577","3","","","critical","c","t","d","240","164","164","240","164","240","trueblood","0","h","164","240","240","164","164","240","39360","39360","39360","td","null","null","null","null","null","null","[2,3]","","",""
"","canvas-keyboard-response","138","196078","0.0-6.0-6.18","502","","","","","clear_screen","null","null","","","critical","c","t","d","240","164","164","240","164","240","trueblood","0","h","164","240","240","164","164","240","39360","39360","39360","td","null","null","null","null","null","null","[2,3]","","",""
"","canvas-keyboard-response","139","196279","0.0-6.0-0.19","502","","","","","pre trial waiting period","null","null","","","critical","t","d","c","240","164","220.0396","154.6796","164","240","spektor","0.14","w","240","164","164","240","220.0396","154.6796","39360","39360","34035.6388","dc","null","null","null","null","null","null","[2,3]","520.2765824308811","178.68369890282236","466.3649068675781"
"","canvas-keyboard-response","140","196300","0.0-6.0-1.19","502","","","","","clear_screen","null","null","","","critical","t","d","c","240","164","220.0396","154.6796","164","240","spektor","0.14","w","240","164","164","240","220.0396","154.6796","39360","39360","34035.6388","dc","null","null","null","null","null","null","[2,3]","520.2765824308811","178.68369890282236","466.3649068675781"
"","canvas-keyboard-response","141","196807","0.0-6.0-2.19","502","","","","","rectangles no change","null","null","","","critical","t","d","c","240","164","220.0396","154.6796","164","240","spektor","0.14","w","240","164","164","240","220.0396","154.6796","39360","39360","34035.6388","dc","null","null","null","null","null","null","[2,3]","520.2765824308811","178.68369890282236","466.3649068675781"
"","canvas-keyboard-response","142","198141","0.0-6.0-3.19","502","","","","","rectangles with change","null","null","","","critical","t","d","c","240","164","220.0396","154.6796","164","240","spektor","0.14","w","240","164","164","240","220.0396","154.6796","39360","39360","34035.6388","dc","null","null","null","null","null","null","[2,3]","520.2765824308811","178.68369890282236","466.3649068675781"
"","canvas-keyboard-response","143","198162","0.0-6.0-4.19","502","","","","","clear_screen","null","null","","","critical","t","d","c","240","164","220.0396","154.6796","164","240","spektor","0.14","w","240","164","164","240","220.0396","154.6796","39360","39360","34035.6388","dc","null","null","null","null","null","null","[2,3]","520.2765824308811","178.68369890282236","466.3649068675781"
"","canvas-keyboard-response","144","200068","0.0-6.0-5.19","502","","","","","make choice","1898","2","","","critical","t","d","c","240","164","220.0396","154.6796","164","240","spektor","0.14","w","240","164","164","240","220.0396","154.6796","39360","39360","34035.6388","dc","null","null","null","null","null","null","[2,3]","","",""
"","canvas-keyboard-response","145","200085","0.0-6.0-6.19","502","","","","","clear_screen","null","null","","","critical","t","d","c","240","164","220.0396","154.6796","164","240","spektor","0.14","w","240","164","164","240","220.0396","154.6796","39360","39360","34035.6388","dc","null","null","null","null","null","null","[2,3]","","",""
"","canvas-keyboard-response","146","200287","0.0-6.0-0.20","502","","","","","pre trial waiting period","null","null","","","critical","d","c","t","162.6685","237.1485","240","164","164","240","trueblood","0.02","h","164","240","240","164","162.6685","237.1485","39360","39360","38576.5967","td","null","null","null","null","null","null","[3,1]","428.30748302224737","511.11350027540436","457.1940380228424"
"","canvas-keyboard-response","147","200306","0.0-6.0-1.20","502","","","","","clear_screen","null","null","","","critical","d","c","t","162.6685","237.1485","240","164","164","240","trueblood","0.02","h","164","240","240","164","162.6685","237.1485","39360","39360","38576.5967","td","null","null","null","null","null","null","[3,1]","428.30748302224737","511.11350027540436","457.1940380228424"
"","canvas-keyboard-response","148","200813","0.0-6.0-2.20","502","","","","","rectangles no change","null","null","","","critical","d","c","t","162.6685","237.1485","240","164","164","240","trueblood","0.02","h","164","240","240","164","162.6685","237.1485","39360","39360","38576.5967","td","null","null","null","null","null","null","[3,1]","428.30748302224737","511.11350027540436","457.1940380228424"
"","canvas-keyboard-response","149","202153","0.0-6.0-3.20","502","","","","","rectangles with change","null","null","","","critical","d","c","t","162.6685","237.1485","240","164","164","240","trueblood","0.02","h","164","240","240","164","162.6685","237.1485","39360","39360","38576.5967","td","null","null","null","null","null","null","[3,1]","428.30748302224737","511.11350027540436","457.1940380228424"
"","canvas-keyboard-response","150","202174","0.0-6.0-4.20","502","","","","","clear_screen","null","null","","","critical","d","c","t","162.6685","237.1485","240","164","164","240","trueblood","0.02","h","164","240","240","164","162.6685","237.1485","39360","39360","38576.5967","td","null","null","null","null","null","null","[3,1]","428.30748302224737","511.11350027540436","457.1940380228424"
"","canvas-keyboard-response","151","208771","0.0-6.0-5.20","502","","","","","make choice","6588","3","","","critical","d","c","t","162.6685","237.1485","240","164","164","240","trueblood","0.02","h","164","240","240","164","162.6685","237.1485","39360","39360","38576.5967","td","null","null","null","null","null","null","[3,1]","","",""
"","canvas-keyboard-response","152","208791","0.0-6.0-6.20","502","","","","","clear_screen","null","null","","","critical","d","c","t","162.6685","237.1485","240","164","164","240","trueblood","0.02","h","164","240","240","164","162.6685","237.1485","39360","39360","38576.5967","td","null","null","null","null","null","null","[3,1]","","",""
"","canvas-keyboard-response","153","208992","0.0-6.0-0.21","502","","","","","pre trial waiting period","null","null","","","critical","t","d","c","164","240","164","240","240","164","spektor","0","h","164","240","240","164","164","240","39360","39360","39360","td","null","null","null","null","null","null","[1,2]","462.79194216125524","118.25882219181344","507.8879979866795"
"","canvas-keyboard-response","154","209012","0.0-6.0-1.21","502","","","","","clear_screen","null","null","","","critical","t","d","c","164","240","164","240","240","164","spektor","0","h","164","240","240","164","164","240","39360","39360","39360","td","null","null","null","null","null","null","[1,2]","462.79194216125524","118.25882219181344","507.8879979866795"
"","canvas-keyboard-response","155","209520","0.0-6.0-2.21","502","","","","","rectangles no change","null","null","","","critical","t","d","c","164","240","164","240","240","164","spektor","0","h","164","240","240","164","164","240","39360","39360","39360","td","null","null","null","null","null","null","[1,2]","462.79194216125524","118.25882219181344","507.8879979866795"
"","canvas-keyboard-response","156","210855","0.0-6.0-3.21","502","","","","","rectangles with change","null","null","","","critical","t","d","c","164","240","164","240","240","164","spektor","0","h","164","240","240","164","164","240","39360","39360","39360","td","null","null","null","null","null","null","[1,2]","462.79194216125524","118.25882219181344","507.8879979866795"
"","canvas-keyboard-response","157","210875","0.0-6.0-4.21","502","","","","","clear_screen","null","null","","","critical","t","d","c","164","240","164","240","240","164","spektor","0","h","164","240","240","164","164","240","39360","39360","39360","td","null","null","null","null","null","null","[1,2]","462.79194216125524","118.25882219181344","507.8879979866795"
"","canvas-keyboard-response","158","212307","0.0-6.0-5.21","502","","","","","make choice","1424","2","","","critical","t","d","c","164","240","164","240","240","164","spektor","0","h","164","240","240","164","164","240","39360","39360","39360","td","null","null","null","null","null","null","[1,2]","","",""
"","canvas-keyboard-response","159","212329","0.0-6.0-6.21","502","","","","","clear_screen","null","null","","","critical","t","d","c","164","240","164","240","240","164","spektor","0","h","164","240","240","164","164","240","39360","39360","39360","td","null","null","null","null","null","null","[1,2]","","",""
"","canvas-keyboard-response","160","212529","0.0-6.0-0.22","502","","","","","pre trial waiting period","null","null","","","critical","d","t","c","232.8713","160.6713","240","164","164","240","trueblood","0.05","w","240","164","164","240","232.8713","160.6713","39360","39360","37415.7294","tc","null","null","null","null","null","null","[2,3]","481.391634947026","499.6467744453251","440.76917638372123"
"","canvas-keyboard-response","161","212548","0.0-6.0-1.22","502","","","","","clear_screen","null","null","","","critical","d","t","c","232.8713","160.6713","240","164","164","240","trueblood","0.05","w","240","164","164","240","232.8713","160.6713","39360","39360","37415.7294","tc","null","null","null","null","null","null","[2,3]","481.391634947026","499.6467744453251","440.76917638372123"
"","canvas-keyboard-response","162","213057","0.0-6.0-2.22","502","","","","","rectangles no change","null","null","","","critical","d","t","c","232.8713","160.6713","240","164","164","240","trueblood","0.05","w","240","164","164","240","232.8713","160.6713","39360","39360","37415.7294","tc","null","null","null","null","null","null","[2,3]","481.391634947026","499.6467744453251","440.76917638372123"
"","canvas-keyboard-response","163","214395","0.0-6.0-3.22","502","","","","","rectangles with change","null","null","","","critical","d","t","c","232.8713","160.6713","240","164","164","240","trueblood","0.05","w","240","164","164","240","232.8713","160.6713","39360","39360","37415.7294","tc","null","null","null","null","null","null","[2,3]","481.391634947026","499.6467744453251","440.76917638372123"
"","canvas-keyboard-response","164","214418","0.0-6.0-4.22","502","","","","","clear_screen","null","null","","","critical","d","t","c","232.8713","160.6713","240","164","164","240","trueblood","0.05","w","240","164","164","240","232.8713","160.6713","39360","39360","37415.7294","tc","null","null","null","null","null","null","[2,3]","481.391634947026","499.6467744453251","440.76917638372123"
"","canvas-keyboard-response","165","215436","0.0-6.0-5.22","502","","","","","make choice","1011","2","","","critical","d","t","c","232.8713","160.6713","240","164","164","240","trueblood","0.05","w","240","164","164","240","232.8713","160.6713","39360","39360","37415.7294","tc","null","null","null","null","null","null","[2,3]","","",""
"","canvas-keyboard-response","166","215453","0.0-6.0-6.22","502","","","","","clear_screen","null","null","","","critical","d","t","c","232.8713","160.6713","240","164","164","240","trueblood","0.05","w","240","164","164","240","232.8713","160.6713","39360","39360","37415.7294","tc","null","null","null","null","null","null","[2,3]","","",""
"","canvas-keyboard-response","167","215654","0.0-6.0-0.23","502","","","","","pre trial waiting period","null","null","","","catch","sh","sw","l","214","200","210","175","280","167","trueblood","null","null","null","null","null","null","null","null","null","null","null","","180","200","260","200","36000","52000","[2,3]","473.44406541631275","496.226900174081","480.3381565906647"
"","canvas-keyboard-response","168","215678","0.0-6.0-1.23","502","","","","","clear_screen","null","null","","","catch","sh","sw","l","214","200","210","175","280","167","trueblood","null","null","null","null","null","null","null","null","null","null","null","","180","200","260","200","36000","52000","[2,3]","473.44406541631275","496.226900174081","480.3381565906647"
"","canvas-keyboard-response","169","216189","0.0-6.0-2.23","502","","","","","rectangles no change","null","null","","","catch","sh","sw","l","214","200","210","175","280","167","trueblood","null","null","null","null","null","null","null","null","null","null","null","","180","200","260","200","36000","52000","[2,3]","473.44406541631275","496.226900174081","480.3381565906647"
"","canvas-keyboard-response","170","217524","0.0-6.0-3.23","502","","","","","rectangles with change","null","null","","","catch","sh","sw","l","214","200","210","175","280","167","trueblood","null","null","null","null","null","null","null","null","null","null","null","","180","200","260","200","36000","52000","[2,3]","473.44406541631275","496.226900174081","480.3381565906647"
"","canvas-keyboard-response","171","217545","0.0-6.0-4.23","502","","","","","clear_screen","null","null","","","catch","sh","sw","l","214","200","210","175","280","167","trueblood","null","null","null","null","null","null","null","null","null","null","null","","180","200","260","200","36000","52000","[2,3]","473.44406541631275","496.226900174081","480.3381565906647"
"","canvas-keyboard-response","172","218531","0.0-6.0-5.23","502","","","","","make choice","980","2","","","catch","sh","sw","l","214","200","210","175","280","167","trueblood","null","null","null","null","null","null","null","null","null","null","null","","180","200","260","200","36000","52000","[2,3]","","",""
"","canvas-keyboard-response","173","218549","0.0-6.0-6.23","502","","","","","clear_screen","null","null","","","catch","sh","sw","l","214","200","210","175","280","167","trueblood","null","null","null","null","null","null","null","null","null","null","null","","180","200","260","200","36000","52000","[2,3]","","",""
"","canvas-keyboard-response","174","218750","0.0-6.0-0.24","502","","","","","pre trial waiting period","null","null","","","critical","d","c","t","232.8713","160.6713","164","240","240","164","spektor","0.05","w","240","164","164","240","232.8713","160.6713","39360","39360","37415.7294","dc","null","null","null","null","null","null","[1,2]","539.817352960719","112.9573833757847","527.6243968786766"
"","canvas-keyboard-response","175","218768","0.0-6.0-1.24","502","","","","","clear_screen","null","null","","","critical","d","c","t","232.8713","160.6713","164","240","240","164","spektor","0.05","w","240","164","164","240","232.8713","160.6713","39360","39360","37415.7294","dc","null","null","null","null","null","null","[1,2]","539.817352960719","112.9573833757847","527.6243968786766"
"","canvas-keyboard-response","176","219277","0.0-6.0-2.24","502","","","","","rectangles no change","null","null","","","critical","d","c","t","232.8713","160.6713","164","240","240","164","spektor","0.05","w","240","164","164","240","232.8713","160.6713","39360","39360","37415.7294","dc","null","null","null","null","null","null","[1,2]","539.817352960719","112.9573833757847","527.6243968786766"
"","canvas-keyboard-response","177","220614","0.0-6.0-3.24","502","","","","","rectangles with change","null","null","","","critical","d","c","t","232.8713","160.6713","164","240","240","164","spektor","0.05","w","240","164","164","240","232.8713","160.6713","39360","39360","37415.7294","dc","null","null","null","null","null","null","[1,2]","539.817352960719","112.9573833757847","527.6243968786766"
"","canvas-keyboard-response","178","220633","0.0-6.0-4.24","502","","","","","clear_screen","null","null","","","critical","d","c","t","232.8713","160.6713","164","240","240","164","spektor","0.05","w","240","164","164","240","232.8713","160.6713","39360","39360","37415.7294","dc","null","null","null","null","null","null","[1,2]","539.817352960719","112.9573833757847","527.6243968786766"
"","canvas-keyboard-response","179","221756","0.0-6.0-5.24","502","","","","","make choice","1115","2","","","critical","d","c","t","232.8713","160.6713","164","240","240","164","spektor","0.05","w","240","164","164","240","232.8713","160.6713","39360","39360","37415.7294","dc","null","null","null","null","null","null","[1,2]","","",""
"","canvas-keyboard-response","180","221774","0.0-6.0-6.24","502","","","","","clear_screen","null","null","","","critical","d","c","t","232.8713","160.6713","164","240","240","164","spektor","0.05","w","240","164","164","240","232.8713","160.6713","39360","39360","37415.7294","dc","null","null","null","null","null","null","[1,2]","","",""
"","canvas-keyboard-response","181","221975","0.0-6.0-0.25","502","","","","","pre trial waiting period","null","null","","","critical","t","c","d","164","240","240","164","158.0083","227.1683","trueblood","0.09","h","164","240","240","164","158.0083","227.1683","39360","39360","35894.4834","tc","null","null","null","null","null","null","[1,2]","444.40159168591805","484.24231120966715","450.1523862995861"
"","canvas-keyboard-response","182","221996","0.0-6.0-1.25","502","","","","","clear_screen","null","null","","","critical","t","c","d","164","240","240","164","158.0083","227.1683","trueblood","0.09","h","164","240","240","164","158.0083","227.1683","39360","39360","35894.4834","tc","null","null","null","null","null","null","[1,2]","444.40159168591805","484.24231120966715","450.1523862995861"
"","canvas-keyboard-response","183","222505","0.0-6.0-2.25","502","","","","","rectangles no change","null","null","","","critical","t","c","d","164","240","240","164","158.0083","227.1683","trueblood","0.09","h","164","240","240","164","158.0083","227.1683","39360","39360","35894.4834","tc","null","null","null","null","null","null","[1,2]","444.40159168591805","484.24231120966715","450.1523862995861"
"","canvas-keyboard-response","184","223842","0.0-6.0-3.25","502","","","","","rectangles with change","null","null","","","critical","t","c","d","164","240","240","164","158.0083","227.1683","trueblood","0.09","h","164","240","240","164","158.0083","227.1683","39360","39360","35894.4834","tc","null","null","null","null","null","null","[1,2]","444.40159168591805","484.24231120966715","450.1523862995861"
"","canvas-keyboard-response","185","223865","0.0-6.0-4.25","502","","","","","clear_screen","null","null","","","critical","t","c","d","164","240","240","164","158.0083","227.1683","trueblood","0.09","h","164","240","240","164","158.0083","227.1683","39360","39360","35894.4834","tc","null","null","null","null","null","null","[1,2]","444.40159168591805","484.24231120966715","450.1523862995861"
"","canvas-keyboard-response","186","224475","0.0-6.0-5.25","502","","","","","make choice","603","2","","","critical","t","c","d","164","240","240","164","158.0083","227.1683","trueblood","0.09","h","164","240","240","164","158.0083","227.1683","39360","39360","35894.4834","tc","null","null","null","null","null","null","[1,2]","","",""
"","canvas-keyboard-response","187","224493","0.0-6.0-6.25","502","","","","","clear_screen","null","null","","","critical","t","c","d","164","240","240","164","158.0083","227.1683","trueblood","0.09","h","164","240","240","164","158.0083","227.1683","39360","39360","35894.4834","tc","null","null","null","null","null","null","[1,2]","","",""
"","canvas-keyboard-response","188","224695","0.0-6.0-0.26","502","","","","","pre trial waiting period","null","null","","","critical","d","c","t","154.6796","220.0396","240","164","164","240","spektor","0.14","h","164","240","240","164","154.6796","220.0396","39360","39360","34035.6388","dc","null","null","null","null","null","null","[1,2]","496.32894821386174","169.76808465125225","472.65042467115904"
"","canvas-keyboard-response","189","224718","0.0-6.0-1.26","502","","","","","clear_screen","null","null","","","critical","d","c","t","154.6796","220.0396","240","164","164","240","spektor","0.14","h","164","240","240","164","154.6796","220.0396","39360","39360","34035.6388","dc","null","null","null","null","null","null","[1,2]","496.32894821386174","169.76808465125225","472.65042467115904"
"","canvas-keyboard-response","190","225226","0.0-6.0-2.26","502","","","","","rectangles no change","null","null","","","critical","d","c","t","154.6796","220.0396","240","164","164","240","spektor","0.14","h","164","240","240","164","154.6796","220.0396","39360","39360","34035.6388","dc","null","null","null","null","null","null","[1,2]","496.32894821386174","169.76808465125225","472.65042467115904"
"","canvas-keyboard-response","191","226566","0.0-6.0-3.26","502","","","","","rectangles with change","null","null","","","critical","d","c","t","154.6796","220.0396","240","164","164","240","spektor","0.14","h","164","240","240","164","154.6796","220.0396","39360","39360","34035.6388","dc","null","null","null","null","null","null","[1,2]","496.32894821386174","169.76808465125225","472.65042467115904"
"","canvas-keyboard-response","192","226586","0.0-6.0-4.26","502","","","","","clear_screen","null","null","","","critical","d","c","t","154.6796","220.0396","240","164","164","240","spektor","0.14","h","164","240","240","164","154.6796","220.0396","39360","39360","34035.6388","dc","null","null","null","null","null","null","[1,2]","496.32894821386174","169.76808465125225","472.65042467115904"
"","canvas-keyboard-response","193","227948","0.0-6.0-5.26","502","","","","","make choice","1356","2","","","critical","d","c","t","154.6796","220.0396","240","164","164","240","spektor","0.14","h","164","240","240","164","154.6796","220.0396","39360","39360","34035.6388","dc","null","null","null","null","null","null","[1,2]","","",""
"","canvas-keyboard-response","194","227966","0.0-6.0-6.26","502","","","","","clear_screen","null","null","","","critical","d","c","t","154.6796","220.0396","240","164","164","240","spektor","0.14","h","164","240","240","164","154.6796","220.0396","39360","39360","34035.6388","dc","null","null","null","null","null","null","[1,2]","","",""
"","canvas-keyboard-response","195","228167","0.0-6.0-0.27","502","","","","","pre trial waiting period","null","null","","","critical","t","d","c","240","164","240","164","164","240","trueblood","0","w","240","164","164","240","240","164","39360","39360","39360","td","null","null","null","null","null","null","[1,2]","509.53975416757226","508.8931714213679","435.381894772229"
"","canvas-keyboard-response","196","228187","0.0-6.0-1.27","502","","","","","clear_screen","null","null","","","critical","t","d","c","240","164","240","164","164","240","trueblood","0","w","240","164","164","240","240","164","39360","39360","39360","td","null","null","null","null","null","null","[1,2]","509.53975416757226","508.8931714213679","435.381894772229"
"","canvas-keyboard-response","197","228695","0.0-6.0-2.27","502","","","","","rectangles no change","null","null","","","critical","t","d","c","240","164","240","164","164","240","trueblood","0","w","240","164","164","240","240","164","39360","39360","39360","td","null","null","null","null","null","null","[1,2]","509.53975416757226","508.8931714213679","435.381894772229"
"","canvas-keyboard-response","198","230031","0.0-6.0-3.27","502","","","","","rectangles with change","null","null","","","critical","t","d","c","240","164","240","164","164","240","trueblood","0","w","240","164","164","240","240","164","39360","39360","39360","td","null","null","null","null","null","null","[1,2]","509.53975416757226","508.8931714213679","435.381894772229"
"","canvas-keyboard-response","199","230049","0.0-6.0-4.27","502","","","","","clear_screen","null","null","","","critical","t","d","c","240","164","240","164","164","240","trueblood","0","w","240","164","164","240","240","164","39360","39360","39360","td","null","null","null","null","null","null","[1,2]","509.53975416757226","508.8931714213679","435.381894772229"
"","canvas-keyboard-response","200","230932","0.0-6.0-5.27","502","","","","","make choice","876","2","","","critical","t","d","c","240","164","240","164","164","240","trueblood","0","w","240","164","164","240","240","164","39360","39360","39360","td","null","null","null","null","null","null","[1,2]","","",""
"","canvas-keyboard-response","201","230954","0.0-6.0-6.27","502","","","","","clear_screen","null","null","","","critical","t","d","c","240","164","240","164","164","240","trueblood","0","w","240","164","164","240","240","164","39360","39360","39360","td","null","null","null","null","null","null","[1,2]","","",""
"","canvas-keyboard-response","202","231154","0.0-6.0-0.28","502","","","","","pre trial waiting period","null","null","","","critical","c","t","d","164","240","240","164","220.0396","154.6796","spektor","0.14","w","240","164","164","240","220.0396","154.6796","39360","39360","34035.6388","td","null","null","null","null","null","null","[2,3]","466.3736376085877","194.83058508878324","532.7683937042941"
"","canvas-keyboard-response","203","231177","0.0-6.0-1.28","502","","","","","clear_screen","null","null","","","critical","c","t","d","164","240","240","164","220.0396","154.6796","spektor","0.14","w","240","164","164","240","220.0396","154.6796","39360","39360","34035.6388","td","null","null","null","null","null","null","[2,3]","466.3736376085877","194.83058508878324","532.7683937042941"
"","canvas-keyboard-response","204","231686","0.0-6.0-2.28","502","","","","","rectangles no change","null","null","","","critical","c","t","d","164","240","240","164","220.0396","154.6796","spektor","0.14","w","240","164","164","240","220.0396","154.6796","39360","39360","34035.6388","td","null","null","null","null","null","null","[2,3]","466.3736376085877","194.83058508878324","532.7683937042941"
"","canvas-keyboard-response","205","233023","0.0-6.0-3.28","502","","","","","rectangles with change","null","null","","","critical","c","t","d","164","240","240","164","220.0396","154.6796","spektor","0.14","w","240","164","164","240","220.0396","154.6796","39360","39360","34035.6388","td","null","null","null","null","null","null","[2,3]","466.3736376085877","194.83058508878324","532.7683937042941"
"","canvas-keyboard-response","206","233043","0.0-6.0-4.28","502","","","","","clear_screen","null","null","","","critical","c","t","d","164","240","240","164","220.0396","154.6796","spektor","0.14","w","240","164","164","240","220.0396","154.6796","39360","39360","34035.6388","td","null","null","null","null","null","null","[2,3]","466.3736376085877","194.83058508878324","532.7683937042941"
"","canvas-keyboard-response","207","236395","0.0-6.0-5.28","502","","","","","make choice","3346","3","","","critical","c","t","d","164","240","240","164","220.0396","154.6796","spektor","0.14","w","240","164","164","240","220.0396","154.6796","39360","39360","34035.6388","td","null","null","null","null","null","null","[2,3]","","",""
"","canvas-keyboard-response","208","236413","0.0-6.0-6.28","502","","","","","clear_screen","null","null","","","critical","c","t","d","164","240","240","164","220.0396","154.6796","spektor","0.14","w","240","164","164","240","220.0396","154.6796","39360","39360","34035.6388","td","null","null","null","null","null","null","[2,3]","","",""
"","canvas-keyboard-response","209","236614","0.0-6.0-0.29","502","","","","","pre trial waiting period","null","null","","","critical","d","c","t","237.1485","162.6685","164","240","240","164","spektor","0.02","w","240","164","164","240","237.1485","162.6685","39360","39360","38576.5967","tc","null","null","null","null","null","null","[3,2]","537.9745381846521","136.08024281865502","493.921673321838"
"","canvas-keyboard-response","210","236633","0.0-6.0-1.29","502","","","","","clear_screen","null","null","","","critical","d","c","t","237.1485","162.6685","164","240","240","164","spektor","0.02","w","240","164","164","240","237.1485","162.6685","39360","39360","38576.5967","tc","null","null","null","null","null","null","[3,2]","537.9745381846521","136.08024281865502","493.921673321838"
"","canvas-keyboard-response","211","237141","0.0-6.0-2.29","502","","","","","rectangles no change","null","null","","","critical","d","c","t","237.1485","162.6685","164","240","240","164","spektor","0.02","w","240","164","164","240","237.1485","162.6685","39360","39360","38576.5967","tc","null","null","null","null","null","null","[3,2]","537.9745381846521","136.08024281865502","493.921673321838"
"","canvas-keyboard-response","212","238481","0.0-6.0-3.29","502","","","","","rectangles with change","null","null","","","critical","d","c","t","237.1485","162.6685","164","240","240","164","spektor","0.02","w","240","164","164","240","237.1485","162.6685","39360","39360","38576.5967","tc","null","null","null","null","null","null","[3,2]","537.9745381846521","136.08024281865502","493.921673321838"
"","canvas-keyboard-response","213","238501","0.0-6.0-4.29","502","","","","","clear_screen","null","null","","","critical","d","c","t","237.1485","162.6685","164","240","240","164","spektor","0.02","w","240","164","164","240","237.1485","162.6685","39360","39360","38576.5967","tc","null","null","null","null","null","null","[3,2]","537.9745381846521","136.08024281865502","493.921673321838"
"","canvas-keyboard-response","214","240067","0.0-6.0-5.29","502","","","","","make choice","1558","3","","","critical","d","c","t","237.1485","162.6685","164","240","240","164","spektor","0.02","w","240","164","164","240","237.1485","162.6685","39360","39360","38576.5967","tc","null","null","null","null","null","null","[3,2]","","",""
"","canvas-keyboard-response","215","240087","0.0-6.0-6.29","502","","","","","clear_screen","null","null","","","critical","d","c","t","237.1485","162.6685","164","240","240","164","spektor","0.02","w","240","164","164","240","237.1485","162.6685","39360","39360","38576.5967","tc","null","null","null","null","null","null","[3,2]","","",""
"","canvas-keyboard-response","216","240289","0.0-6.0-0.30","502","","","","","pre trial waiting period","null","null","","","critical","d","c","t","240","164","164","240","240","164","spektor","0","w","240","164","164","240","240","164","39360","39360","39360","tc","null","null","null","null","null","null","[3,2]","511.7271242819186","139.9628575705117","532.1012878069006"
"","canvas-keyboard-response","217","240313","0.0-6.0-1.30","502","","","","","clear_screen","null","null","","","critical","d","c","t","240","164","164","240","240","164","spektor","0","w","240","164","164","240","240","164","39360","39360","39360","tc","null","null","null","null","null","null","[3,2]","511.7271242819186","139.9628575705117","532.1012878069006"
"","canvas-keyboard-response","218","240819","0.0-6.0-2.30","502","","","","","rectangles no change","null","null","","","critical","d","c","t","240","164","164","240","240","164","spektor","0","w","240","164","164","240","240","164","39360","39360","39360","tc","null","null","null","null","null","null","[3,2]","511.7271242819186","139.9628575705117","532.1012878069006"
"","canvas-keyboard-response","219","242158","0.0-6.0-3.30","502","","","","","rectangles with change","null","null","","","critical","d","c","t","240","164","164","240","240","164","spektor","0","w","240","164","164","240","240","164","39360","39360","39360","tc","null","null","null","null","null","null","[3,2]","511.7271242819186","139.9628575705117","532.1012878069006"
"","canvas-keyboard-response","220","242178","0.0-6.0-4.30","502","","","","","clear_screen","null","null","","","critical","d","c","t","240","164","164","240","240","164","spektor","0","w","240","164","164","240","240","164","39360","39360","39360","tc","null","null","null","null","null","null","[3,2]","511.7271242819186","139.9628575705117","532.1012878069006"
"","canvas-keyboard-response","221","243603","0.0-6.0-5.30","502","","","","","make choice","1418","3","","","critical","d","c","t","240","164","164","240","240","164","spektor","0","w","240","164","164","240","240","164","39360","39360","39360","tc","null","null","null","null","null","null","[3,2]","","",""
"","canvas-keyboard-response","222","243623","0.0-6.0-6.30","502","","","","","clear_screen","null","null","","","critical","d","c","t","240","164","164","240","240","164","spektor","0","w","240","164","164","240","240","164","39360","39360","39360","tc","null","null","null","null","null","null","[3,2]","","",""
"","canvas-keyboard-response","223","243824","0.0-6.0-0.31","502","","","","","pre trial waiting period","null","null","","","critical","d","t","c","162.6685","237.1485","164","240","240","164","trueblood","0.02","h","164","240","240","164","162.6685","237.1485","39360","39360","38576.5967","dc","null","null","null","null","null","null","[1,3]","442.63187992622517","460.0199955288235","493.47013343488584"
"","canvas-keyboard-response","224","243844","0.0-6.0-1.31","502","","","","","clear_screen","null","null","","","critical","d","t","c","162.6685","237.1485","164","240","240","164","trueblood","0.02","h","164","240","240","164","162.6685","237.1485","39360","39360","38576.5967","dc","null","null","null","null","null","null","[1,3]","442.63187992622517","460.0199955288235","493.47013343488584"
"","canvas-keyboard-response","225","244351","0.0-6.0-2.31","502","","","","","rectangles no change","null","null","","","critical","d","t","c","162.6685","237.1485","164","240","240","164","trueblood","0.02","h","164","240","240","164","162.6685","237.1485","39360","39360","38576.5967","dc","null","null","null","null","null","null","[1,3]","442.63187992622517","460.0199955288235","493.47013343488584"
"","canvas-keyboard-response","226","245686","0.0-6.0-3.31","502","","","","","rectangles with change","null","null","","","critical","d","t","c","162.6685","237.1485","164","240","240","164","trueblood","0.02","h","164","240","240","164","162.6685","237.1485","39360","39360","38576.5967","dc","null","null","null","null","null","null","[1,3]","442.63187992622517","460.0199955288235","493.47013343488584"
"","canvas-keyboard-response","227","245707","0.0-6.0-4.31","502","","","","","clear_screen","null","null","","","critical","d","t","c","162.6685","237.1485","164","240","240","164","trueblood","0.02","h","164","240","240","164","162.6685","237.1485","39360","39360","38576.5967","dc","null","null","null","null","null","null","[1,3]","442.63187992622517","460.0199955288235","493.47013343488584"
"","canvas-keyboard-response","228","248811","0.0-6.0-5.31","502","","","","","make choice","3097","3","","","critical","d","t","c","162.6685","237.1485","164","240","240","164","trueblood","0.02","h","164","240","240","164","162.6685","237.1485","39360","39360","38576.5967","dc","null","null","null","null","null","null","[1,3]","","",""
"","canvas-keyboard-response","229","248828","0.0-6.0-6.31","502","","","","","clear_screen","null","null","","","critical","d","t","c","162.6685","237.1485","164","240","240","164","trueblood","0.02","h","164","240","240","164","162.6685","237.1485","39360","39360","38576.5967","dc","null","null","null","null","null","null","[1,3]","","",""
"","canvas-keyboard-response","230","249030","0.0-6.0-0.32","502","","","","","pre trial waiting period","null","null","","","critical","t","d","c","164","240","158.0083","227.1683","240","164","trueblood","0.09","h","164","240","240","164","158.0083","227.1683","39360","39360","35894.4834","dc","null","null","null","null","null","null","[2,3]","463.46853213451374","447.3623111618705","497.18001130999664"
"","canvas-keyboard-response","231","249050","0.0-6.0-1.32","502","","","","","clear_screen","null","null","","","critical","t","d","c","164","240","158.0083","227.1683","240","164","trueblood","0.09","h","164","240","240","164","158.0083","227.1683","39360","39360","35894.4834","dc","null","null","null","null","null","null","[2,3]","463.46853213451374","447.3623111618705","497.18001130999664"
"","canvas-keyboard-response","232","249558","0.0-6.0-2.32","502","","","","","rectangles no change","null","null","","","critical","t","d","c","164","240","158.0083","227.1683","240","164","trueblood","0.09","h","164","240","240","164","158.0083","227.1683","39360","39360","35894.4834","dc","null","null","null","null","null","null","[2,3]","463.46853213451374","447.3623111618705","497.18001130999664"
"","canvas-keyboard-response","233","250893","0.0-6.0-3.32","502","","","","","rectangles with change","null","null","","","critical","t","d","c","164","240","158.0083","227.1683","240","164","trueblood","0.09","h","164","240","240","164","158.0083","227.1683","39360","39360","35894.4834","dc","null","null","null","null","null","null","[2,3]","463.46853213451374","447.3623111618705","497.18001130999664"
"","canvas-keyboard-response","234","250911","0.0-6.0-4.32","502","","","","","clear_screen","null","null","","","critical","t","d","c","164","240","158.0083","227.1683","240","164","trueblood","0.09","h","164","240","240","164","158.0083","227.1683","39360","39360","35894.4834","dc","null","null","null","null","null","null","[2,3]","463.46853213451374","447.3623111618705","497.18001130999664"
"","canvas-keyboard-response","235","251571","0.0-6.0-5.32","502","","","","","make choice","652","3","","","critical","t","d","c","164","240","158.0083","227.1683","240","164","trueblood","0.09","h","164","240","240","164","158.0083","227.1683","39360","39360","35894.4834","dc","null","null","null","null","null","null","[2,3]","","",""
"","canvas-keyboard-response","236","251591","0.0-6.0-6.32","502","","","","","clear_screen","null","null","","","critical","t","d","c","164","240","158.0083","227.1683","240","164","trueblood","0.09","h","164","240","240","164","158.0083","227.1683","39360","39360","35894.4834","dc","null","null","null","null","null","null","[2,3]","","",""
"","canvas-keyboard-response","237","251792","0.0-6.0-0.33","502","","","","","pre trial waiting period","null","null","","","catch","sw","l","sh","180","200","226","284","188","216","trueblood","null","null","null","null","null","null","null","null","null","null","null","","180","200","260","200","36000","52000","[2,3]","470.4195689124692","410.3336226050605","477.38962967111587"
"","canvas-keyboard-response","238","251812","0.0-6.0-1.33","502","","","","","clear_screen","null","null","","","catch","sw","l","sh","180","200","226","284","188","216","trueblood","null","null","null","null","null","null","null","null","null","null","null","","180","200","260","200","36000","52000","[2,3]","470.4195689124692","410.3336226050605","477.38962967111587"
"","canvas-keyboard-response","239","252321","0.0-6.0-2.33","502","","","","","rectangles no change","null","null","","","catch","sw","l","sh","180","200","226","284","188","216","trueblood","null","null","null","null","null","null","null","null","null","null","null","","180","200","260","200","36000","52000","[2,3]","470.4195689124692","410.3336226050605","477.38962967111587"
"","canvas-keyboard-response","240","253658","0.0-6.0-3.33","502","","","","","rectangles with change","null","null","","","catch","sw","l","sh","180","200","226","284","188","216","trueblood","null","null","null","null","null","null","null","null","null","null","null","","180","200","260","200","36000","52000","[2,3]","470.4195689124692","410.3336226050605","477.38962967111587"
"","canvas-keyboard-response","241","253679","0.0-6.0-4.33","502","","","","","clear_screen","null","null","","","catch","sw","l","sh","180","200","226","284","188","216","trueblood","null","null","null","null","null","null","null","null","null","null","null","","180","200","260","200","36000","52000","[2,3]","470.4195689124692","410.3336226050605","477.38962967111587"
"","canvas-keyboard-response","242","254355","0.0-6.0-5.33","502","","","","","make choice","670","2","","","catch","sw","l","sh","180","200","226","284","188","216","trueblood","null","null","null","null","null","null","null","null","null","null","null","","180","200","260","200","36000","52000","[2,3]","","",""
"","canvas-keyboard-response","243","254374","0.0-6.0-6.33","502","","","","","clear_screen","null","null","","","catch","sw","l","sh","180","200","226","284","188","216","trueblood","null","null","null","null","null","null","null","null","null","null","null","","180","200","260","200","36000","52000","[2,3]","","",""
"","canvas-keyboard-response","244","254575","0.0-6.0-0.34","502","","","","","pre trial waiting period","null","null","","","catch","sh","sw","l","206","159","177","160","246","192","spektor","null","null","null","null","null","null","null","null","null","null","null","","180","200","260","200","36000","52000","[2,3]","522.4725761466905","225.88532762351983","497.47700860149587"
"","canvas-keyboard-response","245","254596","0.0-6.0-1.34","502","","","","","clear_screen","null","null","","","catch","sh","sw","l","206","159","177","160","246","192","spektor","null","null","null","null","null","null","null","null","null","null","null","","180","200","260","200","36000","52000","[2,3]","522.4725761466905","225.88532762351983","497.47700860149587"
"","canvas-keyboard-response","246","255104","0.0-6.0-2.34","502","","","","","rectangles no change","null","null","","","catch","sh","sw","l","206","159","177","160","246","192","spektor","null","null","null","null","null","null","null","null","null","null","null","","180","200","260","200","36000","52000","[2,3]","522.4725761466905","225.88532762351983","497.47700860149587"
"","canvas-keyboard-response","247","256442","0.0-6.0-3.34","502","","","","","rectangles with change","null","null","","","catch","sh","sw","l","206","159","177","160","246","192","spektor","null","null","null","null","null","null","null","null","null","null","null","","180","200","260","200","36000","52000","[2,3]","522.4725761466905","225.88532762351983","497.47700860149587"
"","canvas-keyboard-response","248","256466","0.0-6.0-4.34","502","","","","","clear_screen","null","null","","","catch","sh","sw","l","206","159","177","160","246","192","spektor","null","null","null","null","null","null","null","null","null","null","null","","180","200","260","200","36000","52000","[2,3]","522.4725761466905","225.88532762351983","497.47700860149587"
"","canvas-keyboard-response","249","257659","0.0-6.0-5.34","502","","","","","make choice","1188","3","","","catch","sh","sw","l","206","159","177","160","246","192","spektor","null","null","null","null","null","null","null","null","null","null","null","","180","200","260","200","36000","52000","[2,3]","","",""
"","canvas-keyboard-response","250","257680","0.0-6.0-6.34","502","","","","","clear_screen","null","null","","","catch","sh","sw","l","206","159","177","160","246","192","spektor","null","null","null","null","null","null","null","null","null","null","null","","180","200","260","200","36000","52000","[2,3]","","",""
"","canvas-keyboard-response","251","257881","0.0-6.0-0.35","502","","","","","pre trial waiting period","null","null","","","critical","c","t","d","240","164","164","240","164","240","spektor","0","h","164","240","240","164","164","240","39360","39360","39360","dc","null","null","null","null","null","null","[3,1]","494.3314889929519","96.03939345542769","455.1044834487368"
"","canvas-keyboard-response","252","257900","0.0-6.0-1.35","502","","","","","clear_screen","null","null","","","critical","c","t","d","240","164","164","240","164","240","spektor","0","h","164","240","240","164","164","240","39360","39360","39360","dc","null","null","null","null","null","null","[3,1]","494.3314889929519","96.03939345542769","455.1044834487368"
"","canvas-keyboard-response","253","258415","0.0-6.0-2.35","502","","","","","rectangles no change","null","null","","","critical","c","t","d","240","164","164","240","164","240","spektor","0","h","164","240","240","164","164","240","39360","39360","39360","dc","null","null","null","null","null","null","[3,1]","494.3314889929519","96.03939345542769","455.1044834487368"
"","canvas-keyboard-response","254","259753","0.0-6.0-3.35","502","","","","","rectangles with change","null","null","","","critical","c","t","d","240","164","164","240","164","240","spektor","0","h","164","240","240","164","164","240","39360","39360","39360","dc","null","null","null","null","null","null","[3,1]","494.3314889929519","96.03939345542769","455.1044834487368"
"","canvas-keyboard-response","255","259775","0.0-6.0-4.35","502","","","","","clear_screen","null","null","","","critical","c","t","d","240","164","164","240","164","240","spektor","0","h","164","240","240","164","164","240","39360","39360","39360","dc","null","null","null","null","null","null","[3,1]","494.3314889929519","96.03939345542769","455.1044834487368"
"","canvas-keyboard-response","256","260571","0.0-6.0-5.35","502","","","","","make choice","790","1","","","critical","c","t","d","240","164","164","240","164","240","spektor","0","h","164","240","240","164","164","240","39360","39360","39360","dc","null","null","null","null","null","null","[3,1]","","",""
"","canvas-keyboard-response","257","260591","0.0-6.0-6.35","502","","","","","clear_screen","null","null","","","critical","c","t","d","240","164","164","240","164","240","spektor","0","h","164","240","240","164","164","240","39360","39360","39360","dc","null","null","null","null","null","null","[3,1]","","",""
"","canvas-keyboard-response","258","260793","0.0-6.0-0.36","502","","","","","pre trial waiting period","null","null","","","critical","d","t","c","232.8713","160.6713","240","164","164","240","spektor","0.05","w","240","164","164","240","232.8713","160.6713","39360","39360","37415.7294","td","null","null","null","null","null","null","[2,1]","502.9532659610579","194.63974771030004","480.18904945823687"
"","canvas-keyboard-response","259","260814","0.0-6.0-1.36","502","","","","","clear_screen","null","null","","","critical","d","t","c","232.8713","160.6713","240","164","164","240","spektor","0.05","w","240","164","164","240","232.8713","160.6713","39360","39360","37415.7294","td","null","null","null","null","null","null","[2,1]","502.9532659610579","194.63974771030004","480.18904945823687"
"","canvas-keyboard-response","260","261322","0.0-6.0-2.36","502","","","","","rectangles no change","null","null","","","critical","d","t","c","232.8713","160.6713","240","164","164","240","spektor","0.05","w","240","164","164","240","232.8713","160.6713","39360","39360","37415.7294","td","null","null","null","null","null","null","[2,1]","502.9532659610579","194.63974771030004","480.18904945823687"
"","canvas-keyboard-response","261","262661","0.0-6.0-3.36","502","","","","","rectangles with change","null","null","","","critical","d","t","c","232.8713","160.6713","240","164","164","240","spektor","0.05","w","240","164","164","240","232.8713","160.6713","39360","39360","37415.7294","td","null","null","null","null","null","null","[2,1]","502.9532659610579","194.63974771030004","480.18904945823687"
"","canvas-keyboard-response","262","262679","0.0-6.0-4.36","502","","","","","clear_screen","null","null","","","critical","d","t","c","232.8713","160.6713","240","164","164","240","spektor","0.05","w","240","164","164","240","232.8713","160.6713","39360","39360","37415.7294","td","null","null","null","null","null","null","[2,1]","502.9532659610579","194.63974771030004","480.18904945823687"
"","canvas-keyboard-response","263","263923","0.0-6.0-5.36","502","","","","","make choice","1238","2","","","critical","d","t","c","232.8713","160.6713","240","164","164","240","spektor","0.05","w","240","164","164","240","232.8713","160.6713","39360","39360","37415.7294","td","null","null","null","null","null","null","[2,1]","","",""
"","canvas-keyboard-response","264","263941","0.0-6.0-6.36","502","","","","","clear_screen","null","null","","","critical","d","t","c","232.8713","160.6713","240","164","164","240","spektor","0.05","w","240","164","164","240","232.8713","160.6713","39360","39360","37415.7294","td","null","null","null","null","null","null","[2,1]","","",""
"","canvas-keyboard-response","265","264142","0.0-6.0-0.37","502","","","","","pre trial waiting period","null","null","","","catch","sw","l","sh","180","200","191","229","183","177","spektor","null","null","null","null","null","null","null","null","null","null","null","","180","200","260","200","36000","52000","[2,3]","489.3285270209009","124.04880551643225","499.73129318019056"
"","canvas-keyboard-response","266","264165","0.0-6.0-1.37","502","","","","","clear_screen","null","null","","","catch","sw","l","sh","180","200","191","229","183","177","spektor","null","null","null","null","null","null","null","null","null","null","null","","180","200","260","200","36000","52000","[2,3]","489.3285270209009","124.04880551643225","499.73129318019056"
