"success","trial_type","trial_index","time_elapsed","internal_node_id","sub_n","timeout","failed_images","failed_audio","failed_video","screen_id","rt","response","stimulus","view_history","trial","r1","r2","r3","w1","h1","w2","h2","w3","h3","display","tdd","tdo","tw","th","cw","ch","dw","dh","ta","ca","da","probe","csls","csss","clls","clss","sa","la","probe_rects","r1yloc","r2yloc","r3yloc"
"true","fullscreen","0","2211","0.0-0.0","553","","","","","","","","","","","","","","","","","","","","","","","","","","","","","","","","","","","","","","","","","",""
"true","preload","1","2228","0.0-1.0","553","false","[]","[]","[]","img preload","","","","","","","","","","","","","","","","","","","","","","","","","","","","","","","","","","","","",""
"","survey-html-form","2","6803","0.0-2.0","553","","","","","enter-sub-number","4565","{""response"":""553""}","","","","","","","","","","","","","","","","","","","","","","","","","","","","","","","","","","",""
"","image-button-response","3","59218","0.0-3.0","553","","","","","","52349","0","consent.png","","","","","","","","","","","","","","","","","","","","","","","","","","","","","","","","","",""
"","html-button-response","4","71932","0.0-4.0","553","","","","","intro mssg","12711","0","<div style= ""font-size:25px;"" <p> <strong> Welcome! </strong><br> <p style=""color:#8B0000; font-size:25px;""><strong> Please do NOT exit full screen until you are done with the experiment. </strong> </p><p style=""font-size:25px;color:#8B0000;""> <strong> Your data will be lost <br> if you try to go back or refresh the page after the experiment starts. Feel free to click ""previous"" during the instructions, however.</strong> </p><br><p> <strong> Thanks in advance for your contribution to our research! </strong></p>","","","","","","","","","","","","","","","","","","","","","","","","","","","","","","","","","",""
"","instructions","5","116484","0.0-5.0","553","","","","","instructions","44546","","","[{""page_index"":0,""viewing_time"":6427},{""page_index"":1,""viewing_time"":7007},{""page_index"":2,""viewing_time"":3441},{""page_index"":3,""viewing_time"":12685},{""page_index"":4,""viewing_time"":5915},{""page_index"":5,""viewing_time"":2472},{""page_index"":6,""viewing_time"":4128},{""page_index"":7,""viewing_time"":2471}]","","","","","","","","","","","","","","","","","","","","","","","","","","","","","","","","",""
"","canvas-keyboard-response","6","116691","0.0-6.0-0.0","553","","","","","pre trial waiting period","null","null","","","critical","t","d","c","240","164","240","164","164","240","spektor","0","w","240","164","164","240","240","164","39360","39360","39360","dc","null","null","null","null","null","null","[2,3]","523.6384092765619","192.197262356715","455.8452950025113"
"","canvas-keyboard-response","7","116713","0.0-6.0-1.0","553","","","","","clear_screen","null","null","","","critical","t","d","c","240","164","240","164","164","240","spektor","0","w","240","164","164","240","240","164","39360","39360","39360","dc","null","null","null","null","null","null","[2,3]","523.6384092765619","192.197262356715","455.8452950025113"
"","canvas-keyboard-response","8","117222","0.0-6.0-2.0","553","","","","","rectangles no change","null","null","","","critical","t","d","c","240","164","240","164","164","240","spektor","0","w","240","164","164","240","240","164","39360","39360","39360","dc","null","null","null","null","null","null","[2,3]","523.6384092765619","192.197262356715","455.8452950025113"
"","canvas-keyboard-response","9","118563","0.0-6.0-3.0","553","","","","","rectangles with change","null","null","","","critical","t","d","c","240","164","240","164","164","240","spektor","0","w","240","164","164","240","240","164","39360","39360","39360","dc","null","null","null","null","null","null","[2,3]","523.6384092765619","192.197262356715","455.8452950025113"
"","canvas-keyboard-response","10","118577","0.0-6.0-4.0","553","","","","","clear_screen","null","null","","","critical","t","d","c","240","164","240","164","164","240","spektor","0","w","240","164","164","240","240","164","39360","39360","39360","dc","null","null","null","null","null","null","[2,3]","523.6384092765619","192.197262356715","455.8452950025113"
"","canvas-keyboard-response","11","120479","0.0-6.0-5.0","553","","","","","make choice","1895","2","","","critical","t","d","c","240","164","240","164","164","240","spektor","0","w","240","164","164","240","240","164","39360","39360","39360","dc","null","null","null","null","null","null","[2,3]","","",""
"","canvas-keyboard-response","12","120498","0.0-6.0-6.0","553","","","","","clear_screen","null","null","","","critical","t","d","c","240","164","240","164","164","240","spektor","0","w","240","164","164","240","240","164","39360","39360","39360","dc","null","null","null","null","null","null","[2,3]","","",""
"","canvas-keyboard-response","13","120699","0.0-6.0-0.1","553","","","","","pre trial waiting period","null","null","","","critical","d","t","c","220.0396","154.6796","240","164","164","240","trueblood","0.14","w","240","164","164","240","220.0396","154.6796","39360","39360","34035.6388","dc","null","null","null","null","null","null","[1,3]","501.97324577943397","487.6315692424583","430.07826718070606"
"","canvas-keyboard-response","14","120719","0.0-6.0-1.1","553","","","","","clear_screen","null","null","","","critical","d","t","c","220.0396","154.6796","240","164","164","240","trueblood","0.14","w","240","164","164","240","220.0396","154.6796","39360","39360","34035.6388","dc","null","null","null","null","null","null","[1,3]","501.97324577943397","487.6315692424583","430.07826718070606"
"","canvas-keyboard-response","15","121226","0.0-6.0-2.1","553","","","","","rectangles no change","null","null","","","critical","d","t","c","220.0396","154.6796","240","164","164","240","trueblood","0.14","w","240","164","164","240","220.0396","154.6796","39360","39360","34035.6388","dc","null","null","null","null","null","null","[1,3]","501.97324577943397","487.6315692424583","430.07826718070606"
"","canvas-keyboard-response","16","122561","0.0-6.0-3.1","553","","","","","rectangles with change","null","null","","","critical","d","t","c","220.0396","154.6796","240","164","164","240","trueblood","0.14","w","240","164","164","240","220.0396","154.6796","39360","39360","34035.6388","dc","null","null","null","null","null","null","[1,3]","501.97324577943397","487.6315692424583","430.07826718070606"
"","canvas-keyboard-response","17","122581","0.0-6.0-4.1","553","","","","","clear_screen","null","null","","","critical","d","t","c","220.0396","154.6796","240","164","164","240","trueblood","0.14","w","240","164","164","240","220.0396","154.6796","39360","39360","34035.6388","dc","null","null","null","null","null","null","[1,3]","501.97324577943397","487.6315692424583","430.07826718070606"
"","canvas-keyboard-response","18","124430","0.0-6.0-5.1","553","","","","","make choice","1840","3","","","critical","d","t","c","220.0396","154.6796","240","164","164","240","trueblood","0.14","w","240","164","164","240","220.0396","154.6796","39360","39360","34035.6388","dc","null","null","null","null","null","null","[1,3]","","",""
"","canvas-keyboard-response","19","124451","0.0-6.0-6.1","553","","","","","clear_screen","null","null","","","critical","d","t","c","220.0396","154.6796","240","164","164","240","trueblood","0.14","w","240","164","164","240","220.0396","154.6796","39360","39360","34035.6388","dc","null","null","null","null","null","null","[1,3]","","",""
"","canvas-keyboard-response","20","124652","0.0-6.0-0.2","553","","","","","pre trial waiting period","null","null","","","critical","t","c","d","164","240","240","164","158.0083","227.1683","spektor","0.09","h","164","240","240","164","158.0083","227.1683","39360","39360","35894.4834","td","null","null","null","null","null","null","[1,3]","485.8157992863207","170.9315908216889","463.64479793026993"
"","canvas-keyboard-response","21","124671","0.0-6.0-1.2","553","","","","","clear_screen","null","null","","","critical","t","c","d","164","240","240","164","158.0083","227.1683","spektor","0.09","h","164","240","240","164","158.0083","227.1683","39360","39360","35894.4834","td","null","null","null","null","null","null","[1,3]","485.8157992863207","170.9315908216889","463.64479793026993"
"","canvas-keyboard-response","22","125181","0.0-6.0-2.2","553","","","","","rectangles no change","null","null","","","critical","t","c","d","164","240","240","164","158.0083","227.1683","spektor","0.09","h","164","240","240","164","158.0083","227.1683","39360","39360","35894.4834","td","null","null","null","null","null","null","[1,3]","485.8157992863207","170.9315908216889","463.64479793026993"
"","canvas-keyboard-response","23","126522","0.0-6.0-3.2","553","","","","","rectangles with change","null","null","","","critical","t","c","d","164","240","240","164","158.0083","227.1683","spektor","0.09","h","164","240","240","164","158.0083","227.1683","39360","39360","35894.4834","td","null","null","null","null","null","null","[1,3]","485.8157992863207","170.9315908216889","463.64479793026993"
"","canvas-keyboard-response","24","126542","0.0-6.0-4.2","553","","","","","clear_screen","null","null","","","critical","t","c","d","164","240","240","164","158.0083","227.1683","spektor","0.09","h","164","240","240","164","158.0083","227.1683","39360","39360","35894.4834","td","null","null","null","null","null","null","[1,3]","485.8157992863207","170.9315908216889","463.64479793026993"
"","canvas-keyboard-response","25","127151","0.0-6.0-5.2","553","","","","","make choice","604","1","","","critical","t","c","d","164","240","240","164","158.0083","227.1683","spektor","0.09","h","164","240","240","164","158.0083","227.1683","39360","39360","35894.4834","td","null","null","null","null","null","null","[1,3]","","",""
"","canvas-keyboard-response","26","127171","0.0-6.0-6.2","553","","","","","clear_screen","null","null","","","critical","t","c","d","164","240","240","164","158.0083","227.1683","spektor","0.09","h","164","240","240","164","158.0083","227.1683","39360","39360","35894.4834","td","null","null","null","null","null","null","[1,3]","","",""
"","canvas-keyboard-response","27","127372","0.0-6.0-0.3","553","","","","","pre trial waiting period","null","null","","","critical","d","c","t","240","164","164","240","240","164","spektor","0","w","240","164","164","240","240","164","39360","39360","39360","tc","null","null","null","null","null","null","[3,2]","537.8682533443513","113.92979013389859","493.53785302110805"
"","canvas-keyboard-response","28","127391","0.0-6.0-1.3","553","","","","","clear_screen","null","null","","","critical","d","c","t","240","164","164","240","240","164","spektor","0","w","240","164","164","240","240","164","39360","39360","39360","tc","null","null","null","null","null","null","[3,2]","537.8682533443513","113.92979013389859","493.53785302110805"
"","canvas-keyboard-response","29","127899","0.0-6.0-2.3","553","","","","","rectangles no change","null","null","","","critical","d","c","t","240","164","164","240","240","164","spektor","0","w","240","164","164","240","240","164","39360","39360","39360","tc","null","null","null","null","null","null","[3,2]","537.8682533443513","113.92979013389859","493.53785302110805"
"","canvas-keyboard-response","30","129238","0.0-6.0-3.3","553","","","","","rectangles with change","null","null","","","critical","d","c","t","240","164","164","240","240","164","spektor","0","w","240","164","164","240","240","164","39360","39360","39360","tc","null","null","null","null","null","null","[3,2]","537.8682533443513","113.92979013389859","493.53785302110805"
"","canvas-keyboard-response","31","129262","0.0-6.0-4.3","553","","","","","clear_screen","null","null","","","critical","d","c","t","240","164","164","240","240","164","spektor","0","w","240","164","164","240","240","164","39360","39360","39360","tc","null","null","null","null","null","null","[3,2]","537.8682533443513","113.92979013389859","493.53785302110805"
"","canvas-keyboard-response","32","129919","0.0-6.0-5.3","553","","","","","make choice","652","3","","","critical","d","c","t","240","164","164","240","240","164","spektor","0","w","240","164","164","240","240","164","39360","39360","39360","tc","null","null","null","null","null","null","[3,2]","","",""
"","canvas-keyboard-response","33","129937","0.0-6.0-6.3","553","","","","","clear_screen","null","null","","","critical","d","c","t","240","164","164","240","240","164","spektor","0","w","240","164","164","240","240","164","39360","39360","39360","tc","null","null","null","null","null","null","[3,2]","","",""
"","canvas-keyboard-response","34","130138","0.0-6.0-0.4","553","","","","","pre trial waiting period","null","null","","","catch","sh","sw","l","234","187","170","218","209","253","spektor","null","null","null","null","null","null","null","null","null","null","null","","180","200","260","200","36000","52000","[1,3]","516.5498293811598","106.15944846610492","463.3585327717418"
"","canvas-keyboard-response","35","130159","0.0-6.0-1.4","553","","","","","clear_screen","null","null","","","catch","sh","sw","l","234","187","170","218","209","253","spektor","null","null","null","null","null","null","null","null","null","null","null","","180","200","260","200","36000","52000","[1,3]","516.5498293811598","106.15944846610492","463.3585327717418"
"","canvas-keyboard-response","36","130666","0.0-6.0-2.4","553","","","","","rectangles no change","null","null","","","catch","sh","sw","l","234","187","170","218","209","253","spektor","null","null","null","null","null","null","null","null","null","null","null","","180","200","260","200","36000","52000","[1,3]","516.5498293811598","106.15944846610492","463.3585327717418"
"","canvas-keyboard-response","37","132003","0.0-6.0-3.4","553","","","","","rectangles with change","null","null","","","catch","sh","sw","l","234","187","170","218","209","253","spektor","null","null","null","null","null","null","null","null","null","null","null","","180","200","260","200","36000","52000","[1,3]","516.5498293811598","106.15944846610492","463.3585327717418"
"","canvas-keyboard-response","38","132023","0.0-6.0-4.4","553","","","","","clear_screen","null","null","","","catch","sh","sw","l","234","187","170","218","209","253","spektor","null","null","null","null","null","null","null","null","null","null","null","","180","200","260","200","36000","52000","[1,3]","516.5498293811598","106.15944846610492","463.3585327717418"
"","canvas-keyboard-response","39","132599","0.0-6.0-5.4","553","","","","","make choice","570","3","","","catch","sh","sw","l","234","187","170","218","209","253","spektor","null","null","null","null","null","null","null","null","null","null","null","","180","200","260","200","36000","52000","[1,3]","","",""
"","canvas-keyboard-response","40","132617","0.0-6.0-6.4","553","","","","","clear_screen","null","null","","","catch","sh","sw","l","234","187","170","218","209","253","spektor","null","null","null","null","null","null","null","null","null","null","null","","180","200","260","200","36000","52000","[1,3]","","",""
"","canvas-keyboard-response","41","132819","0.0-6.0-0.5","553","","","","","pre trial waiting period","null","null","","","critical","d","c","t","154.6796","220.0396","240","164","164","240","trueblood","0.14","h","164","240","240","164","154.6796","220.0396","39360","39360","34035.6388","dc","null","null","null","null","null","null","[1,2]","469.24656550212825","492.7316457368019","468.18590774355135"
"","canvas-keyboard-response","42","132838","0.0-6.0-1.5","553","","","","","clear_screen","null","null","","","critical","d","c","t","154.6796","220.0396","240","164","164","240","trueblood","0.14","h","164","240","240","164","154.6796","220.0396","39360","39360","34035.6388","dc","null","null","null","null","null","null","[1,2]","469.24656550212825","492.7316457368019","468.18590774355135"
"","canvas-keyboard-response","43","133349","0.0-6.0-2.5","553","","","","","rectangles no change","null","null","","","critical","d","c","t","154.6796","220.0396","240","164","164","240","trueblood","0.14","h","164","240","240","164","154.6796","220.0396","39360","39360","34035.6388","dc","null","null","null","null","null","null","[1,2]","469.24656550212825","492.7316457368019","468.18590774355135"
"","canvas-keyboard-response","44","134684","0.0-6.0-3.5","553","","","","","rectangles with change","null","null","","","critical","d","c","t","154.6796","220.0396","240","164","164","240","trueblood","0.14","h","164","240","240","164","154.6796","220.0396","39360","39360","34035.6388","dc","null","null","null","null","null","null","[1,2]","469.24656550212825","492.7316457368019","468.18590774355135"
"","canvas-keyboard-response","45","134702","0.0-6.0-4.5","553","","","","","clear_screen","null","null","","","critical","d","c","t","154.6796","220.0396","240","164","164","240","trueblood","0.14","h","164","240","240","164","154.6796","220.0396","39360","39360","34035.6388","dc","null","null","null","null","null","null","[1,2]","469.24656550212825","492.7316457368019","468.18590774355135"
"","canvas-keyboard-response","46","135151","0.0-6.0-5.5","553","","","","","make choice","440","2","","","critical","d","c","t","154.6796","220.0396","240","164","164","240","trueblood","0.14","h","164","240","240","164","154.6796","220.0396","39360","39360","34035.6388","dc","null","null","null","null","null","null","[1,2]","","",""
"","canvas-keyboard-response","47","135171","0.0-6.0-6.5","553","","","","","clear_screen","null","null","","","critical","d","c","t","154.6796","220.0396","240","164","164","240","trueblood","0.14","h","164","240","240","164","154.6796","220.0396","39360","39360","34035.6388","dc","null","null","null","null","null","null","[1,2]","","",""
"","canvas-keyboard-response","48","135371","0.0-6.0-0.6","553","","","","","pre trial waiting period","null","null","","","critical","d","c","t","227.1683","158.0083","164","240","240","164","spektor","0.09","w","240","164","164","240","227.1683","158.0083","39360","39360","35894.4834","tc","null","null","null","null","null","null","[3,2]","520.4074290158485","136.8031963752926","513.2925849502615"
"","canvas-keyboard-response","49","135394","0.0-6.0-1.6","553","","","","","clear_screen","null","null","","","critical","d","c","t","227.1683","158.0083","164","240","240","164","spektor","0.09","w","240","164","164","240","227.1683","158.0083","39360","39360","35894.4834","tc","null","null","null","null","null","null","[3,2]","520.4074290158485","136.8031963752926","513.2925849502615"
"","canvas-keyboard-response","50","135900","0.0-6.0-2.6","553","","","","","rectangles no change","null","null","","","critical","d","c","t","227.1683","158.0083","164","240","240","164","spektor","0.09","w","240","164","164","240","227.1683","158.0083","39360","39360","35894.4834","tc","null","null","null","null","null","null","[3,2]","520.4074290158485","136.8031963752926","513.2925849502615"
"","canvas-keyboard-response","51","137235","0.0-6.0-3.6","553","","","","","rectangles with change","null","null","","","critical","d","c","t","227.1683","158.0083","164","240","240","164","spektor","0.09","w","240","164","164","240","227.1683","158.0083","39360","39360","35894.4834","tc","null","null","null","null","null","null","[3,2]","520.4074290158485","136.8031963752926","513.2925849502615"
"","canvas-keyboard-response","52","137255","0.0-6.0-4.6","553","","","","","clear_screen","null","null","","","critical","d","c","t","227.1683","158.0083","164","240","240","164","spektor","0.09","w","240","164","164","240","227.1683","158.0083","39360","39360","35894.4834","tc","null","null","null","null","null","null","[3,2]","520.4074290158485","136.8031963752926","513.2925849502615"
"","canvas-keyboard-response","53","137727","0.0-6.0-5.6","553","","","","","make choice","466","3","","","critical","d","c","t","227.1683","158.0083","164","240","240","164","spektor","0.09","w","240","164","164","240","227.1683","158.0083","39360","39360","35894.4834","tc","null","null","null","null","null","null","[3,2]","","",""
"","canvas-keyboard-response","54","137747","0.0-6.0-6.6","553","","","","","clear_screen","null","null","","","critical","d","c","t","227.1683","158.0083","164","240","240","164","spektor","0.09","w","240","164","164","240","227.1683","158.0083","39360","39360","35894.4834","tc","null","null","null","null","null","null","[3,2]","","",""
"","canvas-keyboard-response","55","137949","0.0-6.0-0.7","553","","","","","pre trial waiting period","null","null","","","critical","t","c","d","240","164","164","240","220.0396","154.6796","spektor","0.14","w","240","164","164","240","220.0396","154.6796","39360","39360","34035.6388","td","null","null","null","null","null","null","[1,3]","537.244716489065","145.33462574282626","525.2147026085727"
"","canvas-keyboard-response","56","137966","0.0-6.0-1.7","553","","","","","clear_screen","null","null","","","critical","t","c","d","240","164","164","240","220.0396","154.6796","spektor","0.14","w","240","164","164","240","220.0396","154.6796","39360","39360","34035.6388","td","null","null","null","null","null","null","[1,3]","537.244716489065","145.33462574282626","525.2147026085727"
"","canvas-keyboard-response","57","138473","0.0-6.0-2.7","553","","","","","rectangles no change","null","null","","","critical","t","c","d","240","164","164","240","220.0396","154.6796","spektor","0.14","w","240","164","164","240","220.0396","154.6796","39360","39360","34035.6388","td","null","null","null","null","null","null","[1,3]","537.244716489065","145.33462574282626","525.2147026085727"
"","canvas-keyboard-response","58","139813","0.0-6.0-3.7","553","","","","","rectangles with change","null","null","","","critical","t","c","d","240","164","164","240","220.0396","154.6796","spektor","0.14","w","240","164","164","240","220.0396","154.6796","39360","39360","34035.6388","td","null","null","null","null","null","null","[1,3]","537.244716489065","145.33462574282626","525.2147026085727"
"","canvas-keyboard-response","59","139829","0.0-6.0-4.7","553","","","","","clear_screen","null","null","","","critical","t","c","d","240","164","164","240","220.0396","154.6796","spektor","0.14","w","240","164","164","240","220.0396","154.6796","39360","39360","34035.6388","td","null","null","null","null","null","null","[1,3]","537.244716489065","145.33462574282626","525.2147026085727"
"","canvas-keyboard-response","60","140511","0.0-6.0-5.7","553","","","","","make choice","675","1","","","critical","t","c","d","240","164","164","240","220.0396","154.6796","spektor","0.14","w","240","164","164","240","220.0396","154.6796","39360","39360","34035.6388","td","null","null","null","null","null","null","[1,3]","","",""
"","canvas-keyboard-response","61","140531","0.0-6.0-6.7","553","","","","","clear_screen","null","null","","","critical","t","c","d","240","164","164","240","220.0396","154.6796","spektor","0.14","w","240","164","164","240","220.0396","154.6796","39360","39360","34035.6388","td","null","null","null","null","null","null","[1,3]","","",""
"","canvas-keyboard-response","62","140733","0.0-6.0-0.8","553","","","","","pre trial waiting period","null","null","","","critical","c","d","t","164","240","227.1683","158.0083","240","164","trueblood","0.09","w","240","164","164","240","227.1683","158.0083","39360","39360","35894.4834","dc","null","null","null","null","null","null","[2,1]","453.75345962545964","521.425096296861","475.974313952254"
"","canvas-keyboard-response","63","140756","0.0-6.0-1.8","553","","","","","clear_screen","null","null","","","critical","c","d","t","164","240","227.1683","158.0083","240","164","trueblood","0.09","w","240","164","164","240","227.1683","158.0083","39360","39360","35894.4834","dc","null","null","null","null","null","null","[2,1]","453.75345962545964","521.425096296861","475.974313952254"
"","canvas-keyboard-response","64","141260","0.0-6.0-2.8","553","","","","","rectangles no change","null","null","","","critical","c","d","t","164","240","227.1683","158.0083","240","164","trueblood","0.09","w","240","164","164","240","227.1683","158.0083","39360","39360","35894.4834","dc","null","null","null","null","null","null","[2,1]","453.75345962545964","521.425096296861","475.974313952254"
"","canvas-keyboard-response","65","142596","0.0-6.0-3.8","553","","","","","rectangles with change","null","null","","","critical","c","d","t","164","240","227.1683","158.0083","240","164","trueblood","0.09","w","240","164","164","240","227.1683","158.0083","39360","39360","35894.4834","dc","null","null","null","null","null","null","[2,1]","453.75345962545964","521.425096296861","475.974313952254"
"","canvas-keyboard-response","66","142615","0.0-6.0-4.8","553","","","","","clear_screen","null","null","","","critical","c","d","t","164","240","227.1683","158.0083","240","164","trueblood","0.09","w","240","164","164","240","227.1683","158.0083","39360","39360","35894.4834","dc","null","null","null","null","null","null","[2,1]","453.75345962545964","521.425096296861","475.974313952254"
"","canvas-keyboard-response","67","143151","0.0-6.0-5.8","553","","","","","make choice","527","1","","","critical","c","d","t","164","240","227.1683","158.0083","240","164","trueblood","0.09","w","240","164","164","240","227.1683","158.0083","39360","39360","35894.4834","dc","null","null","null","null","null","null","[2,1]","","",""
"","canvas-keyboard-response","68","143170","0.0-6.0-6.8","553","","","","","clear_screen","null","null","","","critical","c","d","t","164","240","227.1683","158.0083","240","164","trueblood","0.09","w","240","164","164","240","227.1683","158.0083","39360","39360","35894.4834","dc","null","null","null","null","null","null","[2,1]","","",""
"","canvas-keyboard-response","69","143371","0.0-6.0-0.9","553","","","","","pre trial waiting period","null","null","","","critical","d","c","t","160.6713","232.8713","240","164","164","240","trueblood","0.05","h","164","240","240","164","160.6713","232.8713","39360","39360","37415.7294","tc","null","null","null","null","null","null","[3,2]","427.17348607176","509.2645775484037","419.8318629281619"
"","canvas-keyboard-response","70","143391","0.0-6.0-1.9","553","","","","","clear_screen","null","null","","","critical","d","c","t","160.6713","232.8713","240","164","164","240","trueblood","0.05","h","164","240","240","164","160.6713","232.8713","39360","39360","37415.7294","tc","null","null","null","null","null","null","[3,2]","427.17348607176","509.2645775484037","419.8318629281619"
"","canvas-keyboard-response","71","143899","0.0-6.0-2.9","553","","","","","rectangles no change","null","null","","","critical","d","c","t","160.6713","232.8713","240","164","164","240","trueblood","0.05","h","164","240","240","164","160.6713","232.8713","39360","39360","37415.7294","tc","null","null","null","null","null","null","[3,2]","427.17348607176","509.2645775484037","419.8318629281619"
"","canvas-keyboard-response","72","145234","0.0-6.0-3.9","553","","","","","rectangles with change","null","null","","","critical","d","c","t","160.6713","232.8713","240","164","164","240","trueblood","0.05","h","164","240","240","164","160.6713","232.8713","39360","39360","37415.7294","tc","null","null","null","null","null","null","[3,2]","427.17348607176","509.2645775484037","419.8318629281619"
"","canvas-keyboard-response","73","145254","0.0-6.0-4.9","553","","","","","clear_screen","null","null","","","critical","d","c","t","160.6713","232.8713","240","164","164","240","trueblood","0.05","h","164","240","240","164","160.6713","232.8713","39360","39360","37415.7294","tc","null","null","null","null","null","null","[3,2]","427.17348607176","509.2645775484037","419.8318629281619"
"","canvas-keyboard-response","74","146023","0.0-6.0-5.9","553","","","","","make choice","764","2","","","critical","d","c","t","160.6713","232.8713","240","164","164","240","trueblood","0.05","h","164","240","240","164","160.6713","232.8713","39360","39360","37415.7294","tc","null","null","null","null","null","null","[3,2]","","",""
"","canvas-keyboard-response","75","146041","0.0-6.0-6.9","553","","","","","clear_screen","null","null","","","critical","d","c","t","160.6713","232.8713","240","164","164","240","trueblood","0.05","h","164","240","240","164","160.6713","232.8713","39360","39360","37415.7294","tc","null","null","null","null","null","null","[3,2]","","",""
"","canvas-keyboard-response","76","146241","0.0-6.0-0.10","553","","","","","pre trial waiting period","null","null","","","critical","t","c","d","164","240","240","164","160.6713","232.8713","spektor","0.05","h","164","240","240","164","160.6713","232.8713","39360","39360","37415.7294","td","null","null","null","null","null","null","[1,3]","487.58860843480335","190.28257073119508","483.0632647286467"
"","canvas-keyboard-response","77","146261","0.0-6.0-1.10","553","","","","","clear_screen","null","null","","","critical","t","c","d","164","240","240","164","160.6713","232.8713","spektor","0.05","h","164","240","240","164","160.6713","232.8713","39360","39360","37415.7294","td","null","null","null","null","null","null","[1,3]","487.58860843480335","190.28257073119508","483.0632647286467"
"","canvas-keyboard-response","78","146770","0.0-6.0-2.10","553","","","","","rectangles no change","null","null","","","critical","t","c","d","164","240","240","164","160.6713","232.8713","spektor","0.05","h","164","240","240","164","160.6713","232.8713","39360","39360","37415.7294","td","null","null","null","null","null","null","[1,3]","487.58860843480335","190.28257073119508","483.0632647286467"
"","canvas-keyboard-response","79","148106","0.0-6.0-3.10","553","","","","","rectangles with change","null","null","","","critical","t","c","d","164","240","240","164","160.6713","232.8713","spektor","0.05","h","164","240","240","164","160.6713","232.8713","39360","39360","37415.7294","td","null","null","null","null","null","null","[1,3]","487.58860843480335","190.28257073119508","483.0632647286467"
"","canvas-keyboard-response","80","148124","0.0-6.0-4.10","553","","","","","clear_screen","null","null","","","critical","t","c","d","164","240","240","164","160.6713","232.8713","spektor","0.05","h","164","240","240","164","160.6713","232.8713","39360","39360","37415.7294","td","null","null","null","null","null","null","[1,3]","487.58860843480335","190.28257073119508","483.0632647286467"
"","canvas-keyboard-response","81","148919","0.0-6.0-5.10","553","","","","","make choice","788","1","","","critical","t","c","d","164","240","240","164","160.6713","232.8713","spektor","0.05","h","164","240","240","164","160.6713","232.8713","39360","39360","37415.7294","td","null","null","null","null","null","null","[1,3]","","",""
"","canvas-keyboard-response","82","148936","0.0-6.0-6.10","553","","","","","clear_screen","null","null","","","critical","t","c","d","164","240","240","164","160.6713","232.8713","spektor","0.05","h","164","240","240","164","160.6713","232.8713","39360","39360","37415.7294","td","null","null","null","null","null","null","[1,3]","","",""
"","canvas-keyboard-response","83","149138","0.0-6.0-0.11","553","","","","","pre trial waiting period","null","null","","","critical","c","t","d","164","240","240","164","220.0396","154.6796","trueblood","0.14","w","240","164","164","240","220.0396","154.6796","39360","39360","34035.6388","tc","null","null","null","null","null","null","[2,1]","464.36610848446935","468.64933966899827","479.07688366769236"
"","canvas-keyboard-response","84","149157","0.0-6.0-1.11","553","","","","","clear_screen","null","null","","","critical","c","t","d","164","240","240","164","220.0396","154.6796","trueblood","0.14","w","240","164","164","240","220.0396","154.6796","39360","39360","34035.6388","tc","null","null","null","null","null","null","[2,1]","464.36610848446935","468.64933966899827","479.07688366769236"
"","canvas-keyboard-response","85","149662","0.0-6.0-2.11","553","","","","","rectangles no change","null","null","","","critical","c","t","d","164","240","240","164","220.0396","154.6796","trueblood","0.14","w","240","164","164","240","220.0396","154.6796","39360","39360","34035.6388","tc","null","null","null","null","null","null","[2,1]","464.36610848446935","468.64933966899827","479.07688366769236"
"","canvas-keyboard-response","86","151001","0.0-6.0-3.11","553","","","","","rectangles with change","null","null","","","critical","c","t","d","164","240","240","164","220.0396","154.6796","trueblood","0.14","w","240","164","164","240","220.0396","154.6796","39360","39360","34035.6388","tc","null","null","null","null","null","null","[2,1]","464.36610848446935","468.64933966899827","479.07688366769236"
"","canvas-keyboard-response","87","151019","0.0-6.0-4.11","553","","","","","clear_screen","null","null","","","critical","c","t","d","164","240","240","164","220.0396","154.6796","trueblood","0.14","w","240","164","164","240","220.0396","154.6796","39360","39360","34035.6388","tc","null","null","null","null","null","null","[2,1]","464.36610848446935","468.64933966899827","479.07688366769236"
"","canvas-keyboard-response","88","152824","0.0-6.0-5.11","553","","","","","make choice","1800","2","","","critical","c","t","d","164","240","240","164","220.0396","154.6796","trueblood","0.14","w","240","164","164","240","220.0396","154.6796","39360","39360","34035.6388","tc","null","null","null","null","null","null","[2,1]","","",""
"","canvas-keyboard-response","89","152838","0.0-6.0-6.11","553","","","","","clear_screen","null","null","","","critical","c","t","d","164","240","240","164","220.0396","154.6796","trueblood","0.14","w","240","164","164","240","220.0396","154.6796","39360","39360","34035.6388","tc","null","null","null","null","null","null","[2,1]","","",""
"","canvas-keyboard-response","90","153039","0.0-6.0-0.12","553","","","","","pre trial waiting period","null","null","","","critical","c","d","t","240","164","158.0083","227.1683","164","240","spektor","0.09","h","164","240","240","164","158.0083","227.1683","39360","39360","35894.4834","dc","null","null","null","null","null","null","[2,1]","536.7049413820358","131.73250105002148","477.50544888477185"
"","canvas-keyboard-response","91","153057","0.0-6.0-1.12","553","","","","","clear_screen","null","null","","","critical","c","d","t","240","164","158.0083","227.1683","164","240","spektor","0.09","h","164","240","240","164","158.0083","227.1683","39360","39360","35894.4834","dc","null","null","null","null","null","null","[2,1]","536.7049413820358","131.73250105002148","477.50544888477185"
"","canvas-keyboard-response","92","153567","0.0-6.0-2.12","553","","","","","rectangles no change","null","null","","","critical","c","d","t","240","164","158.0083","227.1683","164","240","spektor","0.09","h","164","240","240","164","158.0083","227.1683","39360","39360","35894.4834","dc","null","null","null","null","null","null","[2,1]","536.7049413820358","131.73250105002148","477.50544888477185"
"","canvas-keyboard-response","93","154903","0.0-6.0-3.12","553","","","","","rectangles with change","null","null","","","critical","c","d","t","240","164","158.0083","227.1683","164","240","spektor","0.09","h","164","240","240","164","158.0083","227.1683","39360","39360","35894.4834","dc","null","null","null","null","null","null","[2,1]","536.7049413820358","131.73250105002148","477.50544888477185"
"","canvas-keyboard-response","94","154925","0.0-6.0-4.12","553","","","","","clear_screen","null","null","","","critical","c","d","t","240","164","158.0083","227.1683","164","240","spektor","0.09","h","164","240","240","164","158.0083","227.1683","39360","39360","35894.4834","dc","null","null","null","null","null","null","[2,1]","536.7049413820358","131.73250105002148","477.50544888477185"
"","canvas-keyboard-response","95","155615","0.0-6.0-5.12","553","","","","","make choice","686","1","","","critical","c","d","t","240","164","158.0083","227.1683","164","240","spektor","0.09","h","164","240","240","164","158.0083","227.1683","39360","39360","35894.4834","dc","null","null","null","null","null","null","[2,1]","","",""
"","canvas-keyboard-response","96","155637","0.0-6.0-6.12","553","","","","","clear_screen","null","null","","","critical","c","d","t","240","164","158.0083","227.1683","164","240","spektor","0.09","h","164","240","240","164","158.0083","227.1683","39360","39360","35894.4834","dc","null","null","null","null","null","null","[2,1]","","",""
"","canvas-keyboard-response","97","155838","0.0-6.0-0.13","553","","","","","pre trial waiting period","null","null","","","catch","sw","l","sh","180","200","162","221","238","213","spektor","null","null","null","null","null","null","null","null","null","null","null","","180","200","260","200","36000","52000","[2,3]","511.0059172785888","112.75149016317644","505.76131632070985"
"","canvas-keyboard-response","98","155855","0.0-6.0-1.13","553","","","","","clear_screen","null","null","","","catch","sw","l","sh","180","200","162","221","238","213","spektor","null","null","null","null","null","null","null","null","null","null","null","","180","200","260","200","36000","52000","[2,3]","511.0059172785888","112.75149016317644","505.76131632070985"
"","canvas-keyboard-response","99","156361","0.0-6.0-2.13","553","","","","","rectangles no change","null","null","","","catch","sw","l","sh","180","200","162","221","238","213","spektor","null","null","null","null","null","null","null","null","null","null","null","","180","200","260","200","36000","52000","[2,3]","511.0059172785888","112.75149016317644","505.76131632070985"
"","canvas-keyboard-response","100","157698","0.0-6.0-3.13","553","","","","","rectangles with change","null","null","","","catch","sw","l","sh","180","200","162","221","238","213","spektor","null","null","null","null","null","null","null","null","null","null","null","","180","200","260","200","36000","52000","[2,3]","511.0059172785888","112.75149016317644","505.76131632070985"
"","canvas-keyboard-response","101","157716","0.0-6.0-4.13","553","","","","","clear_screen","null","null","","","catch","sw","l","sh","180","200","162","221","238","213","spektor","null","null","null","null","null","null","null","null","null","null","null","","180","200","260","200","36000","52000","[2,3]","511.0059172785888","112.75149016317644","505.76131632070985"
"","canvas-keyboard-response","102","158207","0.0-6.0-5.13","553","","","","","make choice","486","3","","","catch","sw","l","sh","180","200","162","221","238","213","spektor","null","null","null","null","null","null","null","null","null","null","null","","180","200","260","200","36000","52000","[2,3]","","",""
"","canvas-keyboard-response","103","158227","0.0-6.0-6.13","553","","","","","clear_screen","null","null","","","catch","sw","l","sh","180","200","162","221","238","213","spektor","null","null","null","null","null","null","null","null","null","null","null","","180","200","260","200","36000","52000","[2,3]","","",""
"","canvas-keyboard-response","104","158428","0.0-6.0-0.14","553","","","","","pre trial waiting period","null","null","","","catch","l","sw","sh","234","280","173","162","224","182","spektor","null","null","null","null","null","null","null","null","null","null","null","","180","200","260","200","36000","52000","[1,3]","450.0368553628828","171.14321029301686","494.5253390486339"
"","canvas-keyboard-response","105","158447","0.0-6.0-1.14","553","","","","","clear_screen","null","null","","","catch","l","sw","sh","234","280","173","162","224","182","spektor","null","null","null","null","null","null","null","null","null","null","null","","180","200","260","200","36000","52000","[1,3]","450.0368553628828","171.14321029301686","494.5253390486339"
"","canvas-keyboard-response","106","158958","0.0-6.0-2.14","553","","","","","rectangles no change","null","null","","","catch","l","sw","sh","234","280","173","162","224","182","spektor","null","null","null","null","null","null","null","null","null","null","null","","180","200","260","200","36000","52000","[1,3]","450.0368553628828","171.14321029301686","494.5253390486339"
"","canvas-keyboard-response","107","160292","0.0-6.0-3.14","553","","","","","rectangles with change","null","null","","","catch","l","sw","sh","234","280","173","162","224","182","spektor","null","null","null","null","null","null","null","null","null","null","null","","180","200","260","200","36000","52000","[1,3]","450.0368553628828","171.14321029301686","494.5253390486339"
"","canvas-keyboard-response","108","160314","0.0-6.0-4.14","553","","","","","clear_screen","null","null","","","catch","l","sw","sh","234","280","173","162","224","182","spektor","null","null","null","null","null","null","null","null","null","null","null","","180","200","260","200","36000","52000","[1,3]","450.0368553628828","171.14321029301686","494.5253390486339"
"","canvas-keyboard-response","109","160758","0.0-6.0-5.14","553","","","","","make choice","437","1","","","catch","l","sw","sh","234","280","173","162","224","182","spektor","null","null","null","null","null","null","null","null","null","null","null","","180","200","260","200","36000","52000","[1,3]","","",""
"","canvas-keyboard-response","110","160776","0.0-6.0-6.14","553","","","","","clear_screen","null","null","","","catch","l","sw","sh","234","280","173","162","224","182","spektor","null","null","null","null","null","null","null","null","null","null","null","","180","200","260","200","36000","52000","[1,3]","","",""
"","canvas-keyboard-response","111","160976","0.0-6.0-0.15","553","","","","","pre trial waiting period","null","null","","","catch","sh","sw","l","206","195","181","222","243","226","trueblood","null","null","null","null","null","null","null","null","null","null","null","","180","200","260","200","36000","52000","[1,3]","463.6606147982722","475.2670309759816","464.5163934825149"
"","canvas-keyboard-response","112","160995","0.0-6.0-1.15","553","","","","","clear_screen","null","null","","","catch","sh","sw","l","206","195","181","222","243","226","trueblood","null","null","null","null","null","null","null","null","null","null","null","","180","200","260","200","36000","52000","[1,3]","463.6606147982722","475.2670309759816","464.5163934825149"
"","canvas-keyboard-response","113","161502","0.0-6.0-2.15","553","","","","","rectangles no change","null","null","","","catch","sh","sw","l","206","195","181","222","243","226","trueblood","null","null","null","null","null","null","null","null","null","null","null","","180","200","260","200","36000","52000","[1,3]","463.6606147982722","475.2670309759816","464.5163934825149"
"","canvas-keyboard-response","114","162838","0.0-6.0-3.15","553","","","","","rectangles with change","null","null","","","catch","sh","sw","l","206","195","181","222","243","226","trueblood","null","null","null","null","null","null","null","null","null","null","null","","180","200","260","200","36000","52000","[1,3]","463.6606147982722","475.2670309759816","464.5163934825149"
"","canvas-keyboard-response","115","162857","0.0-6.0-4.15","553","","","","","clear_screen","null","null","","","catch","sh","sw","l","206","195","181","222","243","226","trueblood","null","null","null","null","null","null","null","null","null","null","null","","180","200","260","200","36000","52000","[1,3]","463.6606147982722","475.2670309759816","464.5163934825149"
"","canvas-keyboard-response","116","163279","0.0-6.0-5.15","553","","","","","make choice","414","3","","","catch","sh","sw","l","206","195","181","222","243","226","trueblood","null","null","null","null","null","null","null","null","null","null","null","","180","200","260","200","36000","52000","[1,3]","","",""
"","canvas-keyboard-response","117","163297","0.0-6.0-6.15","553","","","","","clear_screen","null","null","","","catch","sh","sw","l","206","195","181","222","243","226","trueblood","null","null","null","null","null","null","null","null","null","null","null","","180","200","260","200","36000","52000","[1,3]","","",""
"","canvas-keyboard-response","118","163498","0.0-6.0-0.16","553","","","","","pre trial waiting period","null","null","","","critical","t","d","c","240","164","240","164","164","240","trueblood","0","w","240","164","164","240","240","164","39360","39360","39360","tc","null","null","null","null","null","null","[1,3]","514.2297471399771","516.2471353936858","426.2960932460096"
"","canvas-keyboard-response","119","163517","0.0-6.0-1.16","553","","","","","clear_screen","null","null","","","critical","t","d","c","240","164","240","164","164","240","trueblood","0","w","240","164","164","240","240","164","39360","39360","39360","tc","null","null","null","null","null","null","[1,3]","514.2297471399771","516.2471353936858","426.2960932460096"
"","canvas-keyboard-response","120","164025","0.0-6.0-2.16","553","","","","","rectangles no change","null","null","","","critical","t","d","c","240","164","240","164","164","240","trueblood","0","w","240","164","164","240","240","164","39360","39360","39360","tc","null","null","null","null","null","null","[1,3]","514.2297471399771","516.2471353936858","426.2960932460096"
"","canvas-keyboard-response","121","165359","0.0-6.0-3.16","553","","","","","rectangles with change","null","null","","","critical","t","d","c","240","164","240","164","164","240","trueblood","0","w","240","164","164","240","240","164","39360","39360","39360","tc","null","null","null","null","null","null","[1,3]","514.2297471399771","516.2471353936858","426.2960932460096"
"","canvas-keyboard-response","122","165378","0.0-6.0-4.16","553","","","","","clear_screen","null","null","","","critical","t","d","c","240","164","240","164","164","240","trueblood","0","w","240","164","164","240","240","164","39360","39360","39360","tc","null","null","null","null","null","null","[1,3]","514.2297471399771","516.2471353936858","426.2960932460096"
"","canvas-keyboard-response","123","165783","0.0-6.0-5.16","553","","","","","make choice","400","1","","","critical","t","d","c","240","164","240","164","164","240","trueblood","0","w","240","164","164","240","240","164","39360","39360","39360","tc","null","null","null","null","null","null","[1,3]","","",""
"","canvas-keyboard-response","124","165800","0.0-6.0-6.16","553","","","","","clear_screen","null","null","","","critical","t","d","c","240","164","240","164","164","240","trueblood","0","w","240","164","164","240","240","164","39360","39360","39360","tc","null","null","null","null","null","null","[1,3]","","",""
"","canvas-keyboard-response","125","166001","0.0-6.0-0.17","553","","","","","pre trial waiting period","null","null","","","critical","d","t","c","164","240","164","240","240","164","spektor","0","h","164","240","240","164","164","240","39360","39360","39360","tc","null","null","null","null","null","null","[2,3]","466.7544878842704","130.3738128259775","493.02083887272653"
"","canvas-keyboard-response","126","166022","0.0-6.0-1.17","553","","","","","clear_screen","null","null","","","critical","d","t","c","164","240","164","240","240","164","spektor","0","h","164","240","240","164","164","240","39360","39360","39360","tc","null","null","null","null","null","null","[2,3]","466.7544878842704","130.3738128259775","493.02083887272653"
"","canvas-keyboard-response","127","166529","0.0-6.0-2.17","553","","","","","rectangles no change","null","null","","","critical","d","t","c","164","240","164","240","240","164","spektor","0","h","164","240","240","164","164","240","39360","39360","39360","tc","null","null","null","null","null","null","[2,3]","466.7544878842704","130.3738128259775","493.02083887272653"
"","canvas-keyboard-response","128","167861","0.0-6.0-3.17","553","","","","","rectangles with change","null","null","","","critical","d","t","c","164","240","164","240","240","164","spektor","0","h","164","240","240","164","164","240","39360","39360","39360","tc","null","null","null","null","null","null","[2,3]","466.7544878842704","130.3738128259775","493.02083887272653"
"","canvas-keyboard-response","129","167879","0.0-6.0-4.17","553","","","","","clear_screen","null","null","","","critical","d","t","c","164","240","164","240","240","164","spektor","0","h","164","240","240","164","164","240","39360","39360","39360","tc","null","null","null","null","null","null","[2,3]","466.7544878842704","130.3738128259775","493.02083887272653"
"","canvas-keyboard-response","130","168335","0.0-6.0-5.17","553","","","","","make choice","449","3","","","critical","d","t","c","164","240","164","240","240","164","spektor","0","h","164","240","240","164","164","240","39360","39360","39360","tc","null","null","null","null","null","null","[2,3]","","",""
"","canvas-keyboard-response","131","168355","0.0-6.0-6.17","553","","","","","clear_screen","null","null","","","critical","d","t","c","164","240","164","240","240","164","spektor","0","h","164","240","240","164","164","240","39360","39360","39360","tc","null","null","null","null","null","null","[2,3]","","",""
"","canvas-keyboard-response","132","168556","0.0-6.0-0.18","553","","","","","pre trial waiting period","null","null","","","critical","d","c","t","158.0083","227.1683","240","164","164","240","trueblood","0.09","h","164","240","240","164","158.0083","227.1683","39360","39360","35894.4834","tc","null","null","null","null","null","null","[3,2]","428.7902945987705","484.4417173090738","431.25351531477986"
"","canvas-keyboard-response","133","168574","0.0-6.0-1.18","553","","","","","clear_screen","null","null","","","critical","d","c","t","158.0083","227.1683","240","164","164","240","trueblood","0.09","h","164","240","240","164","158.0083","227.1683","39360","39360","35894.4834","tc","null","null","null","null","null","null","[3,2]","428.7902945987705","484.4417173090738","431.25351531477986"
"","canvas-keyboard-response","134","169079","0.0-6.0-2.18","553","","","","","rectangles no change","null","null","","","critical","d","c","t","158.0083","227.1683","240","164","164","240","trueblood","0.09","h","164","240","240","164","158.0083","227.1683","39360","39360","35894.4834","tc","null","null","null","null","null","null","[3,2]","428.7902945987705","484.4417173090738","431.25351531477986"
"","canvas-keyboard-response","135","170416","0.0-6.0-3.18","553","","","","","rectangles with change","null","null","","","critical","d","c","t","158.0083","227.1683","240","164","164","240","trueblood","0.09","h","164","240","240","164","158.0083","227.1683","39360","39360","35894.4834","tc","null","null","null","null","null","null","[3,2]","428.7902945987705","484.4417173090738","431.25351531477986"
"","canvas-keyboard-response","136","170434","0.0-6.0-4.18","553","","","","","clear_screen","null","null","","","critical","d","c","t","158.0083","227.1683","240","164","164","240","trueblood","0.09","h","164","240","240","164","158.0083","227.1683","39360","39360","35894.4834","tc","null","null","null","null","null","null","[3,2]","428.7902945987705","484.4417173090738","431.25351531477986"
"","canvas-keyboard-response","137","170743","0.0-6.0-5.18","553","","","","","make choice","303","2","","","critical","d","c","t","158.0083","227.1683","240","164","164","240","trueblood","0.09","h","164","240","240","164","158.0083","227.1683","39360","39360","35894.4834","tc","null","null","null","null","null","null","[3,2]","","",""
"","canvas-keyboard-response","138","170763","0.0-6.0-6.18","553","","","","","clear_screen","null","null","","","critical","d","c","t","158.0083","227.1683","240","164","164","240","trueblood","0.09","h","164","240","240","164","158.0083","227.1683","39360","39360","35894.4834","tc","null","null","null","null","null","null","[3,2]","","",""
"","canvas-keyboard-response","139","170964","0.0-6.0-0.19","553","","","","","pre trial waiting period","null","null","","","critical","t","c","d","164","240","240","164","164","240","trueblood","0","h","164","240","240","164","164","240","39360","39360","39360","td","null","null","null","null","null","null","[1,3]","465.2988790489842","483.9449888321548","445.63459312261705"
"","canvas-keyboard-response","140","170983","0.0-6.0-1.19","553","","","","","clear_screen","null","null","","","critical","t","c","d","164","240","240","164","164","240","trueblood","0","h","164","240","240","164","164","240","39360","39360","39360","td","null","null","null","null","null","null","[1,3]","465.2988790489842","483.9449888321548","445.63459312261705"
"","canvas-keyboard-response","141","171494","0.0-6.0-2.19","553","","","","","rectangles no change","null","null","","","critical","t","c","d","164","240","240","164","164","240","trueblood","0","h","164","240","240","164","164","240","39360","39360","39360","td","null","null","null","null","null","null","[1,3]","465.2988790489842","483.9449888321548","445.63459312261705"
"","canvas-keyboard-response","142","172829","0.0-6.0-3.19","553","","","","","rectangles with change","null","null","","","critical","t","c","d","164","240","240","164","164","240","trueblood","0","h","164","240","240","164","164","240","39360","39360","39360","td","null","null","null","null","null","null","[1,3]","465.2988790489842","483.9449888321548","445.63459312261705"
"","canvas-keyboard-response","143","172848","0.0-6.0-4.19","553","","","","","clear_screen","null","null","","","critical","t","c","d","164","240","240","164","164","240","trueblood","0","h","164","240","240","164","164","240","39360","39360","39360","td","null","null","null","null","null","null","[1,3]","465.2988790489842","483.9449888321548","445.63459312261705"
"","canvas-keyboard-response","144","174038","0.0-6.0-5.19","553","","","","","make choice","1185","1","","","critical","t","c","d","164","240","240","164","164","240","trueblood","0","h","164","240","240","164","164","240","39360","39360","39360","td","null","null","null","null","null","null","[1,3]","","",""
"","canvas-keyboard-response","145","174059","0.0-6.0-6.19","553","","","","","clear_screen","null","null","","","critical","t","c","d","164","240","240","164","164","240","trueblood","0","h","164","240","240","164","164","240","39360","39360","39360","td","null","null","null","null","null","null","[1,3]","","",""
"","canvas-keyboard-response","146","174259","0.0-6.0-0.20","553","","","","","pre trial waiting period","null","null","","","critical","c","t","d","164","240","240","164","232.8713","160.6713","trueblood","0.05","w","240","164","164","240","232.8713","160.6713","39360","39360","37415.7294","tc","null","null","null","null","null","null","[2,1]","462.0346248763745","518.2302797879272","474.5056902716472"
"","canvas-keyboard-response","147","174278","0.0-6.0-1.20","553","","","","","clear_screen","null","null","","","critical","c","t","d","164","240","240","164","232.8713","160.6713","trueblood","0.05","w","240","164","164","240","232.8713","160.6713","39360","39360","37415.7294","tc","null","null","null","null","null","null","[2,1]","462.0346248763745","518.2302797879272","474.5056902716472"
"","canvas-keyboard-response","148","174783","0.0-6.0-2.20","553","","","","","rectangles no change","null","null","","","critical","c","t","d","164","240","240","164","232.8713","160.6713","trueblood","0.05","w","240","164","164","240","232.8713","160.6713","39360","39360","37415.7294","tc","null","null","null","null","null","null","[2,1]","462.0346248763745","518.2302797879272","474.5056902716472"
"","canvas-keyboard-response","149","176121","0.0-6.0-3.20","553","","","","","rectangles with change","null","null","","","critical","c","t","d","164","240","240","164","232.8713","160.6713","trueblood","0.05","w","240","164","164","240","232.8713","160.6713","39360","39360","37415.7294","tc","null","null","null","null","null","null","[2,1]","462.0346248763745","518.2302797879272","474.5056902716472"
"","canvas-keyboard-response","150","176143","0.0-6.0-4.20","553","","","","","clear_screen","null","null","","","critical","c","t","d","164","240","240","164","232.8713","160.6713","trueblood","0.05","w","240","164","164","240","232.8713","160.6713","39360","39360","37415.7294","tc","null","null","null","null","null","null","[2,1]","462.0346248763745","518.2302797879272","474.5056902716472"
"","canvas-keyboard-response","151","176759","0.0-6.0-5.20","553","","","","","make choice","611","2","","","critical","c","t","d","164","240","240","164","232.8713","160.6713","trueblood","0.05","w","240","164","164","240","232.8713","160.6713","39360","39360","37415.7294","tc","null","null","null","null","null","null","[2,1]","","",""
"","canvas-keyboard-response","152","176776","0.0-6.0-6.20","553","","","","","clear_screen","null","null","","","critical","c","t","d","164","240","240","164","232.8713","160.6713","trueblood","0.05","w","240","164","164","240","232.8713","160.6713","39360","39360","37415.7294","tc","null","null","null","null","null","null","[2,1]","","",""
"","canvas-keyboard-response","153","176978","0.0-6.0-0.21","553","","","","","pre trial waiting period","null","null","","","catch","l","sw","sh","289","163","191","232","170","177","trueblood","null","null","null","null","null","null","null","null","null","null","null","","180","200","260","200","36000","52000","[1,3]","501.56732630566484","467.0241210474413","503.53114395350445"
"","canvas-keyboard-response","154","176997","0.0-6.0-1.21","553","","","","","clear_screen","null","null","","","catch","l","sw","sh","289","163","191","232","170","177","trueblood","null","null","null","null","null","null","null","null","null","null","null","","180","200","260","200","36000","52000","[1,3]","501.56732630566484","467.0241210474413","503.53114395350445"
"","canvas-keyboard-response","155","177502","0.0-6.0-2.21","553","","","","","rectangles no change","null","null","","","catch","l","sw","sh","289","163","191","232","170","177","trueblood","null","null","null","null","null","null","null","null","null","null","null","","180","200","260","200","36000","52000","[1,3]","501.56732630566484","467.0241210474413","503.53114395350445"
"","canvas-keyboard-response","156","178841","0.0-6.0-3.21","553","","","","","rectangles with change","null","null","","","catch","l","sw","sh","289","163","191","232","170","177","trueblood","null","null","null","null","null","null","null","null","null","null","null","","180","200","260","200","36000","52000","[1,3]","501.56732630566484","467.0241210474413","503.53114395350445"
"","canvas-keyboard-response","157","178859","0.0-6.0-4.21","553","","","","","clear_screen","null","null","","","catch","l","sw","sh","289","163","191","232","170","177","trueblood","null","null","null","null","null","null","null","null","null","null","null","","180","200","260","200","36000","52000","[1,3]","501.56732630566484","467.0241210474413","503.53114395350445"
"","canvas-keyboard-response","158","179823","0.0-6.0-5.21","553","","","","","make choice","959","1","","","catch","l","sw","sh","289","163","191","232","170","177","trueblood","null","null","null","null","null","null","null","null","null","null","null","","180","200","260","200","36000","52000","[1,3]","","",""
"","canvas-keyboard-response","159","179837","0.0-6.0-6.21","553","","","","","clear_screen","null","null","","","catch","l","sw","sh","289","163","191","232","170","177","trueblood","null","null","null","null","null","null","null","null","null","null","null","","180","200","260","200","36000","52000","[1,3]","","",""
"","canvas-keyboard-response","160","180037","0.0-6.0-0.22","553","","","","","pre trial waiting period","null","null","","","catch","sh","sw","l","192","141","165","236","189","245","spektor","null","null","null","null","null","null","null","null","null","null","null","","180","200","260","200","36000","52000","[1,3]","549.6305196543558","132.4345632021653","493.9765189733299"
"","canvas-keyboard-response","161","180056","0.0-6.0-1.22","553","","","","","clear_screen","null","null","","","catch","sh","sw","l","192","141","165","236","189","245","spektor","null","null","null","null","null","null","null","null","null","null","null","","180","200","260","200","36000","52000","[1,3]","549.6305196543558","132.4345632021653","493.9765189733299"
"","canvas-keyboard-response","162","180564","0.0-6.0-2.22","553","","","","","rectangles no change","null","null","","","catch","sh","sw","l","192","141","165","236","189","245","spektor","null","null","null","null","null","null","null","null","null","null","null","","180","200","260","200","36000","52000","[1,3]","549.6305196543558","132.4345632021653","493.9765189733299"
"","canvas-keyboard-response","163","181900","0.0-6.0-3.22","553","","","","","rectangles with change","null","null","","","catch","sh","sw","l","192","141","165","236","189","245","spektor","null","null","null","null","null","null","null","null","null","null","null","","180","200","260","200","36000","52000","[1,3]","549.6305196543558","132.4345632021653","493.9765189733299"
"","canvas-keyboard-response","164","181922","0.0-6.0-4.22","553","","","","","clear_screen","null","null","","","catch","sh","sw","l","192","141","165","236","189","245","spektor","null","null","null","null","null","null","null","null","null","null","null","","180","200","260","200","36000","52000","[1,3]","549.6305196543558","132.4345632021653","493.9765189733299"
"","canvas-keyboard-response","165","182335","0.0-6.0-5.22","553","","","","","make choice","404","3","","","catch","sh","sw","l","192","141","165","236","189","245","spektor","null","null","null","null","null","null","null","null","null","null","null","","180","200","260","200","36000","52000","[1,3]","","",""
"","canvas-keyboard-response","166","182355","0.0-6.0-6.22","553","","","","","clear_screen","null","null","","","catch","sh","sw","l","192","141","165","236","189","245","spektor","null","null","null","null","null","null","null","null","null","null","null","","180","200","260","200","36000","52000","[1,3]","","",""
"","canvas-keyboard-response","167","182556","0.0-6.0-0.23","553","","","","","pre trial waiting period","null","null","","","critical","t","d","c","240","164","227.1683","158.0083","164","240","trueblood","0.09","w","240","164","164","240","227.1683","158.0083","39360","39360","35894.4834","td","null","null","null","null","null","null","[1,2]","485.32224919889967","487.92459814068167","466.97185248790294"
"","canvas-keyboard-response","168","182578","0.0-6.0-1.23","553","","","","","clear_screen","null","null","","","critical","t","d","c","240","164","227.1683","158.0083","164","240","trueblood","0.09","w","240","164","164","240","227.1683","158.0083","39360","39360","35894.4834","td","null","null","null","null","null","null","[1,2]","485.32224919889967","487.92459814068167","466.97185248790294"
"","canvas-keyboard-response","169","183085","0.0-6.0-2.23","553","","","","","rectangles no change","null","null","","","critical","t","d","c","240","164","227.1683","158.0083","164","240","trueblood","0.09","w","240","164","164","240","227.1683","158.0083","39360","39360","35894.4834","td","null","null","null","null","null","null","[1,2]","485.32224919889967","487.92459814068167","466.97185248790294"
"","canvas-keyboard-response","170","184424","0.0-6.0-3.23","553","","","","","rectangles with change","null","null","","","critical","t","d","c","240","164","227.1683","158.0083","164","240","trueblood","0.09","w","240","164","164","240","227.1683","158.0083","39360","39360","35894.4834","td","null","null","null","null","null","null","[1,2]","485.32224919889967","487.92459814068167","466.97185248790294"
"","canvas-keyboard-response","171","184443","0.0-6.0-4.23","553","","","","","clear_screen","null","null","","","critical","t","d","c","240","164","227.1683","158.0083","164","240","trueblood","0.09","w","240","164","164","240","227.1683","158.0083","39360","39360","35894.4834","td","null","null","null","null","null","null","[1,2]","485.32224919889967","487.92459814068167","466.97185248790294"
"","canvas-keyboard-response","172","184887","0.0-6.0-5.23","553","","","","","make choice","437","2","","","critical","t","d","c","240","164","227.1683","158.0083","164","240","trueblood","0.09","w","240","164","164","240","227.1683","158.0083","39360","39360","35894.4834","td","null","null","null","null","null","null","[1,2]","","",""
"","canvas-keyboard-response","173","184905","0.0-6.0-6.23","553","","","","","clear_screen","null","null","","","critical","t","d","c","240","164","227.1683","158.0083","164","240","trueblood","0.09","w","240","164","164","240","227.1683","158.0083","39360","39360","35894.4834","td","null","null","null","null","null","null","[1,2]","","",""
"","canvas-keyboard-response","174","185106","0.0-6.0-0.24","553","","","","","pre trial waiting period","null","null","","","catch","sw","l","sh","180","200","221","193","194","178","spektor","null","null","null","null","null","null","null","null","null","null","null","","180","200","260","200","36000","52000","[1,2]","497.4144075646683","189.68745046602263","506.66802168989426"
"","canvas-keyboard-response","175","185126","0.0-6.0-1.24","553","","","","","clear_screen","null","null","","","catch","sw","l","sh","180","200","221","193","194","178","spektor","null","null","null","null","null","null","null","null","null","null","null","","180","200","260","200","36000","52000","[1,2]","497.4144075646683","189.68745046602263","506.66802168989426"
"","canvas-keyboard-response","176","185635","0.0-6.0-2.24","553","","","","","rectangles no change","null","null","","","catch","sw","l","sh","180","200","221","193","194","178","spektor","null","null","null","null","null","null","null","null","null","null","null","","180","200","260","200","36000","52000","[1,2]","497.4144075646683","189.68745046602263","506.66802168989426"
"","canvas-keyboard-response","177","186973","0.0-6.0-3.24","553","","","","","rectangles with change","null","null","","","catch","sw","l","sh","180","200","221","193","194","178","spektor","null","null","null","null","null","null","null","null","null","null","null","","180","200","260","200","36000","52000","[1,2]","497.4144075646683","189.68745046602263","506.66802168989426"
"","canvas-keyboard-response","178","186992","0.0-6.0-4.24","553","","","","","clear_screen","null","null","","","catch","sw","l","sh","180","200","221","193","194","178","spektor","null","null","null","null","null","null","null","null","null","null","null","","180","200","260","200","36000","52000","[1,2]","497.4144075646683","189.68745046602263","506.66802168989426"
"","canvas-keyboard-response","179","187615","0.0-6.0-5.24","553","","","","","make choice","617","2","","","catch","sw","l","sh","180","200","221","193","194","178","spektor","null","null","null","null","null","null","null","null","null","null","null","","180","200","260","200","36000","52000","[1,2]","","",""
"","canvas-keyboard-response","180","187633","0.0-6.0-6.24","553","","","","","clear_screen","null","null","","","catch","sw","l","sh","180","200","221","193","194","178","spektor","null","null","null","null","null","null","null","null","null","null","null","","180","200","260","200","36000","52000","[1,2]","","",""
"","canvas-keyboard-response","181","187835","0.0-6.0-0.25","553","","","","","pre trial waiting period","null","null","","","catch","l","sw","sh","231","277","200","200","166","143","spektor","null","null","null","null","null","null","null","null","null","null","null","","180","200","260","200","36000","52000","[1,2]","479.69024707475546","138.65353100431128","514.4438135750906"
"","canvas-keyboard-response","182","187855","0.0-6.0-1.25","553","","","","","clear_screen","null","null","","","catch","l","sw","sh","231","277","200","200","166","143","spektor","null","null","null","null","null","null","null","null","null","null","null","","180","200","260","200","36000","52000","[1,2]","479.69024707475546","138.65353100431128","514.4438135750906"
"","canvas-keyboard-response","183","188368","0.0-6.0-2.25","553","","","","","rectangles no change","null","null","","","catch","l","sw","sh","231","277","200","200","166","143","spektor","null","null","null","null","null","null","null","null","null","null","null","","180","200","260","200","36000","52000","[1,2]","479.69024707475546","138.65353100431128","514.4438135750906"
"","canvas-keyboard-response","184","189709","0.0-6.0-3.25","553","","","","","rectangles with change","null","null","","","catch","l","sw","sh","231","277","200","200","166","143","spektor","null","null","null","null","null","null","null","null","null","null","null","","180","200","260","200","36000","52000","[1,2]","479.69024707475546","138.65353100431128","514.4438135750906"
"","canvas-keyboard-response","185","189731","0.0-6.0-4.25","553","","","","","clear_screen","null","null","","","catch","l","sw","sh","231","277","200","200","166","143","spektor","null","null","null","null","null","null","null","null","null","null","null","","180","200","260","200","36000","52000","[1,2]","479.69024707475546","138.65353100431128","514.4438135750906"
"","canvas-keyboard-response","186","190135","0.0-6.0-5.25","553","","","","","make choice","401","1","","","catch","l","sw","sh","231","277","200","200","166","143","spektor","null","null","null","null","null","null","null","null","null","null","null","","180","200","260","200","36000","52000","[1,2]","","",""
"","canvas-keyboard-response","187","190155","0.0-6.0-6.25","553","","","","","clear_screen","null","null","","","catch","l","sw","sh","231","277","200","200","166","143","spektor","null","null","null","null","null","null","null","null","null","null","null","","180","200","260","200","36000","52000","[1,2]","","",""
"","canvas-keyboard-response","188","190356","0.0-6.0-0.26","553","","","","","pre trial waiting period","null","null","","","critical","d","c","t","158.0083","227.1683","240","164","164","240","trueblood","0.09","h","164","240","240","164","158.0083","227.1683","39360","39360","35894.4834","dc","null","null","null","null","null","null","[1,2]","467.06602036834033","514.1054194741489","443.9613498653273"
"","canvas-keyboard-response","189","190376","0.0-6.0-1.26","553","","","","","clear_screen","null","null","","","critical","d","c","t","158.0083","227.1683","240","164","164","240","trueblood","0.09","h","164","240","240","164","158.0083","227.1683","39360","39360","35894.4834","dc","null","null","null","null","null","null","[1,2]","467.06602036834033","514.1054194741489","443.9613498653273"
"","canvas-keyboard-response","190","190883","0.0-6.0-2.26","553","","","","","rectangles no change","null","null","","","critical","d","c","t","158.0083","227.1683","240","164","164","240","trueblood","0.09","h","164","240","240","164","158.0083","227.1683","39360","39360","35894.4834","dc","null","null","null","null","null","null","[1,2]","467.06602036834033","514.1054194741489","443.9613498653273"
"","canvas-keyboard-response","191","192217","0.0-6.0-3.26","553","","","","","rectangles with change","null","null","","","critical","d","c","t","158.0083","227.1683","240","164","164","240","trueblood","0.09","h","164","240","240","164","158.0083","227.1683","39360","39360","35894.4834","dc","null","null","null","null","null","null","[1,2]","467.06602036834033","514.1054194741489","443.9613498653273"
"","canvas-keyboard-response","192","192237","0.0-6.0-4.26","553","","","","","clear_screen","null","null","","","critical","d","c","t","158.0083","227.1683","240","164","164","240","trueblood","0.09","h","164","240","240","164","158.0083","227.1683","39360","39360","35894.4834","dc","null","null","null","null","null","null","[1,2]","467.06602036834033","514.1054194741489","443.9613498653273"
"","canvas-keyboard-response","193","192719","0.0-6.0-5.26","553","","","","","make choice","479","2","","","critical","d","c","t","158.0083","227.1683","240","164","164","240","trueblood","0.09","h","164","240","240","164","158.0083","227.1683","39360","39360","35894.4834","dc","null","null","null","null","null","null","[1,2]","","",""
"","canvas-keyboard-response","194","192739","0.0-6.0-6.26","553","","","","","clear_screen","null","null","","","critical","d","c","t","158.0083","227.1683","240","164","164","240","trueblood","0.09","h","164","240","240","164","158.0083","227.1683","39360","39360","35894.4834","dc","null","null","null","null","null","null","[1,2]","","",""
"","canvas-keyboard-response","195","192940","0.0-6.0-0.27","553","","","","","pre trial waiting period","null","null","","","critical","d","c","t","158.0083","227.1683","240","164","164","240","trueblood","0.09","h","164","240","240","164","158.0083","227.1683","39360","39360","35894.4834","td","null","null","null","null","null","null","[3,1]","474.4460620251582","506.18858882827396","449.59195570777223"
"","canvas-keyboard-response","196","192961","0.0-6.0-1.27","553","","","","","clear_screen","null","null","","","critical","d","c","t","158.0083","227.1683","240","164","164","240","trueblood","0.09","h","164","240","240","164","158.0083","227.1683","39360","39360","35894.4834","td","null","null","null","null","null","null","[3,1]","474.4460620251582","506.18858882827396","449.59195570777223"
"","canvas-keyboard-response","197","193469","0.0-6.0-2.27","553","","","","","rectangles no change","null","null","","","critical","d","c","t","158.0083","227.1683","240","164","164","240","trueblood","0.09","h","164","240","240","164","158.0083","227.1683","39360","39360","35894.4834","td","null","null","null","null","null","null","[3,1]","474.4460620251582","506.18858882827396","449.59195570777223"
"","canvas-keyboard-response","198","194804","0.0-6.0-3.27","553","","","","","rectangles with change","null","null","","","critical","d","c","t","158.0083","227.1683","240","164","164","240","trueblood","0.09","h","164","240","240","164","158.0083","227.1683","39360","39360","35894.4834","td","null","null","null","null","null","null","[3,1]","474.4460620251582","506.18858882827396","449.59195570777223"
"","canvas-keyboard-response","199","194824","0.0-6.0-4.27","553","","","","","clear_screen","null","null","","","critical","d","c","t","158.0083","227.1683","240","164","164","240","trueblood","0.09","h","164","240","240","164","158.0083","227.1683","39360","39360","35894.4834","td","null","null","null","null","null","null","[3,1]","474.4460620251582","506.18858882827396","449.59195570777223"
"","canvas-keyboard-response","200","195255","0.0-6.0-5.27","553","","","","","make choice","424","3","","","critical","d","c","t","158.0083","227.1683","240","164","164","240","trueblood","0.09","h","164","240","240","164","158.0083","227.1683","39360","39360","35894.4834","td","null","null","null","null","null","null","[3,1]","","",""
"","canvas-keyboard-response","201","195272","0.0-6.0-6.27","553","","","","","clear_screen","null","null","","","critical","d","c","t","158.0083","227.1683","240","164","164","240","trueblood","0.09","h","164","240","240","164","158.0083","227.1683","39360","39360","35894.4834","td","null","null","null","null","null","null","[3,1]","","",""
"","canvas-keyboard-response","202","195472","0.0-6.0-0.28","553","","","","","pre trial waiting period","null","null","","","catch","sw","sh","l","180","200","182","201","230","221","trueblood","null","null","null","null","null","null","null","null","null","null","null","","180","200","260","200","36000","52000","[2,3]","484.2437824377884","468.24102872030915","452.97400711461285"
"","canvas-keyboard-response","203","195492","0.0-6.0-1.28","553","","","","","clear_screen","null","null","","","catch","sw","sh","l","180","200","182","201","230","221","trueblood","null","null","null","null","null","null","null","null","null","null","null","","180","200","260","200","36000","52000","[2,3]","484.2437824377884","468.24102872030915","452.97400711461285"
"","canvas-keyboard-response","204","196002","0.0-6.0-2.28","553","","","","","rectangles no change","null","null","","","catch","sw","sh","l","180","200","182","201","230","221","trueblood","null","null","null","null","null","null","null","null","null","null","null","","180","200","260","200","36000","52000","[2,3]","484.2437824377884","468.24102872030915","452.97400711461285"
"","canvas-keyboard-response","205","197339","0.0-6.0-3.28","553","","","","","rectangles with change","null","null","","","catch","sw","sh","l","180","200","182","201","230","221","trueblood","null","null","null","null","null","null","null","null","null","null","null","","180","200","260","200","36000","52000","[2,3]","484.2437824377884","468.24102872030915","452.97400711461285"
"","canvas-keyboard-response","206","197359","0.0-6.0-4.28","553","","","","","clear_screen","null","null","","","catch","sw","sh","l","180","200","182","201","230","221","trueblood","null","null","null","null","null","null","null","null","null","null","null","","180","200","260","200","36000","52000","[2,3]","484.2437824377884","468.24102872030915","452.97400711461285"
"","canvas-keyboard-response","207","197663","0.0-6.0-5.28","553","","","","","make choice","295","3","","","catch","sw","sh","l","180","200","182","201","230","221","trueblood","null","null","null","null","null","null","null","null","null","null","null","","180","200","260","200","36000","52000","[2,3]","","",""
"","canvas-keyboard-response","208","197683","0.0-6.0-6.28","553","","","","","clear_screen","null","null","","","catch","sw","sh","l","180","200","182","201","230","221","trueblood","null","null","null","null","null","null","null","null","null","null","null","","180","200","260","200","36000","52000","[2,3]","","",""
"","canvas-keyboard-response","209","197884","0.0-6.0-0.29","553","","","","","pre trial waiting period","null","null","","","critical","d","t","c","237.1485","162.6685","240","164","164","240","trueblood","0.02","w","240","164","164","240","237.1485","162.6685","39360","39360","38576.5967","tc","null","null","null","null","null","null","[2,3]","505.8978926158829","486.52462916841654","457.5913290117872"
"","canvas-keyboard-response","210","197905","0.0-6.0-1.29","553","","","","","clear_screen","null","null","","","critical","d","t","c","237.1485","162.6685","240","164","164","240","trueblood","0.02","w","240","164","164","240","237.1485","162.6685","39360","39360","38576.5967","tc","null","null","null","null","null","null","[2,3]","505.8978926158829","486.52462916841654","457.5913290117872"
"","canvas-keyboard-response","211","198410","0.0-6.0-2.29","553","","","","","rectangles no change","null","null","","","critical","d","t","c","237.1485","162.6685","240","164","164","240","trueblood","0.02","w","240","164","164","240","237.1485","162.6685","39360","39360","38576.5967","tc","null","null","null","null","null","null","[2,3]","505.8978926158829","486.52462916841654","457.5913290117872"
"","canvas-keyboard-response","212","199745","0.0-6.0-3.29","553","","","","","rectangles with change","null","null","","","critical","d","t","c","237.1485","162.6685","240","164","164","240","trueblood","0.02","w","240","164","164","240","237.1485","162.6685","39360","39360","38576.5967","tc","null","null","null","null","null","null","[2,3]","505.8978926158829","486.52462916841654","457.5913290117872"
"","canvas-keyboard-response","213","199766","0.0-6.0-4.29","553","","","","","clear_screen","null","null","","","critical","d","t","c","237.1485","162.6685","240","164","164","240","trueblood","0.02","w","240","164","164","240","237.1485","162.6685","39360","39360","38576.5967","tc","null","null","null","null","null","null","[2,3]","505.8978926158829","486.52462916841654","457.5913290117872"
"","canvas-keyboard-response","214","200360","0.0-6.0-5.29","553","","","","","make choice","587","3","","","critical","d","t","c","237.1485","162.6685","240","164","164","240","trueblood","0.02","w","240","164","164","240","237.1485","162.6685","39360","39360","38576.5967","tc","null","null","null","null","null","null","[2,3]","","",""
"","canvas-keyboard-response","215","200377","0.0-6.0-6.29","553","","","","","clear_screen","null","null","","","critical","d","t","c","237.1485","162.6685","240","164","164","240","trueblood","0.02","w","240","164","164","240","237.1485","162.6685","39360","39360","38576.5967","tc","null","null","null","null","null","null","[2,3]","","",""
"","canvas-keyboard-response","216","200579","0.0-6.0-0.30","553","","","","","pre trial waiting period","null","null","","","catch","l","sh","sw","250","180","211","158","188","183","trueblood","null","null","null","null","null","null","null","null","null","null","null","","180","200","260","200","36000","52000","[1,2]","492.3235389956038","472.44922087326165","495.66384729475226"
"","canvas-keyboard-response","217","200601","0.0-6.0-1.30","553","","","","","clear_screen","null","null","","","catch","l","sh","sw","250","180","211","158","188","183","trueblood","null","null","null","null","null","null","null","null","null","null","null","","180","200","260","200","36000","52000","[1,2]","492.3235389956038","472.44922087326165","495.66384729475226"
"","canvas-keyboard-response","218","201106","0.0-6.0-2.30","553","","","","","rectangles no change","null","null","","","catch","l","sh","sw","250","180","211","158","188","183","trueblood","null","null","null","null","null","null","null","null","null","null","null","","180","200","260","200","36000","52000","[1,2]","492.3235389956038","472.44922087326165","495.66384729475226"
"","canvas-keyboard-response","219","202440","0.0-6.0-3.30","553","","","","","rectangles with change","null","null","","","catch","l","sh","sw","250","180","211","158","188","183","trueblood","null","null","null","null","null","null","null","null","null","null","null","","180","200","260","200","36000","52000","[1,2]","492.3235389956038","472.44922087326165","495.66384729475226"
"","canvas-keyboard-response","220","202459","0.0-6.0-4.30","553","","","","","clear_screen","null","null","","","catch","l","sh","sw","250","180","211","158","188","183","trueblood","null","null","null","null","null","null","null","null","null","null","null","","180","200","260","200","36000","52000","[1,2]","492.3235389956038","472.44922087326165","495.66384729475226"
"","canvas-keyboard-response","221","203231","0.0-6.0-5.30","553","","","","","make choice","766","1","","","catch","l","sh","sw","250","180","211","158","188","183","trueblood","null","null","null","null","null","null","null","null","null","null","null","","180","200","260","200","36000","52000","[1,2]","","",""
"","canvas-keyboard-response","222","203250","0.0-6.0-6.30","553","","","","","clear_screen","null","null","","","catch","l","sh","sw","250","180","211","158","188","183","trueblood","null","null","null","null","null","null","null","null","null","null","null","","180","200","260","200","36000","52000","[1,2]","","",""
"","canvas-keyboard-response","223","203452","0.0-6.0-0.31","553","","","","","pre trial waiting period","null","null","","","catch","sh","l","sw","196","188","168","234","204","237","trueblood","null","null","null","null","null","null","null","null","null","null","null","","180","200","260","200","36000","52000","[2,3]","477.6087999345169","429.1161966159822","427.18407305378696"
"","canvas-keyboard-response","224","203469","0.0-6.0-1.31","553","","","","","clear_screen","null","null","","","catch","sh","l","sw","196","188","168","234","204","237","trueblood","null","null","null","null","null","null","null","null","null","null","null","","180","200","260","200","36000","52000","[2,3]","477.6087999345169","429.1161966159822","427.18407305378696"
"","canvas-keyboard-response","225","203975","0.0-6.0-2.31","553","","","","","rectangles no change","null","null","","","catch","sh","l","sw","196","188","168","234","204","237","trueblood","null","null","null","null","null","null","null","null","null","null","null","","180","200","260","200","36000","52000","[2,3]","477.6087999345169","429.1161966159822","427.18407305378696"
"","canvas-keyboard-response","226","205310","0.0-6.0-3.31","553","","","","","rectangles with change","null","null","","","catch","sh","l","sw","196","188","168","234","204","237","trueblood","null","null","null","null","null","null","null","null","null","null","null","","180","200","260","200","36000","52000","[2,3]","477.6087999345169","429.1161966159822","427.18407305378696"
"","canvas-keyboard-response","227","205330","0.0-6.0-4.31","553","","","","","clear_screen","null","null","","","catch","sh","l","sw","196","188","168","234","204","237","trueblood","null","null","null","null","null","null","null","null","null","null","null","","180","200","260","200","36000","52000","[2,3]","477.6087999345169","429.1161966159822","427.18407305378696"
"","canvas-keyboard-response","228","205791","0.0-6.0-5.31","553","","","","","make choice","455","3","","","catch","sh","l","sw","196","188","168","234","204","237","trueblood","null","null","null","null","null","null","null","null","null","null","null","","180","200","260","200","36000","52000","[2,3]","","",""
"","canvas-keyboard-response","229","205809","0.0-6.0-6.31","553","","","","","clear_screen","null","null","","","catch","sh","l","sw","196","188","168","234","204","237","trueblood","null","null","null","null","null","null","null","null","null","null","null","","180","200","260","200","36000","52000","[2,3]","","",""
"","canvas-keyboard-response","230","206010","0.0-6.0-0.32","553","","","","","pre trial waiting period","null","null","","","critical","t","d","c","164","240","154.6796","220.0396","240","164","trueblood","0.14","h","164","240","240","164","154.6796","220.0396","39360","39360","34035.6388","td","null","null","null","null","null","null","[1,2]","461.4655313787732","443.1659599911387","516.2503604855971"
"","canvas-keyboard-response","231","206029","0.0-6.0-1.32","553","","","","","clear_screen","null","null","","","critical","t","d","c","164","240","154.6796","220.0396","240","164","trueblood","0.14","h","164","240","240","164","154.6796","220.0396","39360","39360","34035.6388","td","null","null","null","null","null","null","[1,2]","461.4655313787732","443.1659599911387","516.2503604855971"
"","canvas-keyboard-response","232","206542","0.0-6.0-2.32","553","","","","","rectangles no change","null","null","","","critical","t","d","c","164","240","154.6796","220.0396","240","164","trueblood","0.14","h","164","240","240","164","154.6796","220.0396","39360","39360","34035.6388","td","null","null","null","null","null","null","[1,2]","461.4655313787732","443.1659599911387","516.2503604855971"
"","canvas-keyboard-response","233","207878","0.0-6.0-3.32","553","","","","","rectangles with change","null","null","","","critical","t","d","c","164","240","154.6796","220.0396","240","164","trueblood","0.14","h","164","240","240","164","154.6796","220.0396","39360","39360","34035.6388","td","null","null","null","null","null","null","[1,2]","461.4655313787732","443.1659599911387","516.2503604855971"
"","canvas-keyboard-response","234","207899","0.0-6.0-4.32","553","","","","","clear_screen","null","null","","","critical","t","d","c","164","240","154.6796","220.0396","240","164","trueblood","0.14","h","164","240","240","164","154.6796","220.0396","39360","39360","34035.6388","td","null","null","null","null","null","null","[1,2]","461.4655313787732","443.1659599911387","516.2503604855971"
"","canvas-keyboard-response","235","208047","0.0-6.0-5.32","553","","","","","make choice","141","1","","","critical","t","d","c","164","240","154.6796","220.0396","240","164","trueblood","0.14","h","164","240","240","164","154.6796","220.0396","39360","39360","34035.6388","td","null","null","null","null","null","null","[1,2]","","",""
"","canvas-keyboard-response","236","208067","0.0-6.0-6.32","553","","","","","clear_screen","null","null","","","critical","t","d","c","164","240","154.6796","220.0396","240","164","trueblood","0.14","h","164","240","240","164","154.6796","220.0396","39360","39360","34035.6388","td","null","null","null","null","null","null","[1,2]","","",""
"","canvas-keyboard-response","237","208269","0.0-6.0-0.33","553","","","","","pre trial waiting period","null","null","","","critical","c","d","t","240","164","162.6685","237.1485","164","240","spektor","0.02","h","164","240","240","164","162.6685","237.1485","39360","39360","38576.5967","td","null","null","null","null","null","null","[3,2]","517.7909911179878","97.23030065328939","498.3380199997373"
"","canvas-keyboard-response","238","208288","0.0-6.0-1.33","553","","","","","clear_screen","null","null","","","critical","c","d","t","240","164","162.6685","237.1485","164","240","spektor","0.02","h","164","240","240","164","162.6685","237.1485","39360","39360","38576.5967","td","null","null","null","null","null","null","[3,2]","517.7909911179878","97.23030065328939","498.3380199997373"
"","canvas-keyboard-response","239","208793","0.0-6.0-2.33","553","","","","","rectangles no change","null","null","","","critical","c","d","t","240","164","162.6685","237.1485","164","240","spektor","0.02","h","164","240","240","164","162.6685","237.1485","39360","39360","38576.5967","td","null","null","null","null","null","null","[3,2]","517.7909911179878","97.23030065328939","498.3380199997373"
"","canvas-keyboard-response","240","210128","0.0-6.0-3.33","553","","","","","rectangles with change","null","null","","","critical","c","d","t","240","164","162.6685","237.1485","164","240","spektor","0.02","h","164","240","240","164","162.6685","237.1485","39360","39360","38576.5967","td","null","null","null","null","null","null","[3,2]","517.7909911179878","97.23030065328939","498.3380199997373"
"","canvas-keyboard-response","241","210146","0.0-6.0-4.33","553","","","","","clear_screen","null","null","","","critical","c","d","t","240","164","162.6685","237.1485","164","240","spektor","0.02","h","164","240","240","164","162.6685","237.1485","39360","39360","38576.5967","td","null","null","null","null","null","null","[3,2]","517.7909911179878","97.23030065328939","498.3380199997373"
"","canvas-keyboard-response","242","210495","0.0-6.0-5.33","553","","","","","make choice","342","3","","","critical","c","d","t","240","164","162.6685","237.1485","164","240","spektor","0.02","h","164","240","240","164","162.6685","237.1485","39360","39360","38576.5967","td","null","null","null","null","null","null","[3,2]","","",""
"","canvas-keyboard-response","243","210512","0.0-6.0-6.33","553","","","","","clear_screen","null","null","","","critical","c","d","t","240","164","162.6685","237.1485","164","240","spektor","0.02","h","164","240","240","164","162.6685","237.1485","39360","39360","38576.5967","td","null","null","null","null","null","null","[3,2]","","",""
"","canvas-keyboard-response","244","210713","0.0-6.0-0.34","553","","","","","pre trial waiting period","null","null","","","catch","l","sw","sh","187","237","159","206","202","152","trueblood","null","null","null","null","null","null","null","null","null","null","null","","180","200","260","200","36000","52000","[1,3]","430.5079209643236","457.3073533999129","494.25988509725084"
"","canvas-keyboard-response","245","210738","0.0-6.0-1.34","553","","","","","clear_screen","null","null","","","catch","l","sw","sh","187","237","159","206","202","152","trueblood","null","null","null","null","null","null","null","null","null","null","null","","180","200","260","200","36000","52000","[1,3]","430.5079209643236","457.3073533999129","494.25988509725084"
"","canvas-keyboard-response","246","211243","0.0-6.0-2.34","553","","","","","rectangles no change","null","null","","","catch","l","sw","sh","187","237","159","206","202","152","trueblood","null","null","null","null","null","null","null","null","null","null","null","","180","200","260","200","36000","52000","[1,3]","430.5079209643236","457.3073533999129","494.25988509725084"
"","canvas-keyboard-response","247","212576","0.0-6.0-3.34","553","","","","","rectangles with change","null","null","","","catch","l","sw","sh","187","237","159","206","202","152","trueblood","null","null","null","null","null","null","null","null","null","null","null","","180","200","260","200","36000","52000","[1,3]","430.5079209643236","457.3073533999129","494.25988509725084"
"","canvas-keyboard-response","248","212595","0.0-6.0-4.34","553","","","","","clear_screen","null","null","","","catch","l","sw","sh","187","237","159","206","202","152","trueblood","null","null","null","null","null","null","null","null","null","null","null","","180","200","260","200","36000","52000","[1,3]","430.5079209643236","457.3073533999129","494.25988509725084"
"","canvas-keyboard-response","249","213087","0.0-6.0-5.34","553","","","","","make choice","488","1","","","catch","l","sw","sh","187","237","159","206","202","152","trueblood","null","null","null","null","null","null","null","null","null","null","null","","180","200","260","200","36000","52000","[1,3]","","",""
"","canvas-keyboard-response","250","213107","0.0-6.0-6.34","553","","","","","clear_screen","null","null","","","catch","l","sw","sh","187","237","159","206","202","152","trueblood","null","null","null","null","null","null","null","null","null","null","null","","180","200","260","200","36000","52000","[1,3]","","",""
"","canvas-keyboard-response","251","213307","0.0-6.0-0.35","553","","","","","pre trial waiting period","null","null","","","critical","t","c","d","164","240","240","164","160.6713","232.8713","trueblood","0.05","h","164","240","240","164","160.6713","232.8713","39360","39360","37415.7294","dc","null","null","null","null","null","null","[3,2]","451.1270796427277","490.8427266990418","427.39999412649826"
"","canvas-keyboard-response","252","213326","0.0-6.0-1.35","553","","","","","clear_screen","null","null","","","critical","t","c","d","164","240","240","164","160.6713","232.8713","trueblood","0.05","h","164","240","240","164","160.6713","232.8713","39360","39360","37415.7294","dc","null","null","null","null","null","null","[3,2]","451.1270796427277","490.8427266990418","427.39999412649826"
"","canvas-keyboard-response","253","213831","0.0-6.0-2.35","553","","","","","rectangles no change","null","null","","","critical","t","c","d","164","240","240","164","160.6713","232.8713","trueblood","0.05","h","164","240","240","164","160.6713","232.8713","39360","39360","37415.7294","dc","null","null","null","null","null","null","[3,2]","451.1270796427277","490.8427266990418","427.39999412649826"
"","canvas-keyboard-response","254","215165","0.0-6.0-3.35","553","","","","","rectangles with change","null","null","","","critical","t","c","d","164","240","240","164","160.6713","232.8713","trueblood","0.05","h","164","240","240","164","160.6713","232.8713","39360","39360","37415.7294","dc","null","null","null","null","null","null","[3,2]","451.1270796427277","490.8427266990418","427.39999412649826"
"","canvas-keyboard-response","255","215185","0.0-6.0-4.35","553","","","","","clear_screen","null","null","","","critical","t","c","d","164","240","240","164","160.6713","232.8713","trueblood","0.05","h","164","240","240","164","160.6713","232.8713","39360","39360","37415.7294","dc","null","null","null","null","null","null","[3,2]","451.1270796427277","490.8427266990418","427.39999412649826"
"","canvas-keyboard-response","256","215583","0.0-6.0-5.35","553","","","","","make choice","391","3","","","critical","t","c","d","164","240","240","164","160.6713","232.8713","trueblood","0.05","h","164","240","240","164","160.6713","232.8713","39360","39360","37415.7294","dc","null","null","null","null","null","null","[3,2]","","",""
"","canvas-keyboard-response","257","215603","0.0-6.0-6.35","553","","","","","clear_screen","null","null","","","critical","t","c","d","164","240","240","164","160.6713","232.8713","trueblood","0.05","h","164","240","240","164","160.6713","232.8713","39360","39360","37415.7294","dc","null","null","null","null","null","null","[3,2]","","",""
"","canvas-keyboard-response","258","215804","0.0-6.0-0.36","553","","","","","pre trial waiting period","null","null","","","critical","d","t","c","158.0083","227.1683","164","240","240","164","spektor","0.09","h","164","240","240","164","158.0083","227.1683","39360","39360","35894.4834","tc","null","null","null","null","null","null","[2,3]","510.55113435081853","109.6731812434503","499.4223984840343"
"","canvas-keyboard-response","259","215824","0.0-6.0-1.36","553","","","","","clear_screen","null","null","","","critical","d","t","c","158.0083","227.1683","164","240","240","164","spektor","0.09","h","164","240","240","164","158.0083","227.1683","39360","39360","35894.4834","tc","null","null","null","null","null","null","[2,3]","510.55113435081853","109.6731812434503","499.4223984840343"
"","canvas-keyboard-response","260","216329","0.0-6.0-2.36","553","","","","","rectangles no change","null","null","","","critical","d","t","c","158.0083","227.1683","164","240","240","164","spektor","0.09","h","164","240","240","164","158.0083","227.1683","39360","39360","35894.4834","tc","null","null","null","null","null","null","[2,3]","510.55113435081853","109.6731812434503","499.4223984840343"
"","canvas-keyboard-response","261","217664","0.0-6.0-3.36","553","","","","","rectangles with change","null","null","","","critical","d","t","c","158.0083","227.1683","164","240","240","164","spektor","0.09","h","164","240","240","164","158.0083","227.1683","39360","39360","35894.4834","tc","null","null","null","null","null","null","[2,3]","510.55113435081853","109.6731812434503","499.4223984840343"
"","canvas-keyboard-response","262","217682","0.0-6.0-4.36","553","","","","","clear_screen","null","null","","","critical","d","t","c","158.0083","227.1683","164","240","240","164","spektor","0.09","h","164","240","240","164","158.0083","227.1683","39360","39360","35894.4834","tc","null","null","null","null","null","null","[2,3]","510.55113435081853","109.6731812434503","499.4223984840343"
"","canvas-keyboard-response","263","218087","0.0-6.0-5.36","553","","","","","make choice","398","3","","","critical","d","t","c","158.0083","227.1683","164","240","240","164","spektor","0.09","h","164","240","240","164","158.0083","227.1683","39360","39360","35894.4834","tc","null","null","null","null","null","null","[2,3]","","",""
"","canvas-keyboard-response","264","218103","0.0-6.0-6.36","553","","","","","clear_screen","null","null","","","critical","d","t","c","158.0083","227.1683","164","240","240","164","spektor","0.09","h","164","240","240","164","158.0083","227.1683","39360","39360","35894.4834","tc","null","null","null","null","null","null","[2,3]","","",""
"","canvas-keyboard-response","265","218304","0.0-6.0-0.37","553","","","","","pre trial waiting period","null","null","","","critical","t","c","d","164","240","240","164","154.6796","220.0396","trueblood","0.14","h","164","240","240","164","154.6796","220.0396","39360","39360","34035.6388","tc","null","null","null","null","null","null","[1,2]","443.5394529155361","506.56540370014005","434.4600899275439"
"","canvas-keyboard-response","266","218324","0.0-6.0-1.37","553","","","","","clear_screen","null","null","","","critical","t","c","d","164","240","240","164","154.6796","220.0396","trueblood","0.14","h","164","240","240","164","154.6796","220.0396","39360","39360","34035.6388","tc","null","null","null","null","null","null","[1,2]","443.5394529155361","506.56540370014005","434.4600899275439"
