"success","trial_type","trial_index","time_elapsed","internal_node_id","sub_n","timeout","failed_images","failed_audio","failed_video","screen_id","rt","response","stimulus","view_history","trial","r1","r2","r3","w1","h1","w2","h2","w3","h3","display","tdd","tdo","tw","th","cw","ch","dw","dh","ta","ca","da","probe","csls","csss","clls","clss","sa","la","probe_rects","r1yloc","r2yloc","r3yloc"
"true","fullscreen","0","2939","0.0-0.0","538","","","","","","","","","","","","","","","","","","","","","","","","","","","","","","","","","","","","","","","","","",""
"true","preload","1","2955","0.0-1.0","538","false","[]","[]","[]","img preload","","","","","","","","","","","","","","","","","","","","","","","","","","","","","","","","","","","","",""
"","survey-html-form","2","8156","0.0-2.0","538","","","","","enter-sub-number","5195","{""response"":""538""}","","","","","","","","","","","","","","","","","","","","","","","","","","","","","","","","","","",""
"","image-button-response","3","13323","0.0-3.0","538","","","","","","5098","0","consent.png","","","","","","","","","","","","","","","","","","","","","","","","","","","","","","","","","",""
"","html-button-response","4","14754","0.0-4.0","538","","","","","intro mssg","1424","0","<div style= ""font-size:25px;"" <p> <strong> Welcome! </strong><br> <p style=""color:#8B0000; font-size:25px;""><strong> Please do NOT exit full screen until you are done with the experiment. </strong> </p><p style=""font-size:25px;color:#8B0000;""> <strong> Your data will be lost <br> if you try to go back or refresh the page after the experiment starts. Feel free to click ""previous"" during the instructions, however.</strong> </p><br><p> <strong> Thanks in advance for your contribution to our research! </strong></p>","","","","","","","","","","","","","","","","","","","","","","","","","","","","","","","","","",""
"","instructions","5","32866","0.0-5.0","538","","","","","instructions","18104","","","[{""page_index"":0,""viewing_time"":3672},{""page_index"":1,""viewing_time"":5008},{""page_index"":2,""viewing_time"":1536},{""page_index"":3,""viewing_time"":4072},{""page_index"":4,""viewing_time"":1288},{""page_index"":5,""viewing_time"":1223},{""page_index"":6,""viewing_time"":728},{""page_index"":7,""viewing_time"":576}]","","","","","","","","","","","","","","","","","","","","","","","","","","","","","","","","",""
"","canvas-keyboard-response","6","33071","0.0-6.0-0.0","538","","","","","pre trial waiting period","null","null","","","critical","d","c","t","160.6713","232.8713","240","164","164","240","trueblood","0.05","h","164","240","240","164","160.6713","232.8713","39360","39360","37415.7294","dc","null","null","null","null","null","null","[1,2]","470.5787701652486","482.29643029312086","457.12583899799256"
"","canvas-keyboard-response","7","33094","0.0-6.0-1.0","538","","","","","clear_screen","null","null","","","critical","d","c","t","160.6713","232.8713","240","164","164","240","trueblood","0.05","h","164","240","240","164","160.6713","232.8713","39360","39360","37415.7294","dc","null","null","null","null","null","null","[1,2]","470.5787701652486","482.29643029312086","457.12583899799256"
"","canvas-keyboard-response","8","33606","0.0-6.0-2.0","538","","","","","rectangles no change","null","null","","","critical","d","c","t","160.6713","232.8713","240","164","164","240","trueblood","0.05","h","164","240","240","164","160.6713","232.8713","39360","39360","37415.7294","dc","null","null","null","null","null","null","[1,2]","470.5787701652486","482.29643029312086","457.12583899799256"
"","canvas-keyboard-response","9","34944","0.0-6.0-3.0","538","","","","","rectangles with change","null","null","","","critical","d","c","t","160.6713","232.8713","240","164","164","240","trueblood","0.05","h","164","240","240","164","160.6713","232.8713","39360","39360","37415.7294","dc","null","null","null","null","null","null","[1,2]","470.5787701652486","482.29643029312086","457.12583899799256"
"","canvas-keyboard-response","10","34966","0.0-6.0-4.0","538","","","","","clear_screen","null","null","","","critical","d","c","t","160.6713","232.8713","240","164","164","240","trueblood","0.05","h","164","240","240","164","160.6713","232.8713","39360","39360","37415.7294","dc","null","null","null","null","null","null","[1,2]","470.5787701652486","482.29643029312086","457.12583899799256"
"","canvas-keyboard-response","11","37170","0.0-6.0-5.0","538","","","","","make choice","2196","2","","","critical","d","c","t","160.6713","232.8713","240","164","164","240","trueblood","0.05","h","164","240","240","164","160.6713","232.8713","39360","39360","37415.7294","dc","null","null","null","null","null","null","[1,2]","","",""
"","canvas-keyboard-response","12","37189","0.0-6.0-6.0","538","","","","","clear_screen","null","null","","","critical","d","c","t","160.6713","232.8713","240","164","164","240","trueblood","0.05","h","164","240","240","164","160.6713","232.8713","39360","39360","37415.7294","dc","null","null","null","null","null","null","[1,2]","","",""
"","canvas-keyboard-response","13","37391","0.0-6.0-0.1","538","","","","","pre trial waiting period","null","null","","","critical","t","d","c","164","240","154.6796","220.0396","240","164","spektor","0.14","h","164","240","240","164","154.6796","220.0396","39360","39360","34035.6388","tc","null","null","null","null","null","null","[1,3]","473.3552149005575","122.98024478583939","517.0654288029369"
"","canvas-keyboard-response","14","37413","0.0-6.0-1.1","538","","","","","clear_screen","null","null","","","critical","t","d","c","164","240","154.6796","220.0396","240","164","spektor","0.14","h","164","240","240","164","154.6796","220.0396","39360","39360","34035.6388","tc","null","null","null","null","null","null","[1,3]","473.3552149005575","122.98024478583939","517.0654288029369"
"","canvas-keyboard-response","15","37920","0.0-6.0-2.1","538","","","","","rectangles no change","null","null","","","critical","t","d","c","164","240","154.6796","220.0396","240","164","spektor","0.14","h","164","240","240","164","154.6796","220.0396","39360","39360","34035.6388","tc","null","null","null","null","null","null","[1,3]","473.3552149005575","122.98024478583939","517.0654288029369"
"","canvas-keyboard-response","16","39258","0.0-6.0-3.1","538","","","","","rectangles with change","null","null","","","critical","t","d","c","164","240","154.6796","220.0396","240","164","spektor","0.14","h","164","240","240","164","154.6796","220.0396","39360","39360","34035.6388","tc","null","null","null","null","null","null","[1,3]","473.3552149005575","122.98024478583939","517.0654288029369"
"","canvas-keyboard-response","17","39282","0.0-6.0-4.1","538","","","","","clear_screen","null","null","","","critical","t","d","c","164","240","154.6796","220.0396","240","164","spektor","0.14","h","164","240","240","164","154.6796","220.0396","39360","39360","34035.6388","tc","null","null","null","null","null","null","[1,3]","473.3552149005575","122.98024478583939","517.0654288029369"
"","canvas-keyboard-response","18","40761","0.0-6.0-5.1","538","","","","","make choice","1468","3","","","critical","t","d","c","164","240","154.6796","220.0396","240","164","spektor","0.14","h","164","240","240","164","154.6796","220.0396","39360","39360","34035.6388","tc","null","null","null","null","null","null","[1,3]","","",""
"","canvas-keyboard-response","19","40778","0.0-6.0-6.1","538","","","","","clear_screen","null","null","","","critical","t","d","c","164","240","154.6796","220.0396","240","164","spektor","0.14","h","164","240","240","164","154.6796","220.0396","39360","39360","34035.6388","tc","null","null","null","null","null","null","[1,3]","","",""
"","canvas-keyboard-response","20","40980","0.0-6.0-0.2","538","","","","","pre trial waiting period","null","null","","","critical","d","c","t","237.1485","162.6685","164","240","240","164","spektor","0.02","w","240","164","164","240","237.1485","162.6685","39360","39360","38576.5967","dc","null","null","null","null","null","null","[1,2]","507.8812122022632","147.80533612923043","537.2617814622672"
"","canvas-keyboard-response","21","41002","0.0-6.0-1.2","538","","","","","clear_screen","null","null","","","critical","d","c","t","237.1485","162.6685","164","240","240","164","spektor","0.02","w","240","164","164","240","237.1485","162.6685","39360","39360","38576.5967","dc","null","null","null","null","null","null","[1,2]","507.8812122022632","147.80533612923043","537.2617814622672"
"","canvas-keyboard-response","22","41510","0.0-6.0-2.2","538","","","","","rectangles no change","null","null","","","critical","d","c","t","237.1485","162.6685","164","240","240","164","spektor","0.02","w","240","164","164","240","237.1485","162.6685","39360","39360","38576.5967","dc","null","null","null","null","null","null","[1,2]","507.8812122022632","147.80533612923043","537.2617814622672"
"","canvas-keyboard-response","23","42847","0.0-6.0-3.2","538","","","","","rectangles with change","null","null","","","critical","d","c","t","237.1485","162.6685","164","240","240","164","spektor","0.02","w","240","164","164","240","237.1485","162.6685","39360","39360","38576.5967","dc","null","null","null","null","null","null","[1,2]","507.8812122022632","147.80533612923043","537.2617814622672"
"","canvas-keyboard-response","24","42866","0.0-6.0-4.2","538","","","","","clear_screen","null","null","","","critical","d","c","t","237.1485","162.6685","164","240","240","164","spektor","0.02","w","240","164","164","240","237.1485","162.6685","39360","39360","38576.5967","dc","null","null","null","null","null","null","[1,2]","507.8812122022632","147.80533612923043","537.2617814622672"
"","canvas-keyboard-response","25","45874","0.0-6.0-5.2","538","","","","","make choice","3002","2","","","critical","d","c","t","237.1485","162.6685","164","240","240","164","spektor","0.02","w","240","164","164","240","237.1485","162.6685","39360","39360","38576.5967","dc","null","null","null","null","null","null","[1,2]","","",""
"","canvas-keyboard-response","26","45893","0.0-6.0-6.2","538","","","","","clear_screen","null","null","","","critical","d","c","t","237.1485","162.6685","164","240","240","164","spektor","0.02","w","240","164","164","240","237.1485","162.6685","39360","39360","38576.5967","dc","null","null","null","null","null","null","[1,2]","","",""
"","canvas-keyboard-response","27","46094","0.0-6.0-0.3","538","","","","","pre trial waiting period","null","null","","","catch","sw","l","sh","180","200","233","220","195","173","spektor","null","null","null","null","null","null","null","null","null","null","null","","180","200","260","200","36000","52000","[1,2]","517.9240295752641","148.24758931842186","519.3044831414308"
"","canvas-keyboard-response","28","46116","0.0-6.0-1.3","538","","","","","clear_screen","null","null","","","catch","sw","l","sh","180","200","233","220","195","173","spektor","null","null","null","null","null","null","null","null","null","null","null","","180","200","260","200","36000","52000","[1,2]","517.9240295752641","148.24758931842186","519.3044831414308"
"","canvas-keyboard-response","29","46627","0.0-6.0-2.3","538","","","","","rectangles no change","null","null","","","catch","sw","l","sh","180","200","233","220","195","173","spektor","null","null","null","null","null","null","null","null","null","null","null","","180","200","260","200","36000","52000","[1,2]","517.9240295752641","148.24758931842186","519.3044831414308"
"","canvas-keyboard-response","30","47962","0.0-6.0-3.3","538","","","","","rectangles with change","null","null","","","catch","sw","l","sh","180","200","233","220","195","173","spektor","null","null","null","null","null","null","null","null","null","null","null","","180","200","260","200","36000","52000","[1,2]","517.9240295752641","148.24758931842186","519.3044831414308"
"","canvas-keyboard-response","31","47981","0.0-6.0-4.3","538","","","","","clear_screen","null","null","","","catch","sw","l","sh","180","200","233","220","195","173","spektor","null","null","null","null","null","null","null","null","null","null","null","","180","200","260","200","36000","52000","[1,2]","517.9240295752641","148.24758931842186","519.3044831414308"
"","canvas-keyboard-response","32","49241","0.0-6.0-5.3","538","","","","","make choice","1253","2","","","catch","sw","l","sh","180","200","233","220","195","173","spektor","null","null","null","null","null","null","null","null","null","null","null","","180","200","260","200","36000","52000","[1,2]","","",""
"","canvas-keyboard-response","33","49256","0.0-6.0-6.3","538","","","","","clear_screen","null","null","","","catch","sw","l","sh","180","200","233","220","195","173","spektor","null","null","null","null","null","null","null","null","null","null","null","","180","200","260","200","36000","52000","[1,2]","","",""
"","canvas-keyboard-response","34","49457","0.0-6.0-0.4","538","","","","","pre trial waiting period","null","null","","","catch","sh","l","sw","220","215","161","273","148","209","trueblood","null","null","null","null","null","null","null","null","null","null","null","","180","200","260","200","36000","52000","[1,2]","460.92231608602646","421.0762705052298","481.9323563788869"
"","canvas-keyboard-response","35","49477","0.0-6.0-1.4","538","","","","","clear_screen","null","null","","","catch","sh","l","sw","220","215","161","273","148","209","trueblood","null","null","null","null","null","null","null","null","null","null","null","","180","200","260","200","36000","52000","[1,2]","460.92231608602646","421.0762705052298","481.9323563788869"
"","canvas-keyboard-response","36","49983","0.0-6.0-2.4","538","","","","","rectangles no change","null","null","","","catch","sh","l","sw","220","215","161","273","148","209","trueblood","null","null","null","null","null","null","null","null","null","null","null","","180","200","260","200","36000","52000","[1,2]","460.92231608602646","421.0762705052298","481.9323563788869"
"","canvas-keyboard-response","37","51320","0.0-6.0-3.4","538","","","","","rectangles with change","null","null","","","catch","sh","l","sw","220","215","161","273","148","209","trueblood","null","null","null","null","null","null","null","null","null","null","null","","180","200","260","200","36000","52000","[1,2]","460.92231608602646","421.0762705052298","481.9323563788869"
"","canvas-keyboard-response","38","51343","0.0-6.0-4.4","538","","","","","clear_screen","null","null","","","catch","sh","l","sw","220","215","161","273","148","209","trueblood","null","null","null","null","null","null","null","null","null","null","null","","180","200","260","200","36000","52000","[1,2]","460.92231608602646","421.0762705052298","481.9323563788869"
"","canvas-keyboard-response","39","51991","0.0-6.0-5.4","538","","","","","make choice","640","1","","","catch","sh","l","sw","220","215","161","273","148","209","trueblood","null","null","null","null","null","null","null","null","null","null","null","","180","200","260","200","36000","52000","[1,2]","","",""
"","canvas-keyboard-response","40","52010","0.0-6.0-6.4","538","","","","","clear_screen","null","null","","","catch","sh","l","sw","220","215","161","273","148","209","trueblood","null","null","null","null","null","null","null","null","null","null","null","","180","200","260","200","36000","52000","[1,2]","","",""
"","canvas-keyboard-response","41","52212","0.0-6.0-0.5","538","","","","","pre trial waiting period","null","null","","","catch","sw","l","sh","180","200","231","211","210","219","spektor","null","null","null","null","null","null","null","null","null","null","null","","180","200","260","200","36000","52000","[2,3]","521.5719268144444","164.60925024154926","514.4802958857655"
"","canvas-keyboard-response","42","52231","0.0-6.0-1.5","538","","","","","clear_screen","null","null","","","catch","sw","l","sh","180","200","231","211","210","219","spektor","null","null","null","null","null","null","null","null","null","null","null","","180","200","260","200","36000","52000","[2,3]","521.5719268144444","164.60925024154926","514.4802958857655"
"","canvas-keyboard-response","43","52743","0.0-6.0-2.5","538","","","","","rectangles no change","null","null","","","catch","sw","l","sh","180","200","231","211","210","219","spektor","null","null","null","null","null","null","null","null","null","null","null","","180","200","260","200","36000","52000","[2,3]","521.5719268144444","164.60925024154926","514.4802958857655"
"","canvas-keyboard-response","44","54078","0.0-6.0-3.5","538","","","","","rectangles with change","null","null","","","catch","sw","l","sh","180","200","231","211","210","219","spektor","null","null","null","null","null","null","null","null","null","null","null","","180","200","260","200","36000","52000","[2,3]","521.5719268144444","164.60925024154926","514.4802958857655"
"","canvas-keyboard-response","45","54100","0.0-6.0-4.5","538","","","","","clear_screen","null","null","","","catch","sw","l","sh","180","200","231","211","210","219","spektor","null","null","null","null","null","null","null","null","null","null","null","","180","200","260","200","36000","52000","[2,3]","521.5719268144444","164.60925024154926","514.4802958857655"
"","canvas-keyboard-response","46","55353","0.0-6.0-5.5","538","","","","","make choice","1246","3","","","catch","sw","l","sh","180","200","231","211","210","219","spektor","null","null","null","null","null","null","null","null","null","null","null","","180","200","260","200","36000","52000","[2,3]","","",""
"","canvas-keyboard-response","47","55372","0.0-6.0-6.5","538","","","","","clear_screen","null","null","","","catch","sw","l","sh","180","200","231","211","210","219","spektor","null","null","null","null","null","null","null","null","null","null","null","","180","200","260","200","36000","52000","[2,3]","","",""
"","canvas-keyboard-response","48","55573","0.0-6.0-0.6","538","","","","","pre trial waiting period","null","null","","","catch","sw","l","sh","180","200","288","182","190","183","trueblood","null","null","null","null","null","null","null","null","null","null","null","","180","200","260","200","36000","52000","[1,2]","465.3101904105248","478.56403494204415","460.5779633620464"
"","canvas-keyboard-response","49","55594","0.0-6.0-1.6","538","","","","","clear_screen","null","null","","","catch","sw","l","sh","180","200","288","182","190","183","trueblood","null","null","null","null","null","null","null","null","null","null","null","","180","200","260","200","36000","52000","[1,2]","465.3101904105248","478.56403494204415","460.5779633620464"
"","canvas-keyboard-response","50","56103","0.0-6.0-2.6","538","","","","","rectangles no change","null","null","","","catch","sw","l","sh","180","200","288","182","190","183","trueblood","null","null","null","null","null","null","null","null","null","null","null","","180","200","260","200","36000","52000","[1,2]","465.3101904105248","478.56403494204415","460.5779633620464"
"","canvas-keyboard-response","51","57444","0.0-6.0-3.6","538","","","","","rectangles with change","null","null","","","catch","sw","l","sh","180","200","288","182","190","183","trueblood","null","null","null","null","null","null","null","null","null","null","null","","180","200","260","200","36000","52000","[1,2]","465.3101904105248","478.56403494204415","460.5779633620464"
"","canvas-keyboard-response","52","57467","0.0-6.0-4.6","538","","","","","clear_screen","null","null","","","catch","sw","l","sh","180","200","288","182","190","183","trueblood","null","null","null","null","null","null","null","null","null","null","null","","180","200","260","200","36000","52000","[1,2]","465.3101904105248","478.56403494204415","460.5779633620464"
"","canvas-keyboard-response","53","58025","0.0-6.0-5.6","538","","","","","make choice","550","2","","","catch","sw","l","sh","180","200","288","182","190","183","trueblood","null","null","null","null","null","null","null","null","null","null","null","","180","200","260","200","36000","52000","[1,2]","","",""
"","canvas-keyboard-response","54","58045","0.0-6.0-6.6","538","","","","","clear_screen","null","null","","","catch","sw","l","sh","180","200","288","182","190","183","trueblood","null","null","null","null","null","null","null","null","null","null","null","","180","200","260","200","36000","52000","[1,2]","","",""
"","canvas-keyboard-response","55","58246","0.0-6.0-0.7","538","","","","","pre trial waiting period","null","null","","","catch","sh","l","sw","206","158","283","181","143","188","trueblood","null","null","null","null","null","null","null","null","null","null","null","","180","200","260","200","36000","52000","[2,3]","485.32556596872115","488.06209831100375","490.1825380805849"
"","canvas-keyboard-response","56","58266","0.0-6.0-1.7","538","","","","","clear_screen","null","null","","","catch","sh","l","sw","206","158","283","181","143","188","trueblood","null","null","null","null","null","null","null","null","null","null","null","","180","200","260","200","36000","52000","[2,3]","485.32556596872115","488.06209831100375","490.1825380805849"
"","canvas-keyboard-response","57","58775","0.0-6.0-2.7","538","","","","","rectangles no change","null","null","","","catch","sh","l","sw","206","158","283","181","143","188","trueblood","null","null","null","null","null","null","null","null","null","null","null","","180","200","260","200","36000","52000","[2,3]","485.32556596872115","488.06209831100375","490.1825380805849"
"","canvas-keyboard-response","58","60112","0.0-6.0-3.7","538","","","","","rectangles with change","null","null","","","catch","sh","l","sw","206","158","283","181","143","188","trueblood","null","null","null","null","null","null","null","null","null","null","null","","180","200","260","200","36000","52000","[2,3]","485.32556596872115","488.06209831100375","490.1825380805849"
"","canvas-keyboard-response","59","60130","0.0-6.0-4.7","538","","","","","clear_screen","null","null","","","catch","sh","l","sw","206","158","283","181","143","188","trueblood","null","null","null","null","null","null","null","null","null","null","null","","180","200","260","200","36000","52000","[2,3]","485.32556596872115","488.06209831100375","490.1825380805849"
"","canvas-keyboard-response","60","61057","0.0-6.0-5.7","538","","","","","make choice","919","2","","","catch","sh","l","sw","206","158","283","181","143","188","trueblood","null","null","null","null","null","null","null","null","null","null","null","","180","200","260","200","36000","52000","[2,3]","","",""
"","canvas-keyboard-response","61","61075","0.0-6.0-6.7","538","","","","","clear_screen","null","null","","","catch","sh","l","sw","206","158","283","181","143","188","trueblood","null","null","null","null","null","null","null","null","null","null","null","","180","200","260","200","36000","52000","[2,3]","","",""
"","canvas-keyboard-response","62","61275","0.0-6.0-0.8","538","","","","","pre trial waiting period","null","null","","","catch","sw","l","sh","180","200","247","235","186","147","spektor","null","null","null","null","null","null","null","null","null","null","null","","180","200","260","200","36000","52000","[1,2]","476.55595171722797","147.57178057929627","522.4223188244439"
"","canvas-keyboard-response","63","61296","0.0-6.0-1.8","538","","","","","clear_screen","null","null","","","catch","sw","l","sh","180","200","247","235","186","147","spektor","null","null","null","null","null","null","null","null","null","null","null","","180","200","260","200","36000","52000","[1,2]","476.55595171722797","147.57178057929627","522.4223188244439"
"","canvas-keyboard-response","64","61804","0.0-6.0-2.8","538","","","","","rectangles no change","null","null","","","catch","sw","l","sh","180","200","247","235","186","147","spektor","null","null","null","null","null","null","null","null","null","null","null","","180","200","260","200","36000","52000","[1,2]","476.55595171722797","147.57178057929627","522.4223188244439"
"","canvas-keyboard-response","65","63141","0.0-6.0-3.8","538","","","","","rectangles with change","null","null","","","catch","sw","l","sh","180","200","247","235","186","147","spektor","null","null","null","null","null","null","null","null","null","null","null","","180","200","260","200","36000","52000","[1,2]","476.55595171722797","147.57178057929627","522.4223188244439"
"","canvas-keyboard-response","66","63164","0.0-6.0-4.8","538","","","","","clear_screen","null","null","","","catch","sw","l","sh","180","200","247","235","186","147","spektor","null","null","null","null","null","null","null","null","null","null","null","","180","200","260","200","36000","52000","[1,2]","476.55595171722797","147.57178057929627","522.4223188244439"
"","canvas-keyboard-response","67","63953","0.0-6.0-5.8","538","","","","","make choice","783","2","","","catch","sw","l","sh","180","200","247","235","186","147","spektor","null","null","null","null","null","null","null","null","null","null","null","","180","200","260","200","36000","52000","[1,2]","","",""
"","canvas-keyboard-response","68","63975","0.0-6.0-6.8","538","","","","","clear_screen","null","null","","","catch","sw","l","sh","180","200","247","235","186","147","spektor","null","null","null","null","null","null","null","null","null","null","null","","180","200","260","200","36000","52000","[1,2]","","",""
"","canvas-keyboard-response","69","64176","0.0-6.0-0.9","538","","","","","pre trial waiting period","null","null","","","critical","t","d","c","164","240","160.6713","232.8713","240","164","spektor","0.05","h","164","240","240","164","160.6713","232.8713","39360","39360","37415.7294","dc","null","null","null","null","null","null","[2,3]","500.65674668445945","108.84227892444703","522.2578095823847"
"","canvas-keyboard-response","70","64197","0.0-6.0-1.9","538","","","","","clear_screen","null","null","","","critical","t","d","c","164","240","160.6713","232.8713","240","164","spektor","0.05","h","164","240","240","164","160.6713","232.8713","39360","39360","37415.7294","dc","null","null","null","null","null","null","[2,3]","500.65674668445945","108.84227892444703","522.2578095823847"
"","canvas-keyboard-response","71","64706","0.0-6.0-2.9","538","","","","","rectangles no change","null","null","","","critical","t","d","c","164","240","160.6713","232.8713","240","164","spektor","0.05","h","164","240","240","164","160.6713","232.8713","39360","39360","37415.7294","dc","null","null","null","null","null","null","[2,3]","500.65674668445945","108.84227892444703","522.2578095823847"
"","canvas-keyboard-response","72","66041","0.0-6.0-3.9","538","","","","","rectangles with change","null","null","","","critical","t","d","c","164","240","160.6713","232.8713","240","164","spektor","0.05","h","164","240","240","164","160.6713","232.8713","39360","39360","37415.7294","dc","null","null","null","null","null","null","[2,3]","500.65674668445945","108.84227892444703","522.2578095823847"
"","canvas-keyboard-response","73","66059","0.0-6.0-4.9","538","","","","","clear_screen","null","null","","","critical","t","d","c","164","240","160.6713","232.8713","240","164","spektor","0.05","h","164","240","240","164","160.6713","232.8713","39360","39360","37415.7294","dc","null","null","null","null","null","null","[2,3]","500.65674668445945","108.84227892444703","522.2578095823847"
"","canvas-keyboard-response","74","66522","0.0-6.0-5.9","538","","","","","make choice","458","3","","","critical","t","d","c","164","240","160.6713","232.8713","240","164","spektor","0.05","h","164","240","240","164","160.6713","232.8713","39360","39360","37415.7294","dc","null","null","null","null","null","null","[2,3]","","",""
"","canvas-keyboard-response","75","66543","0.0-6.0-6.9","538","","","","","clear_screen","null","null","","","critical","t","d","c","164","240","160.6713","232.8713","240","164","spektor","0.05","h","164","240","240","164","160.6713","232.8713","39360","39360","37415.7294","dc","null","null","null","null","null","null","[2,3]","","",""
"","canvas-keyboard-response","76","66744","0.0-6.0-0.10","538","","","","","pre trial waiting period","null","null","","","catch","sw","sh","l","180","200","183","146","281","160","spektor","null","null","null","null","null","null","null","null","null","null","null","","180","200","260","200","36000","52000","[2,3]","509.68423849509435","223.52599867739195","521.2012723492096"
"","canvas-keyboard-response","77","66768","0.0-6.0-1.10","538","","","","","clear_screen","null","null","","","catch","sw","sh","l","180","200","183","146","281","160","spektor","null","null","null","null","null","null","null","null","null","null","null","","180","200","260","200","36000","52000","[2,3]","509.68423849509435","223.52599867739195","521.2012723492096"
"","canvas-keyboard-response","78","67277","0.0-6.0-2.10","538","","","","","rectangles no change","null","null","","","catch","sw","sh","l","180","200","183","146","281","160","spektor","null","null","null","null","null","null","null","null","null","null","null","","180","200","260","200","36000","52000","[2,3]","509.68423849509435","223.52599867739195","521.2012723492096"
"","canvas-keyboard-response","79","68616","0.0-6.0-3.10","538","","","","","rectangles with change","null","null","","","catch","sw","sh","l","180","200","183","146","281","160","spektor","null","null","null","null","null","null","null","null","null","null","null","","180","200","260","200","36000","52000","[2,3]","509.68423849509435","223.52599867739195","521.2012723492096"
"","canvas-keyboard-response","80","68637","0.0-6.0-4.10","538","","","","","clear_screen","null","null","","","catch","sw","sh","l","180","200","183","146","281","160","spektor","null","null","null","null","null","null","null","null","null","null","null","","180","200","260","200","36000","52000","[2,3]","509.68423849509435","223.52599867739195","521.2012723492096"
"","canvas-keyboard-response","81","69457","0.0-6.0-5.10","538","","","","","make choice","813","3","","","catch","sw","sh","l","180","200","183","146","281","160","spektor","null","null","null","null","null","null","null","null","null","null","null","","180","200","260","200","36000","52000","[2,3]","","",""
"","canvas-keyboard-response","82","69475","0.0-6.0-6.10","538","","","","","clear_screen","null","null","","","catch","sw","sh","l","180","200","183","146","281","160","spektor","null","null","null","null","null","null","null","null","null","null","null","","180","200","260","200","36000","52000","[2,3]","","",""
"","canvas-keyboard-response","83","69676","0.0-6.0-0.11","538","","","","","pre trial waiting period","null","null","","","critical","d","t","c","154.6796","220.0396","164","240","240","164","spektor","0.14","h","164","240","240","164","154.6796","220.0396","39360","39360","34035.6388","td","null","null","null","null","null","null","[2,1]","507.55536576510514","135.47304542279676","534.7764501504065"
"","canvas-keyboard-response","84","69696","0.0-6.0-1.11","538","","","","","clear_screen","null","null","","","critical","d","t","c","154.6796","220.0396","164","240","240","164","spektor","0.14","h","164","240","240","164","154.6796","220.0396","39360","39360","34035.6388","td","null","null","null","null","null","null","[2,1]","507.55536576510514","135.47304542279676","534.7764501504065"
"","canvas-keyboard-response","85","70203","0.0-6.0-2.11","538","","","","","rectangles no change","null","null","","","critical","d","t","c","154.6796","220.0396","164","240","240","164","spektor","0.14","h","164","240","240","164","154.6796","220.0396","39360","39360","34035.6388","td","null","null","null","null","null","null","[2,1]","507.55536576510514","135.47304542279676","534.7764501504065"
"","canvas-keyboard-response","86","71540","0.0-6.0-3.11","538","","","","","rectangles with change","null","null","","","critical","d","t","c","154.6796","220.0396","164","240","240","164","spektor","0.14","h","164","240","240","164","154.6796","220.0396","39360","39360","34035.6388","td","null","null","null","null","null","null","[2,1]","507.55536576510514","135.47304542279676","534.7764501504065"
"","canvas-keyboard-response","87","71560","0.0-6.0-4.11","538","","","","","clear_screen","null","null","","","critical","d","t","c","154.6796","220.0396","164","240","240","164","spektor","0.14","h","164","240","240","164","154.6796","220.0396","39360","39360","34035.6388","td","null","null","null","null","null","null","[2,1]","507.55536576510514","135.47304542279676","534.7764501504065"
"","canvas-keyboard-response","88","72321","0.0-6.0-5.11","538","","","","","make choice","753","2","","","critical","d","t","c","154.6796","220.0396","164","240","240","164","spektor","0.14","h","164","240","240","164","154.6796","220.0396","39360","39360","34035.6388","td","null","null","null","null","null","null","[2,1]","","",""
"","canvas-keyboard-response","89","72345","0.0-6.0-6.11","538","","","","","clear_screen","null","null","","","critical","d","t","c","154.6796","220.0396","164","240","240","164","spektor","0.14","h","164","240","240","164","154.6796","220.0396","39360","39360","34035.6388","td","null","null","null","null","null","null","[2,1]","","",""
"","canvas-keyboard-response","90","72545","0.0-6.0-0.12","538","","","","","pre trial waiting period","null","null","","","catch","sh","sw","l","186","184","172","210","197","231","trueblood","null","null","null","null","null","null","null","null","null","null","null","","180","200","260","200","36000","52000","[1,3]","463.08866717653467","488.1218124562512","429.72822585252993"
"","canvas-keyboard-response","91","72565","0.0-6.0-1.12","538","","","","","clear_screen","null","null","","","catch","sh","sw","l","186","184","172","210","197","231","trueblood","null","null","null","null","null","null","null","null","null","null","null","","180","200","260","200","36000","52000","[1,3]","463.08866717653467","488.1218124562512","429.72822585252993"
"","canvas-keyboard-response","92","73074","0.0-6.0-2.12","538","","","","","rectangles no change","null","null","","","catch","sh","sw","l","186","184","172","210","197","231","trueblood","null","null","null","null","null","null","null","null","null","null","null","","180","200","260","200","36000","52000","[1,3]","463.08866717653467","488.1218124562512","429.72822585252993"
"","canvas-keyboard-response","93","74412","0.0-6.0-3.12","538","","","","","rectangles with change","null","null","","","catch","sh","sw","l","186","184","172","210","197","231","trueblood","null","null","null","null","null","null","null","null","null","null","null","","180","200","260","200","36000","52000","[1,3]","463.08866717653467","488.1218124562512","429.72822585252993"
"","canvas-keyboard-response","94","74434","0.0-6.0-4.12","538","","","","","clear_screen","null","null","","","catch","sh","sw","l","186","184","172","210","197","231","trueblood","null","null","null","null","null","null","null","null","null","null","null","","180","200","260","200","36000","52000","[1,3]","463.08866717653467","488.1218124562512","429.72822585252993"
"","canvas-keyboard-response","95","74944","0.0-6.0-5.12","538","","","","","make choice","505","3","","","catch","sh","sw","l","186","184","172","210","197","231","trueblood","null","null","null","null","null","null","null","null","null","null","null","","180","200","260","200","36000","52000","[1,3]","","",""
"","canvas-keyboard-response","96","74965","0.0-6.0-6.12","538","","","","","clear_screen","null","null","","","catch","sh","sw","l","186","184","172","210","197","231","trueblood","null","null","null","null","null","null","null","null","null","null","null","","180","200","260","200","36000","52000","[1,3]","","",""
"","canvas-keyboard-response","97","75167","0.0-6.0-0.13","538","","","","","pre trial waiting period","null","null","","","critical","c","t","d","164","240","240","164","220.0396","154.6796","spektor","0.14","w","240","164","164","240","220.0396","154.6796","39360","39360","34035.6388","dc","null","null","null","null","null","null","[3,1]","466.3651929103692","175.00886088260927","503.2737224698807"
"","canvas-keyboard-response","98","75188","0.0-6.0-1.13","538","","","","","clear_screen","null","null","","","critical","c","t","d","164","240","240","164","220.0396","154.6796","spektor","0.14","w","240","164","164","240","220.0396","154.6796","39360","39360","34035.6388","dc","null","null","null","null","null","null","[3,1]","466.3651929103692","175.00886088260927","503.2737224698807"
"","canvas-keyboard-response","99","75695","0.0-6.0-2.13","538","","","","","rectangles no change","null","null","","","critical","c","t","d","164","240","240","164","220.0396","154.6796","spektor","0.14","w","240","164","164","240","220.0396","154.6796","39360","39360","34035.6388","dc","null","null","null","null","null","null","[3,1]","466.3651929103692","175.00886088260927","503.2737224698807"
"","canvas-keyboard-response","100","77028","0.0-6.0-3.13","538","","","","","rectangles with change","null","null","","","critical","c","t","d","164","240","240","164","220.0396","154.6796","spektor","0.14","w","240","164","164","240","220.0396","154.6796","39360","39360","34035.6388","dc","null","null","null","null","null","null","[3,1]","466.3651929103692","175.00886088260927","503.2737224698807"
"","canvas-keyboard-response","101","77045","0.0-6.0-4.13","538","","","","","clear_screen","null","null","","","critical","c","t","d","164","240","240","164","220.0396","154.6796","spektor","0.14","w","240","164","164","240","220.0396","154.6796","39360","39360","34035.6388","dc","null","null","null","null","null","null","[3,1]","466.3651929103692","175.00886088260927","503.2737224698807"
"","canvas-keyboard-response","102","77529","0.0-6.0-5.13","538","","","","","make choice","477","1","","","critical","c","t","d","164","240","240","164","220.0396","154.6796","spektor","0.14","w","240","164","164","240","220.0396","154.6796","39360","39360","34035.6388","dc","null","null","null","null","null","null","[3,1]","","",""
"","canvas-keyboard-response","103","77549","0.0-6.0-6.13","538","","","","","clear_screen","null","null","","","critical","c","t","d","164","240","240","164","220.0396","154.6796","spektor","0.14","w","240","164","164","240","220.0396","154.6796","39360","39360","34035.6388","dc","null","null","null","null","null","null","[3,1]","","",""
"","canvas-keyboard-response","104","77751","0.0-6.0-0.14","538","","","","","pre trial waiting period","null","null","","","critical","d","t","c","162.6685","237.1485","164","240","240","164","trueblood","0.02","h","164","240","240","164","162.6685","237.1485","39360","39360","38576.5967","td","null","null","null","null","null","null","[2,1]","456.74637946213727","423.1606150918849","486.6741985379013"
"","canvas-keyboard-response","105","77773","0.0-6.0-1.14","538","","","","","clear_screen","null","null","","","critical","d","t","c","162.6685","237.1485","164","240","240","164","trueblood","0.02","h","164","240","240","164","162.6685","237.1485","39360","39360","38576.5967","td","null","null","null","null","null","null","[2,1]","456.74637946213727","423.1606150918849","486.6741985379013"
"","canvas-keyboard-response","106","78281","0.0-6.0-2.14","538","","","","","rectangles no change","null","null","","","critical","d","t","c","162.6685","237.1485","164","240","240","164","trueblood","0.02","h","164","240","240","164","162.6685","237.1485","39360","39360","38576.5967","td","null","null","null","null","null","null","[2,1]","456.74637946213727","423.1606150918849","486.6741985379013"
"","canvas-keyboard-response","107","79616","0.0-6.0-3.14","538","","","","","rectangles with change","null","null","","","critical","d","t","c","162.6685","237.1485","164","240","240","164","trueblood","0.02","h","164","240","240","164","162.6685","237.1485","39360","39360","38576.5967","td","null","null","null","null","null","null","[2,1]","456.74637946213727","423.1606150918849","486.6741985379013"
"","canvas-keyboard-response","108","79634","0.0-6.0-4.14","538","","","","","clear_screen","null","null","","","critical","d","t","c","162.6685","237.1485","164","240","240","164","trueblood","0.02","h","164","240","240","164","162.6685","237.1485","39360","39360","38576.5967","td","null","null","null","null","null","null","[2,1]","456.74637946213727","423.1606150918849","486.6741985379013"
"","canvas-keyboard-response","109","80594","0.0-6.0-5.14","538","","","","","make choice","950","1","","","critical","d","t","c","162.6685","237.1485","164","240","240","164","trueblood","0.02","h","164","240","240","164","162.6685","237.1485","39360","39360","38576.5967","td","null","null","null","null","null","null","[2,1]","","",""
"","canvas-keyboard-response","110","80612","0.0-6.0-6.14","538","","","","","clear_screen","null","null","","","critical","d","t","c","162.6685","237.1485","164","240","240","164","trueblood","0.02","h","164","240","240","164","162.6685","237.1485","39360","39360","38576.5967","td","null","null","null","null","null","null","[2,1]","","",""
"","canvas-keyboard-response","111","80812","0.0-6.0-0.15","538","","","","","pre trial waiting period","null","null","","","catch","sw","sh","l","180","200","216","204","294","184","trueblood","null","null","null","null","null","null","null","null","null","null","null","","180","200","260","200","36000","52000","[2,3]","453.5010349451295","447.19553957460073","486.75787337895656"
"","canvas-keyboard-response","112","80832","0.0-6.0-1.15","538","","","","","clear_screen","null","null","","","catch","sw","sh","l","180","200","216","204","294","184","trueblood","null","null","null","null","null","null","null","null","null","null","null","","180","200","260","200","36000","52000","[2,3]","453.5010349451295","447.19553957460073","486.75787337895656"
"","canvas-keyboard-response","113","81339","0.0-6.0-2.15","538","","","","","rectangles no change","null","null","","","catch","sw","sh","l","180","200","216","204","294","184","trueblood","null","null","null","null","null","null","null","null","null","null","null","","180","200","260","200","36000","52000","[2,3]","453.5010349451295","447.19553957460073","486.75787337895656"
"","canvas-keyboard-response","114","82677","0.0-6.0-3.15","538","","","","","rectangles with change","null","null","","","catch","sw","sh","l","180","200","216","204","294","184","trueblood","null","null","null","null","null","null","null","null","null","null","null","","180","200","260","200","36000","52000","[2,3]","453.5010349451295","447.19553957460073","486.75787337895656"
"","canvas-keyboard-response","115","82696","0.0-6.0-4.15","538","","","","","clear_screen","null","null","","","catch","sw","sh","l","180","200","216","204","294","184","trueblood","null","null","null","null","null","null","null","null","null","null","null","","180","200","260","200","36000","52000","[2,3]","453.5010349451295","447.19553957460073","486.75787337895656"
"","canvas-keyboard-response","116","83169","0.0-6.0-5.15","538","","","","","make choice","468","3","","","catch","sw","sh","l","180","200","216","204","294","184","trueblood","null","null","null","null","null","null","null","null","null","null","null","","180","200","260","200","36000","52000","[2,3]","","",""
"","canvas-keyboard-response","117","83189","0.0-6.0-6.15","538","","","","","clear_screen","null","null","","","catch","sw","sh","l","180","200","216","204","294","184","trueblood","null","null","null","null","null","null","null","null","null","null","null","","180","200","260","200","36000","52000","[2,3]","","",""
"","canvas-keyboard-response","118","83390","0.0-6.0-0.16","538","","","","","pre trial waiting period","null","null","","","critical","t","c","d","240","164","164","240","232.8713","160.6713","spektor","0.05","w","240","164","164","240","232.8713","160.6713","39360","39360","37415.7294","td","null","null","null","null","null","null","[1,3]","515.9336314995393","132.08735208771623","529.3339769517543"
"","canvas-keyboard-response","119","83410","0.0-6.0-1.16","538","","","","","clear_screen","null","null","","","critical","t","c","d","240","164","164","240","232.8713","160.6713","spektor","0.05","w","240","164","164","240","232.8713","160.6713","39360","39360","37415.7294","td","null","null","null","null","null","null","[1,3]","515.9336314995393","132.08735208771623","529.3339769517543"
"","canvas-keyboard-response","120","83919","0.0-6.0-2.16","538","","","","","rectangles no change","null","null","","","critical","t","c","d","240","164","164","240","232.8713","160.6713","spektor","0.05","w","240","164","164","240","232.8713","160.6713","39360","39360","37415.7294","td","null","null","null","null","null","null","[1,3]","515.9336314995393","132.08735208771623","529.3339769517543"
"","canvas-keyboard-response","121","85255","0.0-6.0-3.16","538","","","","","rectangles with change","null","null","","","critical","t","c","d","240","164","164","240","232.8713","160.6713","spektor","0.05","w","240","164","164","240","232.8713","160.6713","39360","39360","37415.7294","td","null","null","null","null","null","null","[1,3]","515.9336314995393","132.08735208771623","529.3339769517543"
"","canvas-keyboard-response","122","85277","0.0-6.0-4.16","538","","","","","clear_screen","null","null","","","critical","t","c","d","240","164","164","240","232.8713","160.6713","spektor","0.05","w","240","164","164","240","232.8713","160.6713","39360","39360","37415.7294","td","null","null","null","null","null","null","[1,3]","515.9336314995393","132.08735208771623","529.3339769517543"
"","canvas-keyboard-response","123","85769","0.0-6.0-5.16","538","","","","","make choice","486","1","","","critical","t","c","d","240","164","164","240","232.8713","160.6713","spektor","0.05","w","240","164","164","240","232.8713","160.6713","39360","39360","37415.7294","td","null","null","null","null","null","null","[1,3]","","",""
"","canvas-keyboard-response","124","85792","0.0-6.0-6.16","538","","","","","clear_screen","null","null","","","critical","t","c","d","240","164","164","240","232.8713","160.6713","spektor","0.05","w","240","164","164","240","232.8713","160.6713","39360","39360","37415.7294","td","null","null","null","null","null","null","[1,3]","","",""
"","canvas-keyboard-response","125","85993","0.0-6.0-0.17","538","","","","","pre trial waiting period","null","null","","","catch","sw","l","sh","180","200","194","298","196","147","trueblood","null","null","null","null","null","null","null","null","null","null","null","","180","200","260","200","36000","52000","[2,3]","456.97208673289754","409.2522383832426","503.98036388999896"
"","canvas-keyboard-response","126","86017","0.0-6.0-1.17","538","","","","","clear_screen","null","null","","","catch","sw","l","sh","180","200","194","298","196","147","trueblood","null","null","null","null","null","null","null","null","null","null","null","","180","200","260","200","36000","52000","[2,3]","456.97208673289754","409.2522383832426","503.98036388999896"
"","canvas-keyboard-response","127","86524","0.0-6.0-2.17","538","","","","","rectangles no change","null","null","","","catch","sw","l","sh","180","200","194","298","196","147","trueblood","null","null","null","null","null","null","null","null","null","null","null","","180","200","260","200","36000","52000","[2,3]","456.97208673289754","409.2522383832426","503.98036388999896"
"","canvas-keyboard-response","128","87859","0.0-6.0-3.17","538","","","","","rectangles with change","null","null","","","catch","sw","l","sh","180","200","194","298","196","147","trueblood","null","null","null","null","null","null","null","null","null","null","null","","180","200","260","200","36000","52000","[2,3]","456.97208673289754","409.2522383832426","503.98036388999896"
"","canvas-keyboard-response","129","87879","0.0-6.0-4.17","538","","","","","clear_screen","null","null","","","catch","sw","l","sh","180","200","194","298","196","147","trueblood","null","null","null","null","null","null","null","null","null","null","null","","180","200","260","200","36000","52000","[2,3]","456.97208673289754","409.2522383832426","503.98036388999896"
"","canvas-keyboard-response","130","90361","0.0-6.0-5.17","538","","","","","make choice","2475","2","","","catch","sw","l","sh","180","200","194","298","196","147","trueblood","null","null","null","null","null","null","null","null","null","null","null","","180","200","260","200","36000","52000","[2,3]","","",""
"","canvas-keyboard-response","131","90380","0.0-6.0-6.17","538","","","","","clear_screen","null","null","","","catch","sw","l","sh","180","200","194","298","196","147","trueblood","null","null","null","null","null","null","null","null","null","null","null","","180","200","260","200","36000","52000","[2,3]","","",""
"","canvas-keyboard-response","132","90581","0.0-6.0-0.18","538","","","","","pre trial waiting period","null","null","","","critical","c","t","d","164","240","240","164","237.1485","162.6685","trueblood","0.02","w","240","164","164","240","237.1485","162.6685","39360","39360","38576.5967","td","null","null","null","null","null","null","[2,3]","449.8612145417371","487.624425377732","497.6172741964303"
"","canvas-keyboard-response","133","90602","0.0-6.0-1.18","538","","","","","clear_screen","null","null","","","critical","c","t","d","164","240","240","164","237.1485","162.6685","trueblood","0.02","w","240","164","164","240","237.1485","162.6685","39360","39360","38576.5967","td","null","null","null","null","null","null","[2,3]","449.8612145417371","487.624425377732","497.6172741964303"
"","canvas-keyboard-response","134","91108","0.0-6.0-2.18","538","","","","","rectangles no change","null","null","","","critical","c","t","d","164","240","240","164","237.1485","162.6685","trueblood","0.02","w","240","164","164","240","237.1485","162.6685","39360","39360","38576.5967","td","null","null","null","null","null","null","[2,3]","449.8612145417371","487.624425377732","497.6172741964303"
"","canvas-keyboard-response","135","92445","0.0-6.0-3.18","538","","","","","rectangles with change","null","null","","","critical","c","t","d","164","240","240","164","237.1485","162.6685","trueblood","0.02","w","240","164","164","240","237.1485","162.6685","39360","39360","38576.5967","td","null","null","null","null","null","null","[2,3]","449.8612145417371","487.624425377732","497.6172741964303"
"","canvas-keyboard-response","136","92465","0.0-6.0-4.18","538","","","","","clear_screen","null","null","","","critical","c","t","d","164","240","240","164","237.1485","162.6685","trueblood","0.02","w","240","164","164","240","237.1485","162.6685","39360","39360","38576.5967","td","null","null","null","null","null","null","[2,3]","449.8612145417371","487.624425377732","497.6172741964303"
"","canvas-keyboard-response","137","93977","0.0-6.0-5.18","538","","","","","make choice","1505","3","","","critical","c","t","d","164","240","240","164","237.1485","162.6685","trueblood","0.02","w","240","164","164","240","237.1485","162.6685","39360","39360","38576.5967","td","null","null","null","null","null","null","[2,3]","","",""
"","canvas-keyboard-response","138","93997","0.0-6.0-6.18","538","","","","","clear_screen","null","null","","","critical","c","t","d","164","240","240","164","237.1485","162.6685","trueblood","0.02","w","240","164","164","240","237.1485","162.6685","39360","39360","38576.5967","td","null","null","null","null","null","null","[2,3]","","",""
"","canvas-keyboard-response","139","94198","0.0-6.0-0.19","538","","","","","pre trial waiting period","null","null","","","catch","sh","sw","l","236","177","189","230","226","261","spektor","null","null","null","null","null","null","null","null","null","null","null","","180","200","260","200","36000","52000","[2,3]","530.6434990639103","140.8427256537443","445.1578526984779"
"","canvas-keyboard-response","140","94216","0.0-6.0-1.19","538","","","","","clear_screen","null","null","","","catch","sh","sw","l","236","177","189","230","226","261","spektor","null","null","null","null","null","null","null","null","null","null","null","","180","200","260","200","36000","52000","[2,3]","530.6434990639103","140.8427256537443","445.1578526984779"
"","canvas-keyboard-response","141","94726","0.0-6.0-2.19","538","","","","","rectangles no change","null","null","","","catch","sh","sw","l","236","177","189","230","226","261","spektor","null","null","null","null","null","null","null","null","null","null","null","","180","200","260","200","36000","52000","[2,3]","530.6434990639103","140.8427256537443","445.1578526984779"
"","canvas-keyboard-response","142","96062","0.0-6.0-3.19","538","","","","","rectangles with change","null","null","","","catch","sh","sw","l","236","177","189","230","226","261","spektor","null","null","null","null","null","null","null","null","null","null","null","","180","200","260","200","36000","52000","[2,3]","530.6434990639103","140.8427256537443","445.1578526984779"
"","canvas-keyboard-response","143","96080","0.0-6.0-4.19","538","","","","","clear_screen","null","null","","","catch","sh","sw","l","236","177","189","230","226","261","spektor","null","null","null","null","null","null","null","null","null","null","null","","180","200","260","200","36000","52000","[2,3]","530.6434990639103","140.8427256537443","445.1578526984779"
"","canvas-keyboard-response","144","96361","0.0-6.0-5.19","538","","","","","make choice","273","3","","","catch","sh","sw","l","236","177","189","230","226","261","spektor","null","null","null","null","null","null","null","null","null","null","null","","180","200","260","200","36000","52000","[2,3]","","",""
"","canvas-keyboard-response","145","96381","0.0-6.0-6.19","538","","","","","clear_screen","null","null","","","catch","sh","sw","l","236","177","189","230","226","261","spektor","null","null","null","null","null","null","null","null","null","null","null","","180","200","260","200","36000","52000","[2,3]","","",""
"","canvas-keyboard-response","146","96581","0.0-6.0-0.20","538","","","","","pre trial waiting period","null","null","","","critical","c","d","t","164","240","237.1485","162.6685","240","164","spektor","0.02","w","240","164","164","240","237.1485","162.6685","39360","39360","38576.5967","tc","null","null","null","null","null","null","[3,1]","457.49861784587057","211.49920953479838","501.7083908900623"
"","canvas-keyboard-response","147","96602","0.0-6.0-1.20","538","","","","","clear_screen","null","null","","","critical","c","d","t","164","240","237.1485","162.6685","240","164","spektor","0.02","w","240","164","164","240","237.1485","162.6685","39360","39360","38576.5967","tc","null","null","null","null","null","null","[3,1]","457.49861784587057","211.49920953479838","501.7083908900623"
"","canvas-keyboard-response","148","97110","0.0-6.0-2.20","538","","","","","rectangles no change","null","null","","","critical","c","d","t","164","240","237.1485","162.6685","240","164","spektor","0.02","w","240","164","164","240","237.1485","162.6685","39360","39360","38576.5967","tc","null","null","null","null","null","null","[3,1]","457.49861784587057","211.49920953479838","501.7083908900623"
"","canvas-keyboard-response","149","98447","0.0-6.0-3.20","538","","","","","rectangles with change","null","null","","","critical","c","d","t","164","240","237.1485","162.6685","240","164","spektor","0.02","w","240","164","164","240","237.1485","162.6685","39360","39360","38576.5967","tc","null","null","null","null","null","null","[3,1]","457.49861784587057","211.49920953479838","501.7083908900623"
"","canvas-keyboard-response","150","98465","0.0-6.0-4.20","538","","","","","clear_screen","null","null","","","critical","c","d","t","164","240","237.1485","162.6685","240","164","spektor","0.02","w","240","164","164","240","237.1485","162.6685","39360","39360","38576.5967","tc","null","null","null","null","null","null","[3,1]","457.49861784587057","211.49920953479838","501.7083908900623"
"","canvas-keyboard-response","151","98993","0.0-6.0-5.20","538","","","","","make choice","523","3","","","critical","c","d","t","164","240","237.1485","162.6685","240","164","spektor","0.02","w","240","164","164","240","237.1485","162.6685","39360","39360","38576.5967","tc","null","null","null","null","null","null","[3,1]","","",""
"","canvas-keyboard-response","152","99013","0.0-6.0-6.20","538","","","","","clear_screen","null","null","","","critical","c","d","t","164","240","237.1485","162.6685","240","164","spektor","0.02","w","240","164","164","240","237.1485","162.6685","39360","39360","38576.5967","tc","null","null","null","null","null","null","[3,1]","","",""
"","canvas-keyboard-response","153","99214","0.0-6.0-0.21","538","","","","","pre trial waiting period","null","null","","","critical","d","t","c","164","240","164","240","240","164","trueblood","0","h","164","240","240","164","164","240","39360","39360","39360","tc","null","null","null","null","null","null","[2,3]","427.8768426329335","438.0342559179056","496.9333914151978"
"","canvas-keyboard-response","154","99236","0.0-6.0-1.21","538","","","","","clear_screen","null","null","","","critical","d","t","c","164","240","164","240","240","164","trueblood","0","h","164","240","240","164","164","240","39360","39360","39360","tc","null","null","null","null","null","null","[2,3]","427.8768426329335","438.0342559179056","496.9333914151978"
"","canvas-keyboard-response","155","99744","0.0-6.0-2.21","538","","","","","rectangles no change","null","null","","","critical","d","t","c","164","240","164","240","240","164","trueblood","0","h","164","240","240","164","164","240","39360","39360","39360","tc","null","null","null","null","null","null","[2,3]","427.8768426329335","438.0342559179056","496.9333914151978"
"","canvas-keyboard-response","156","101084","0.0-6.0-3.21","538","","","","","rectangles with change","null","null","","","critical","d","t","c","164","240","164","240","240","164","trueblood","0","h","164","240","240","164","164","240","39360","39360","39360","tc","null","null","null","null","null","null","[2,3]","427.8768426329335","438.0342559179056","496.9333914151978"
"","canvas-keyboard-response","157","101105","0.0-6.0-4.21","538","","","","","clear_screen","null","null","","","critical","d","t","c","164","240","164","240","240","164","trueblood","0","h","164","240","240","164","164","240","39360","39360","39360","tc","null","null","null","null","null","null","[2,3]","427.8768426329335","438.0342559179056","496.9333914151978"
"","canvas-keyboard-response","158","101713","0.0-6.0-5.21","538","","","","","make choice","601","3","","","critical","d","t","c","164","240","164","240","240","164","trueblood","0","h","164","240","240","164","164","240","39360","39360","39360","tc","null","null","null","null","null","null","[2,3]","","",""
"","canvas-keyboard-response","159","101735","0.0-6.0-6.21","538","","","","","clear_screen","null","null","","","critical","d","t","c","164","240","164","240","240","164","trueblood","0","h","164","240","240","164","164","240","39360","39360","39360","tc","null","null","null","null","null","null","[2,3]","","",""
"","canvas-keyboard-response","160","101936","0.0-6.0-0.22","538","","","","","pre trial waiting period","null","null","","","critical","t","d","c","164","240","158.0083","227.1683","240","164","spektor","0.09","h","164","240","240","164","158.0083","227.1683","39360","39360","35894.4834","dc","null","null","null","null","null","null","[2,3]","482.86904904291004","141.95087939784588","510.22068285808484"
"","canvas-keyboard-response","161","101961","0.0-6.0-1.22","538","","","","","clear_screen","null","null","","","critical","t","d","c","164","240","158.0083","227.1683","240","164","spektor","0.09","h","164","240","240","164","158.0083","227.1683","39360","39360","35894.4834","dc","null","null","null","null","null","null","[2,3]","482.86904904291004","141.95087939784588","510.22068285808484"
"","canvas-keyboard-response","162","102468","0.0-6.0-2.22","538","","","","","rectangles no change","null","null","","","critical","t","d","c","164","240","158.0083","227.1683","240","164","spektor","0.09","h","164","240","240","164","158.0083","227.1683","39360","39360","35894.4834","dc","null","null","null","null","null","null","[2,3]","482.86904904291004","141.95087939784588","510.22068285808484"
"","canvas-keyboard-response","163","103805","0.0-6.0-3.22","538","","","","","rectangles with change","null","null","","","critical","t","d","c","164","240","158.0083","227.1683","240","164","spektor","0.09","h","164","240","240","164","158.0083","227.1683","39360","39360","35894.4834","dc","null","null","null","null","null","null","[2,3]","482.86904904291004","141.95087939784588","510.22068285808484"
"","canvas-keyboard-response","164","103825","0.0-6.0-4.22","538","","","","","clear_screen","null","null","","","critical","t","d","c","164","240","158.0083","227.1683","240","164","spektor","0.09","h","164","240","240","164","158.0083","227.1683","39360","39360","35894.4834","dc","null","null","null","null","null","null","[2,3]","482.86904904291004","141.95087939784588","510.22068285808484"
"","canvas-keyboard-response","165","104488","0.0-6.0-5.22","538","","","","","make choice","657","3","","","critical","t","d","c","164","240","158.0083","227.1683","240","164","spektor","0.09","h","164","240","240","164","158.0083","227.1683","39360","39360","35894.4834","dc","null","null","null","null","null","null","[2,3]","","",""
"","canvas-keyboard-response","166","104508","0.0-6.0-6.22","538","","","","","clear_screen","null","null","","","critical","t","d","c","164","240","158.0083","227.1683","240","164","spektor","0.09","h","164","240","240","164","158.0083","227.1683","39360","39360","35894.4834","dc","null","null","null","null","null","null","[2,3]","","",""
"","canvas-keyboard-response","167","104710","0.0-6.0-0.23","538","","","","","pre trial waiting period","null","null","","","catch","sh","l","sw","233","166","259","179","168","212","trueblood","null","null","null","null","null","null","null","null","null","null","null","","180","200","260","200","36000","52000","[2,3]","486.5481510005919","472.8311355313387","480.78476944716266"
"","canvas-keyboard-response","168","104732","0.0-6.0-1.23","538","","","","","clear_screen","null","null","","","catch","sh","l","sw","233","166","259","179","168","212","trueblood","null","null","null","null","null","null","null","null","null","null","null","","180","200","260","200","36000","52000","[2,3]","486.5481510005919","472.8311355313387","480.78476944716266"
"","canvas-keyboard-response","169","105240","0.0-6.0-2.23","538","","","","","rectangles no change","null","null","","","catch","sh","l","sw","233","166","259","179","168","212","trueblood","null","null","null","null","null","null","null","null","null","null","null","","180","200","260","200","36000","52000","[2,3]","486.5481510005919","472.8311355313387","480.78476944716266"
"","canvas-keyboard-response","170","106577","0.0-6.0-3.23","538","","","","","rectangles with change","null","null","","","catch","sh","l","sw","233","166","259","179","168","212","trueblood","null","null","null","null","null","null","null","null","null","null","null","","180","200","260","200","36000","52000","[2,3]","486.5481510005919","472.8311355313387","480.78476944716266"
"","canvas-keyboard-response","171","106600","0.0-6.0-4.23","538","","","","","clear_screen","null","null","","","catch","sh","l","sw","233","166","259","179","168","212","trueblood","null","null","null","null","null","null","null","null","null","null","null","","180","200","260","200","36000","52000","[2,3]","486.5481510005919","472.8311355313387","480.78476944716266"
"","canvas-keyboard-response","172","107449","0.0-6.0-5.23","538","","","","","make choice","843","2","","","catch","sh","l","sw","233","166","259","179","168","212","trueblood","null","null","null","null","null","null","null","null","null","null","null","","180","200","260","200","36000","52000","[2,3]","","",""
"","canvas-keyboard-response","173","107469","0.0-6.0-6.23","538","","","","","clear_screen","null","null","","","catch","sh","l","sw","233","166","259","179","168","212","trueblood","null","null","null","null","null","null","null","null","null","null","null","","180","200","260","200","36000","52000","[2,3]","","",""
"","canvas-keyboard-response","174","107670","0.0-6.0-0.24","538","","","","","pre trial waiting period","null","null","","","catch","sh","l","sw","186","144","232","298","192","185","trueblood","null","null","null","null","null","null","null","null","null","null","null","","180","200","260","200","36000","52000","[1,2]","520.5774462225447","387.85847719088235","488.9613964884325"
"","canvas-keyboard-response","175","107690","0.0-6.0-1.24","538","","","","","clear_screen","null","null","","","catch","sh","l","sw","186","144","232","298","192","185","trueblood","null","null","null","null","null","null","null","null","null","null","null","","180","200","260","200","36000","52000","[1,2]","520.5774462225447","387.85847719088235","488.9613964884325"
"","canvas-keyboard-response","176","108198","0.0-6.0-2.24","538","","","","","rectangles no change","null","null","","","catch","sh","l","sw","186","144","232","298","192","185","trueblood","null","null","null","null","null","null","null","null","null","null","null","","180","200","260","200","36000","52000","[1,2]","520.5774462225447","387.85847719088235","488.9613964884325"
"","canvas-keyboard-response","177","109534","0.0-6.0-3.24","538","","","","","rectangles with change","null","null","","","catch","sh","l","sw","186","144","232","298","192","185","trueblood","null","null","null","null","null","null","null","null","null","null","null","","180","200","260","200","36000","52000","[1,2]","520.5774462225447","387.85847719088235","488.9613964884325"
"","canvas-keyboard-response","178","109552","0.0-6.0-4.24","538","","","","","clear_screen","null","null","","","catch","sh","l","sw","186","144","232","298","192","185","trueblood","null","null","null","null","null","null","null","null","null","null","null","","180","200","260","200","36000","52000","[1,2]","520.5774462225447","387.85847719088235","488.9613964884325"
"","canvas-keyboard-response","179","110096","0.0-6.0-5.24","538","","","","","make choice","533","2","","","catch","sh","l","sw","186","144","232","298","192","185","trueblood","null","null","null","null","null","null","null","null","null","null","null","","180","200","260","200","36000","52000","[1,2]","","",""
"","canvas-keyboard-response","180","110115","0.0-6.0-6.24","538","","","","","clear_screen","null","null","","","catch","sh","l","sw","186","144","232","298","192","185","trueblood","null","null","null","null","null","null","null","null","null","null","null","","180","200","260","200","36000","52000","[1,2]","","",""
"","canvas-keyboard-response","181","110317","0.0-6.0-0.25","538","","","","","pre trial waiting period","null","null","","","critical","c","t","d","240","164","164","240","158.0083","227.1683","trueblood","0.09","h","164","240","240","164","158.0083","227.1683","39360","39360","35894.4834","td","null","null","null","null","null","null","[2,3]","513.4591782468351","441.33267181531033","453.6299396280194"
"","canvas-keyboard-response","182","110336","0.0-6.0-1.25","538","","","","","clear_screen","null","null","","","critical","c","t","d","240","164","164","240","158.0083","227.1683","trueblood","0.09","h","164","240","240","164","158.0083","227.1683","39360","39360","35894.4834","td","null","null","null","null","null","null","[2,3]","513.4591782468351","441.33267181531033","453.6299396280194"
"","canvas-keyboard-response","183","110844","0.0-6.0-2.25","538","","","","","rectangles no change","null","null","","","critical","c","t","d","240","164","164","240","158.0083","227.1683","trueblood","0.09","h","164","240","240","164","158.0083","227.1683","39360","39360","35894.4834","td","null","null","null","null","null","null","[2,3]","513.4591782468351","441.33267181531033","453.6299396280194"
"","canvas-keyboard-response","184","112181","0.0-6.0-3.25","538","","","","","rectangles with change","null","null","","","critical","c","t","d","240","164","164","240","158.0083","227.1683","trueblood","0.09","h","164","240","240","164","158.0083","227.1683","39360","39360","35894.4834","td","null","null","null","null","null","null","[2,3]","513.4591782468351","441.33267181531033","453.6299396280194"
"","canvas-keyboard-response","185","112200","0.0-6.0-4.25","538","","","","","clear_screen","null","null","","","critical","c","t","d","240","164","164","240","158.0083","227.1683","trueblood","0.09","h","164","240","240","164","158.0083","227.1683","39360","39360","35894.4834","td","null","null","null","null","null","null","[2,3]","513.4591782468351","441.33267181531033","453.6299396280194"
"","canvas-keyboard-response","186","112608","0.0-6.0-5.25","538","","","","","make choice","401","2","","","critical","c","t","d","240","164","164","240","158.0083","227.1683","trueblood","0.09","h","164","240","240","164","158.0083","227.1683","39360","39360","35894.4834","td","null","null","null","null","null","null","[2,3]","","",""
"","canvas-keyboard-response","187","112628","0.0-6.0-6.25","538","","","","","clear_screen","null","null","","","critical","c","t","d","240","164","164","240","158.0083","227.1683","trueblood","0.09","h","164","240","240","164","158.0083","227.1683","39360","39360","35894.4834","td","null","null","null","null","null","null","[2,3]","","",""
"","canvas-keyboard-response","188","112830","0.0-6.0-0.26","538","","","","","pre trial waiting period","null","null","","","critical","d","c","t","240","164","164","240","240","164","spektor","0","w","240","164","164","240","240","164","39360","39360","39360","tc","null","null","null","null","null","null","[3,2]","498.8092026059901","130.6012140054106","517.6317530785252"
"","canvas-keyboard-response","189","112852","0.0-6.0-1.26","538","","","","","clear_screen","null","null","","","critical","d","c","t","240","164","164","240","240","164","spektor","0","w","240","164","164","240","240","164","39360","39360","39360","tc","null","null","null","null","null","null","[3,2]","498.8092026059901","130.6012140054106","517.6317530785252"
"","canvas-keyboard-response","190","113360","0.0-6.0-2.26","538","","","","","rectangles no change","null","null","","","critical","d","c","t","240","164","164","240","240","164","spektor","0","w","240","164","164","240","240","164","39360","39360","39360","tc","null","null","null","null","null","null","[3,2]","498.8092026059901","130.6012140054106","517.6317530785252"
"","canvas-keyboard-response","191","114697","0.0-6.0-3.26","538","","","","","rectangles with change","null","null","","","critical","d","c","t","240","164","164","240","240","164","spektor","0","w","240","164","164","240","240","164","39360","39360","39360","tc","null","null","null","null","null","null","[3,2]","498.8092026059901","130.6012140054106","517.6317530785252"
"","canvas-keyboard-response","192","114717","0.0-6.0-4.26","538","","","","","clear_screen","null","null","","","critical","d","c","t","240","164","164","240","240","164","spektor","0","w","240","164","164","240","240","164","39360","39360","39360","tc","null","null","null","null","null","null","[3,2]","498.8092026059901","130.6012140054106","517.6317530785252"
"","canvas-keyboard-response","193","115113","0.0-6.0-5.26","538","","","","","make choice","388","3","","","critical","d","c","t","240","164","164","240","240","164","spektor","0","w","240","164","164","240","240","164","39360","39360","39360","tc","null","null","null","null","null","null","[3,2]","","",""
"","canvas-keyboard-response","194","115131","0.0-6.0-6.26","538","","","","","clear_screen","null","null","","","critical","d","c","t","240","164","164","240","240","164","spektor","0","w","240","164","164","240","240","164","39360","39360","39360","tc","null","null","null","null","null","null","[3,2]","","",""
"","canvas-keyboard-response","195","115332","0.0-6.0-0.27","538","","","","","pre trial waiting period","null","null","","","catch","sw","sh","l","180","200","162","198","223","290","spektor","null","null","null","null","null","null","null","null","null","null","null","","180","200","260","200","36000","52000","[1,3]","510.29226689979896","115.14279388614779","465.5572298885704"
"","canvas-keyboard-response","196","115351","0.0-6.0-1.27","538","","","","","clear_screen","null","null","","","catch","sw","sh","l","180","200","162","198","223","290","spektor","null","null","null","null","null","null","null","null","null","null","null","","180","200","260","200","36000","52000","[1,3]","510.29226689979896","115.14279388614779","465.5572298885704"
"","canvas-keyboard-response","197","115860","0.0-6.0-2.27","538","","","","","rectangles no change","null","null","","","catch","sw","sh","l","180","200","162","198","223","290","spektor","null","null","null","null","null","null","null","null","null","null","null","","180","200","260","200","36000","52000","[1,3]","510.29226689979896","115.14279388614779","465.5572298885704"
"","canvas-keyboard-response","198","117197","0.0-6.0-3.27","538","","","","","rectangles with change","null","null","","","catch","sw","sh","l","180","200","162","198","223","290","spektor","null","null","null","null","null","null","null","null","null","null","null","","180","200","260","200","36000","52000","[1,3]","510.29226689979896","115.14279388614779","465.5572298885704"
"","canvas-keyboard-response","199","117218","0.0-6.0-4.27","538","","","","","clear_screen","null","null","","","catch","sw","sh","l","180","200","162","198","223","290","spektor","null","null","null","null","null","null","null","null","null","null","null","","180","200","260","200","36000","52000","[1,3]","510.29226689979896","115.14279388614779","465.5572298885704"
"","canvas-keyboard-response","200","117713","0.0-6.0-5.27","538","","","","","make choice","485","3","","","catch","sw","sh","l","180","200","162","198","223","290","spektor","null","null","null","null","null","null","null","null","null","null","null","","180","200","260","200","36000","52000","[1,3]","","",""
"","canvas-keyboard-response","201","117731","0.0-6.0-6.27","538","","","","","clear_screen","null","null","","","catch","sw","sh","l","180","200","162","198","223","290","spektor","null","null","null","null","null","null","null","null","null","null","null","","180","200","260","200","36000","52000","[1,3]","","",""
"","canvas-keyboard-response","202","117932","0.0-6.0-0.28","538","","","","","pre trial waiting period","null","null","","","catch","sh","l","sw","205","194","224","204","173","170","spektor","null","null","null","null","null","null","null","null","null","null","null","","180","200","260","200","36000","52000","[1,2]","527.436371282269","169.35379957553513","536.1592450487914"
"","canvas-keyboard-response","203","117951","0.0-6.0-1.28","538","","","","","clear_screen","null","null","","","catch","sh","l","sw","205","194","224","204","173","170","spektor","null","null","null","null","null","null","null","null","null","null","null","","180","200","260","200","36000","52000","[1,2]","527.436371282269","169.35379957553513","536.1592450487914"
"","canvas-keyboard-response","204","118459","0.0-6.0-2.28","538","","","","","rectangles no change","null","null","","","catch","sh","l","sw","205","194","224","204","173","170","spektor","null","null","null","null","null","null","null","null","null","null","null","","180","200","260","200","36000","52000","[1,2]","527.436371282269","169.35379957553513","536.1592450487914"
"","canvas-keyboard-response","205","119796","0.0-6.0-3.28","538","","","","","rectangles with change","null","null","","","catch","sh","l","sw","205","194","224","204","173","170","spektor","null","null","null","null","null","null","null","null","null","null","null","","180","200","260","200","36000","52000","[1,2]","527.436371282269","169.35379957553513","536.1592450487914"
"","canvas-keyboard-response","206","119819","0.0-6.0-4.28","538","","","","","clear_screen","null","null","","","catch","sh","l","sw","205","194","224","204","173","170","spektor","null","null","null","null","null","null","null","null","null","null","null","","180","200","260","200","36000","52000","[1,2]","527.436371282269","169.35379957553513","536.1592450487914"
"","canvas-keyboard-response","207","121905","0.0-6.0-5.28","538","","","","","make choice","2078","2","","","catch","sh","l","sw","205","194","224","204","173","170","spektor","null","null","null","null","null","null","null","null","null","null","null","","180","200","260","200","36000","52000","[1,2]","","",""
"","canvas-keyboard-response","208","121927","0.0-6.0-6.28","538","","","","","clear_screen","null","null","","","catch","sh","l","sw","205","194","224","204","173","170","spektor","null","null","null","null","null","null","null","null","null","null","null","","180","200","260","200","36000","52000","[1,2]","","",""
"","canvas-keyboard-response","209","122128","0.0-6.0-0.29","538","","","","","pre trial waiting period","null","null","","","critical","t","d","c","240","164","220.0396","154.6796","164","240","trueblood","0.14","w","240","164","164","240","220.0396","154.6796","39360","39360","34035.6388","td","null","null","null","null","null","null","[1,2]","488.6970775119842","503.0695892388278","447.2278742454353"
"","canvas-keyboard-response","210","122148","0.0-6.0-1.29","538","","","","","clear_screen","null","null","","","critical","t","d","c","240","164","220.0396","154.6796","164","240","trueblood","0.14","w","240","164","164","240","220.0396","154.6796","39360","39360","34035.6388","td","null","null","null","null","null","null","[1,2]","488.6970775119842","503.0695892388278","447.2278742454353"
"","canvas-keyboard-response","211","122655","0.0-6.0-2.29","538","","","","","rectangles no change","null","null","","","critical","t","d","c","240","164","220.0396","154.6796","164","240","trueblood","0.14","w","240","164","164","240","220.0396","154.6796","39360","39360","34035.6388","td","null","null","null","null","null","null","[1,2]","488.6970775119842","503.0695892388278","447.2278742454353"
"","canvas-keyboard-response","212","123992","0.0-6.0-3.29","538","","","","","rectangles with change","null","null","","","critical","t","d","c","240","164","220.0396","154.6796","164","240","trueblood","0.14","w","240","164","164","240","220.0396","154.6796","39360","39360","34035.6388","td","null","null","null","null","null","null","[1,2]","488.6970775119842","503.0695892388278","447.2278742454353"
"","canvas-keyboard-response","213","124015","0.0-6.0-4.29","538","","","","","clear_screen","null","null","","","critical","t","d","c","240","164","220.0396","154.6796","164","240","trueblood","0.14","w","240","164","164","240","220.0396","154.6796","39360","39360","34035.6388","td","null","null","null","null","null","null","[1,2]","488.6970775119842","503.0695892388278","447.2278742454353"
"","canvas-keyboard-response","214","128065","0.0-6.0-5.29","538","","","","","make choice","4043","1","","","critical","t","d","c","240","164","220.0396","154.6796","164","240","trueblood","0.14","w","240","164","164","240","220.0396","154.6796","39360","39360","34035.6388","td","null","null","null","null","null","null","[1,2]","","",""
"","canvas-keyboard-response","215","128083","0.0-6.0-6.29","538","","","","","clear_screen","null","null","","","critical","t","d","c","240","164","220.0396","154.6796","164","240","trueblood","0.14","w","240","164","164","240","220.0396","154.6796","39360","39360","34035.6388","td","null","null","null","null","null","null","[1,2]","","",""
"","canvas-keyboard-response","216","128283","0.0-6.0-0.30","538","","","","","pre trial waiting period","null","null","","","critical","d","t","c","227.1683","158.0083","240","164","164","240","trueblood","0.09","w","240","164","164","240","227.1683","158.0083","39360","39360","35894.4834","tc","null","null","null","null","null","null","[2,3]","501.83214723482394","513.1477423321603","452.85716557883757"
"","canvas-keyboard-response","217","128304","0.0-6.0-1.30","538","","","","","clear_screen","null","null","","","critical","d","t","c","227.1683","158.0083","240","164","164","240","trueblood","0.09","w","240","164","164","240","227.1683","158.0083","39360","39360","35894.4834","tc","null","null","null","null","null","null","[2,3]","501.83214723482394","513.1477423321603","452.85716557883757"
"","canvas-keyboard-response","218","128810","0.0-6.0-2.30","538","","","","","rectangles no change","null","null","","","critical","d","t","c","227.1683","158.0083","240","164","164","240","trueblood","0.09","w","240","164","164","240","227.1683","158.0083","39360","39360","35894.4834","tc","null","null","null","null","null","null","[2,3]","501.83214723482394","513.1477423321603","452.85716557883757"
"","canvas-keyboard-response","219","130149","0.0-6.0-3.30","538","","","","","rectangles with change","null","null","","","critical","d","t","c","227.1683","158.0083","240","164","164","240","trueblood","0.09","w","240","164","164","240","227.1683","158.0083","39360","39360","35894.4834","tc","null","null","null","null","null","null","[2,3]","501.83214723482394","513.1477423321603","452.85716557883757"
"","canvas-keyboard-response","220","130172","0.0-6.0-4.30","538","","","","","clear_screen","null","null","","","critical","d","t","c","227.1683","158.0083","240","164","164","240","trueblood","0.09","w","240","164","164","240","227.1683","158.0083","39360","39360","35894.4834","tc","null","null","null","null","null","null","[2,3]","501.83214723482394","513.1477423321603","452.85716557883757"
"","canvas-keyboard-response","221","134289","0.0-6.0-5.30","538","","","","","make choice","4110","3","","","critical","d","t","c","227.1683","158.0083","240","164","164","240","trueblood","0.09","w","240","164","164","240","227.1683","158.0083","39360","39360","35894.4834","tc","null","null","null","null","null","null","[2,3]","","",""
"","canvas-keyboard-response","222","134310","0.0-6.0-6.30","538","","","","","clear_screen","null","null","","","critical","d","t","c","227.1683","158.0083","240","164","164","240","trueblood","0.09","w","240","164","164","240","227.1683","158.0083","39360","39360","35894.4834","tc","null","null","null","null","null","null","[2,3]","","",""
"","canvas-keyboard-response","223","134510","0.0-6.0-0.31","538","","","","","pre trial waiting period","null","null","","","critical","c","t","d","240","164","164","240","158.0083","227.1683","trueblood","0.09","h","164","240","240","164","158.0083","227.1683","39360","39360","35894.4834","tc","null","null","null","null","null","null","[2,1]","505.87729891149195","440.2507299536961","474.41155752025657"
"","canvas-keyboard-response","224","134529","0.0-6.0-1.31","538","","","","","clear_screen","null","null","","","critical","c","t","d","240","164","164","240","158.0083","227.1683","trueblood","0.09","h","164","240","240","164","158.0083","227.1683","39360","39360","35894.4834","tc","null","null","null","null","null","null","[2,1]","505.87729891149195","440.2507299536961","474.41155752025657"
"","canvas-keyboard-response","225","135037","0.0-6.0-2.31","538","","","","","rectangles no change","null","null","","","critical","c","t","d","240","164","164","240","158.0083","227.1683","trueblood","0.09","h","164","240","240","164","158.0083","227.1683","39360","39360","35894.4834","tc","null","null","null","null","null","null","[2,1]","505.87729891149195","440.2507299536961","474.41155752025657"
"","canvas-keyboard-response","226","136375","0.0-6.0-3.31","538","","","","","rectangles with change","null","null","","","critical","c","t","d","240","164","164","240","158.0083","227.1683","trueblood","0.09","h","164","240","240","164","158.0083","227.1683","39360","39360","35894.4834","tc","null","null","null","null","null","null","[2,1]","505.87729891149195","440.2507299536961","474.41155752025657"
"","canvas-keyboard-response","227","136396","0.0-6.0-4.31","538","","","","","clear_screen","null","null","","","critical","c","t","d","240","164","164","240","158.0083","227.1683","trueblood","0.09","h","164","240","240","164","158.0083","227.1683","39360","39360","35894.4834","tc","null","null","null","null","null","null","[2,1]","505.87729891149195","440.2507299536961","474.41155752025657"
"","canvas-keyboard-response","228","137159","0.0-6.0-5.31","538","","","","","make choice","759","1","","","critical","c","t","d","240","164","164","240","158.0083","227.1683","trueblood","0.09","h","164","240","240","164","158.0083","227.1683","39360","39360","35894.4834","tc","null","null","null","null","null","null","[2,1]","","",""
"","canvas-keyboard-response","229","137176","0.0-6.0-6.31","538","","","","","clear_screen","null","null","","","critical","c","t","d","240","164","164","240","158.0083","227.1683","trueblood","0.09","h","164","240","240","164","158.0083","227.1683","39360","39360","35894.4834","tc","null","null","null","null","null","null","[2,1]","","",""
"","canvas-keyboard-response","230","137376","0.0-6.0-0.32","538","","","","","pre trial waiting period","null","null","","","critical","d","c","t","154.6796","220.0396","240","164","164","240","spektor","0.14","h","164","240","240","164","154.6796","220.0396","39360","39360","34035.6388","dc","null","null","null","null","null","null","[1,2]","465.1237359421376","172.7416961045522","499.15814361447804"
"","canvas-keyboard-response","231","137400","0.0-6.0-1.32","538","","","","","clear_screen","null","null","","","critical","d","c","t","154.6796","220.0396","240","164","164","240","spektor","0.14","h","164","240","240","164","154.6796","220.0396","39360","39360","34035.6388","dc","null","null","null","null","null","null","[1,2]","465.1237359421376","172.7416961045522","499.15814361447804"
"","canvas-keyboard-response","232","137908","0.0-6.0-2.32","538","","","","","rectangles no change","null","null","","","critical","d","c","t","154.6796","220.0396","240","164","164","240","spektor","0.14","h","164","240","240","164","154.6796","220.0396","39360","39360","34035.6388","dc","null","null","null","null","null","null","[1,2]","465.1237359421376","172.7416961045522","499.15814361447804"
"","canvas-keyboard-response","233","139243","0.0-6.0-3.32","538","","","","","rectangles with change","null","null","","","critical","d","c","t","154.6796","220.0396","240","164","164","240","spektor","0.14","h","164","240","240","164","154.6796","220.0396","39360","39360","34035.6388","dc","null","null","null","null","null","null","[1,2]","465.1237359421376","172.7416961045522","499.15814361447804"
"","canvas-keyboard-response","234","139266","0.0-6.0-4.32","538","","","","","clear_screen","null","null","","","critical","d","c","t","154.6796","220.0396","240","164","164","240","spektor","0.14","h","164","240","240","164","154.6796","220.0396","39360","39360","34035.6388","dc","null","null","null","null","null","null","[1,2]","465.1237359421376","172.7416961045522","499.15814361447804"
"","canvas-keyboard-response","235","139713","0.0-6.0-5.32","538","","","","","make choice","441","2","","","critical","d","c","t","154.6796","220.0396","240","164","164","240","spektor","0.14","h","164","240","240","164","154.6796","220.0396","39360","39360","34035.6388","dc","null","null","null","null","null","null","[1,2]","","",""
"","canvas-keyboard-response","236","139732","0.0-6.0-6.32","538","","","","","clear_screen","null","null","","","critical","d","c","t","154.6796","220.0396","240","164","164","240","spektor","0.14","h","164","240","240","164","154.6796","220.0396","39360","39360","34035.6388","dc","null","null","null","null","null","null","[1,2]","","",""
"","canvas-keyboard-response","237","139933","0.0-6.0-0.33","538","","","","","pre trial waiting period","null","null","","","catch","sw","sh","l","180","200","232","195","229","290","spektor","null","null","null","null","null","null","null","null","null","null","null","","180","200","260","200","36000","52000","[1,3]","489.2454939840358","152.42028231310348","475.19844884671426"
"","canvas-keyboard-response","238","139954","0.0-6.0-1.33","538","","","","","clear_screen","null","null","","","catch","sw","sh","l","180","200","232","195","229","290","spektor","null","null","null","null","null","null","null","null","null","null","null","","180","200","260","200","36000","52000","[1,3]","489.2454939840358","152.42028231310348","475.19844884671426"
"","canvas-keyboard-response","239","140463","0.0-6.0-2.33","538","","","","","rectangles no change","null","null","","","catch","sw","sh","l","180","200","232","195","229","290","spektor","null","null","null","null","null","null","null","null","null","null","null","","180","200","260","200","36000","52000","[1,3]","489.2454939840358","152.42028231310348","475.19844884671426"
"","canvas-keyboard-response","240","141802","0.0-6.0-3.33","538","","","","","rectangles with change","null","null","","","catch","sw","sh","l","180","200","232","195","229","290","spektor","null","null","null","null","null","null","null","null","null","null","null","","180","200","260","200","36000","52000","[1,3]","489.2454939840358","152.42028231310348","475.19844884671426"
"","canvas-keyboard-response","241","141821","0.0-6.0-4.33","538","","","","","clear_screen","null","null","","","catch","sw","sh","l","180","200","232","195","229","290","spektor","null","null","null","null","null","null","null","null","null","null","null","","180","200","260","200","36000","52000","[1,3]","489.2454939840358","152.42028231310348","475.19844884671426"
"","canvas-keyboard-response","242","142322","0.0-6.0-5.33","538","","","","","make choice","488","3","","","catch","sw","sh","l","180","200","232","195","229","290","spektor","null","null","null","null","null","null","null","null","null","null","null","","180","200","260","200","36000","52000","[1,3]","","",""
"","canvas-keyboard-response","243","142340","0.0-6.0-6.33","538","","","","","clear_screen","null","null","","","catch","sw","sh","l","180","200","232","195","229","290","spektor","null","null","null","null","null","null","null","null","null","null","null","","180","200","260","200","36000","52000","[1,3]","","",""
"","canvas-keyboard-response","244","142541","0.0-6.0-0.34","538","","","","","pre trial waiting period","null","null","","","catch","l","sw","sh","218","250","199","222","173","170","trueblood","null","null","null","null","null","null","null","null","null","null","null","","180","200","260","200","36000","52000","[1,2]","428.85508064748853","445.5296945713792","505.8890006482647"
"","canvas-keyboard-response","245","142562","0.0-6.0-1.34","538","","","","","clear_screen","null","null","","","catch","l","sw","sh","218","250","199","222","173","170","trueblood","null","null","null","null","null","null","null","null","null","null","null","","180","200","260","200","36000","52000","[1,2]","428.85508064748853","445.5296945713792","505.8890006482647"
"","canvas-keyboard-response","246","143069","0.0-6.0-2.34","538","","","","","rectangles no change","null","null","","","catch","l","sw","sh","218","250","199","222","173","170","trueblood","null","null","null","null","null","null","null","null","null","null","null","","180","200","260","200","36000","52000","[1,2]","428.85508064748853","445.5296945713792","505.8890006482647"
"","canvas-keyboard-response","247","144405","0.0-6.0-3.34","538","","","","","rectangles with change","null","null","","","catch","l","sw","sh","218","250","199","222","173","170","trueblood","null","null","null","null","null","null","null","null","null","null","null","","180","200","260","200","36000","52000","[1,2]","428.85508064748853","445.5296945713792","505.8890006482647"
"","canvas-keyboard-response","248","144424","0.0-6.0-4.34","538","","","","","clear_screen","null","null","","","catch","l","sw","sh","218","250","199","222","173","170","trueblood","null","null","null","null","null","null","null","null","null","null","null","","180","200","260","200","36000","52000","[1,2]","428.85508064748853","445.5296945713792","505.8890006482647"
"","canvas-keyboard-response","249","146330","0.0-6.0-5.34","538","","","","","make choice","1897","1","","","catch","l","sw","sh","218","250","199","222","173","170","trueblood","null","null","null","null","null","null","null","null","null","null","null","","180","200","260","200","36000","52000","[1,2]","","",""
"","canvas-keyboard-response","250","146348","0.0-6.0-6.34","538","","","","","clear_screen","null","null","","","catch","l","sw","sh","218","250","199","222","173","170","trueblood","null","null","null","null","null","null","null","null","null","null","null","","180","200","260","200","36000","52000","[1,2]","","",""
"","canvas-keyboard-response","251","146549","0.0-6.0-0.35","538","","","","","pre trial waiting period","null","null","","","critical","d","t","c","232.8713","160.6713","240","164","164","240","trueblood","0.05","w","240","164","164","240","232.8713","160.6713","39360","39360","37415.7294","td","null","null","null","null","null","null","[2,1]","477.6552559023486","470.2171646182477","465.5159939654221"
"","canvas-keyboard-response","252","146569","0.0-6.0-1.35","538","","","","","clear_screen","null","null","","","critical","d","t","c","232.8713","160.6713","240","164","164","240","trueblood","0.05","w","240","164","164","240","232.8713","160.6713","39360","39360","37415.7294","td","null","null","null","null","null","null","[2,1]","477.6552559023486","470.2171646182477","465.5159939654221"
"","canvas-keyboard-response","253","147076","0.0-6.0-2.35","538","","","","","rectangles no change","null","null","","","critical","d","t","c","232.8713","160.6713","240","164","164","240","trueblood","0.05","w","240","164","164","240","232.8713","160.6713","39360","39360","37415.7294","td","null","null","null","null","null","null","[2,1]","477.6552559023486","470.2171646182477","465.5159939654221"
"","canvas-keyboard-response","254","148416","0.0-6.0-3.35","538","","","","","rectangles with change","null","null","","","critical","d","t","c","232.8713","160.6713","240","164","164","240","trueblood","0.05","w","240","164","164","240","232.8713","160.6713","39360","39360","37415.7294","td","null","null","null","null","null","null","[2,1]","477.6552559023486","470.2171646182477","465.5159939654221"
"","canvas-keyboard-response","255","148435","0.0-6.0-4.35","538","","","","","clear_screen","null","null","","","critical","d","t","c","232.8713","160.6713","240","164","164","240","trueblood","0.05","w","240","164","164","240","232.8713","160.6713","39360","39360","37415.7294","td","null","null","null","null","null","null","[2,1]","477.6552559023486","470.2171646182477","465.5159939654221"
"","canvas-keyboard-response","256","148561","0.0-6.0-5.35","538","","","","","make choice","119","2","","","critical","d","t","c","232.8713","160.6713","240","164","164","240","trueblood","0.05","w","240","164","164","240","232.8713","160.6713","39360","39360","37415.7294","td","null","null","null","null","null","null","[2,1]","","",""
"","canvas-keyboard-response","257","148580","0.0-6.0-6.35","538","","","","","clear_screen","null","null","","","critical","d","t","c","232.8713","160.6713","240","164","164","240","trueblood","0.05","w","240","164","164","240","232.8713","160.6713","39360","39360","37415.7294","td","null","null","null","null","null","null","[2,1]","","",""
"","canvas-keyboard-response","258","148782","0.0-6.0-0.36","538","","","","","pre trial waiting period","null","null","","","critical","d","t","c","232.8713","160.6713","240","164","164","240","spektor","0.05","w","240","164","164","240","232.8713","160.6713","39360","39360","37415.7294","dc","null","null","null","null","null","null","[1,3]","505.83157145406784","179.64173923934612","497.017862047016"
"","canvas-keyboard-response","259","148802","0.0-6.0-1.36","538","","","","","clear_screen","null","null","","","critical","d","t","c","232.8713","160.6713","240","164","164","240","spektor","0.05","w","240","164","164","240","232.8713","160.6713","39360","39360","37415.7294","dc","null","null","null","null","null","null","[1,3]","505.83157145406784","179.64173923934612","497.017862047016"
"","canvas-keyboard-response","260","149311","0.0-6.0-2.36","538","","","","","rectangles no change","null","null","","","critical","d","t","c","232.8713","160.6713","240","164","164","240","spektor","0.05","w","240","164","164","240","232.8713","160.6713","39360","39360","37415.7294","dc","null","null","null","null","null","null","[1,3]","505.83157145406784","179.64173923934612","497.017862047016"
"","canvas-keyboard-response","261","150648","0.0-6.0-3.36","538","","","","","rectangles with change","null","null","","","critical","d","t","c","232.8713","160.6713","240","164","164","240","spektor","0.05","w","240","164","164","240","232.8713","160.6713","39360","39360","37415.7294","dc","null","null","null","null","null","null","[1,3]","505.83157145406784","179.64173923934612","497.017862047016"
"","canvas-keyboard-response","262","150663","0.0-6.0-4.36","538","","","","","clear_screen","null","null","","","critical","d","t","c","232.8713","160.6713","240","164","164","240","spektor","0.05","w","240","164","164","240","232.8713","160.6713","39360","39360","37415.7294","dc","null","null","null","null","null","null","[1,3]","505.83157145406784","179.64173923934612","497.017862047016"
"","canvas-keyboard-response","263","151688","0.0-6.0-5.36","538","","","","","make choice","1017","3","","","critical","d","t","c","232.8713","160.6713","240","164","164","240","spektor","0.05","w","240","164","164","240","232.8713","160.6713","39360","39360","37415.7294","dc","null","null","null","null","null","null","[1,3]","","",""
"","canvas-keyboard-response","264","151704","0.0-6.0-6.36","538","","","","","clear_screen","null","null","","","critical","d","t","c","232.8713","160.6713","240","164","164","240","spektor","0.05","w","240","164","164","240","232.8713","160.6713","39360","39360","37415.7294","dc","null","null","null","null","null","null","[1,3]","","",""
"","canvas-keyboard-response","265","151906","0.0-6.0-0.37","538","","","","","pre trial waiting period","null","null","","","critical","t","d","c","164","240","154.6796","220.0396","240","164","trueblood","0.14","h","164","240","240","164","154.6796","220.0396","39360","39360","34035.6388","tc","null","null","null","null","null","null","[1,3]","432.8235461220774","440.1895564849608","468.67494833590723"
"","canvas-keyboard-response","266","151928","0.0-6.0-1.37","538","","","","","clear_screen","null","null","","","critical","t","d","c","164","240","154.6796","220.0396","240","164","trueblood","0.14","h","164","240","240","164","154.6796","220.0396","39360","39360","34035.6388","tc","null","null","null","null","null","null","[1,3]","432.8235461220774","440.1895564849608","468.67494833590723"
"","canvas-keyboard-response","267","152436","0.0-6.0-2.37","538","","","","","rectangles no change","null","null","","","critical","t","d","c","164","240","154.6796","220.0396","240","164","trueblood","0.14","h","164","240","240","164","154.6796","220.0396","39360","39360","34035.6388","tc","null","null","null","null","null","null","[1,3]","432.8235461220774","440.1895564849608","468.67494833590723"
