"success","trial_type","trial_index","time_elapsed","internal_node_id","sub_n","timeout","failed_images","failed_audio","failed_video","screen_id","rt","response","stimulus","view_history","trial","r1","r2","r3","w1","h1","w2","h2","w3","h3","display","tdd","tdo","tw","th","cw","ch","dw","dh","ta","ca","da","probe","csls","csss","clls","clss","sa","la","probe_rects","r1yloc","r2yloc","r3yloc"
"true","fullscreen","0","4165","0.0-0.0","565","","","","","","","","","","","","","","","","","","","","","","","","","","","","","","","","","","","","","","","","","",""
"true","preload","1","4181","0.0-1.0","565","false","[]","[]","[]","img preload","","","","","","","","","","","","","","","","","","","","","","","","","","","","","","","","","","","","",""
"","survey-html-form","2","7645","0.0-2.0","565","","","","","enter-sub-number","3457","{""response"":""565""}","","","","","","","","","","","","","","","","","","","","","","","","","","","","","","","","","","",""
"","image-button-response","3","69622","0.0-3.0","565","","","","","","61906","0","consent.png","","","","","","","","","","","","","","","","","","","","","","","","","","","","","","","","","",""
"","html-button-response","4","75910","0.0-4.0","565","","","","","intro mssg","6281","0","<div style= ""font-size:25px;"" <p> <strong> Welcome! </strong><br> <p style=""color:#8B0000; font-size:25px;""><strong> Please do NOT exit full screen until you are done with the experiment. </strong> </p><p style=""font-size:25px;color:#8B0000;""> <strong> Your data will be lost <br> if you try to go back or refresh the page after the experiment starts. Feel free to click ""previous"" during the instructions, however.</strong> </p><br><p> <strong> Thanks in advance for your contribution to our research! </strong></p>","","","","","","","","","","","","","","","","","","","","","","","","","","","","","","","","","",""
"","instructions","5","123412","0.0-5.0","565","","","","","instructions","47498","","","[{""page_index"":0,""viewing_time"":9681},{""page_index"":1,""viewing_time"":3927},{""page_index"":2,""viewing_time"":2024},{""page_index"":3,""viewing_time"":15489},{""page_index"":4,""viewing_time"":9648},{""page_index"":5,""viewing_time"":3664},{""page_index"":6,""viewing_time"":2096},{""page_index"":7,""viewing_time"":967}]","","","","","","","","","","","","","","","","","","","","","","","","","","","","","","","","",""
"","canvas-keyboard-response","6","123619","0.0-6.0-0.0","565","","","","","pre trial waiting period","null","null","","","critical","t","d","c","164","240","162.6685","237.1485","240","164","spektor","0.02","h","164","240","240","164","162.6685","237.1485","39360","39360","38576.5967","td","null","null","null","null","null","null","[1,2]","504.19557805091466","116.10463703458424","538.3436924539194"
"","canvas-keyboard-response","7","123643","0.0-6.0-1.0","565","","","","","clear_screen","null","null","","","critical","t","d","c","164","240","162.6685","237.1485","240","164","spektor","0.02","h","164","240","240","164","162.6685","237.1485","39360","39360","38576.5967","td","null","null","null","null","null","null","[1,2]","504.19557805091466","116.10463703458424","538.3436924539194"
"","canvas-keyboard-response","8","124154","0.0-6.0-2.0","565","","","","","rectangles no change","null","null","","","critical","t","d","c","164","240","162.6685","237.1485","240","164","spektor","0.02","h","164","240","240","164","162.6685","237.1485","39360","39360","38576.5967","td","null","null","null","null","null","null","[1,2]","504.19557805091466","116.10463703458424","538.3436924539194"
"","canvas-keyboard-response","9","125490","0.0-6.0-3.0","565","","","","","rectangles with change","null","null","","","critical","t","d","c","164","240","162.6685","237.1485","240","164","spektor","0.02","h","164","240","240","164","162.6685","237.1485","39360","39360","38576.5967","td","null","null","null","null","null","null","[1,2]","504.19557805091466","116.10463703458424","538.3436924539194"
"","canvas-keyboard-response","10","125510","0.0-6.0-4.0","565","","","","","clear_screen","null","null","","","critical","t","d","c","164","240","162.6685","237.1485","240","164","spektor","0.02","h","164","240","240","164","162.6685","237.1485","39360","39360","38576.5967","td","null","null","null","null","null","null","[1,2]","504.19557805091466","116.10463703458424","538.3436924539194"
"","canvas-keyboard-response","11","127695","0.0-6.0-5.0","565","","","","","make choice","2176","1","","","critical","t","d","c","164","240","162.6685","237.1485","240","164","spektor","0.02","h","164","240","240","164","162.6685","237.1485","39360","39360","38576.5967","td","null","null","null","null","null","null","[1,2]","","",""
"","canvas-keyboard-response","12","127716","0.0-6.0-6.0","565","","","","","clear_screen","null","null","","","critical","t","d","c","164","240","162.6685","237.1485","240","164","spektor","0.02","h","164","240","240","164","162.6685","237.1485","39360","39360","38576.5967","td","null","null","null","null","null","null","[1,2]","","",""
"","canvas-keyboard-response","13","127918","0.0-6.0-0.1","565","","","","","pre trial waiting period","null","null","","","critical","t","c","d","240","164","164","240","232.8713","160.6713","spektor","0.05","w","240","164","164","240","232.8713","160.6713","39360","39360","37415.7294","td","null","null","null","null","null","null","[1,3]","516.5327455943453","136.0925793718768","500.89469637499815"
"","canvas-keyboard-response","14","127937","0.0-6.0-1.1","565","","","","","clear_screen","null","null","","","critical","t","c","d","240","164","164","240","232.8713","160.6713","spektor","0.05","w","240","164","164","240","232.8713","160.6713","39360","39360","37415.7294","td","null","null","null","null","null","null","[1,3]","516.5327455943453","136.0925793718768","500.89469637499815"
"","canvas-keyboard-response","15","128446","0.0-6.0-2.1","565","","","","","rectangles no change","null","null","","","critical","t","c","d","240","164","164","240","232.8713","160.6713","spektor","0.05","w","240","164","164","240","232.8713","160.6713","39360","39360","37415.7294","td","null","null","null","null","null","null","[1,3]","516.5327455943453","136.0925793718768","500.89469637499815"
"","canvas-keyboard-response","16","129782","0.0-6.0-3.1","565","","","","","rectangles with change","null","null","","","critical","t","c","d","240","164","164","240","232.8713","160.6713","spektor","0.05","w","240","164","164","240","232.8713","160.6713","39360","39360","37415.7294","td","null","null","null","null","null","null","[1,3]","516.5327455943453","136.0925793718768","500.89469637499815"
"","canvas-keyboard-response","17","129803","0.0-6.0-4.1","565","","","","","clear_screen","null","null","","","critical","t","c","d","240","164","164","240","232.8713","160.6713","spektor","0.05","w","240","164","164","240","232.8713","160.6713","39360","39360","37415.7294","td","null","null","null","null","null","null","[1,3]","516.5327455943453","136.0925793718768","500.89469637499815"
"","canvas-keyboard-response","18","130184","0.0-6.0-5.1","565","","","","","make choice","369","3","","","critical","t","c","d","240","164","164","240","232.8713","160.6713","spektor","0.05","w","240","164","164","240","232.8713","160.6713","39360","39360","37415.7294","td","null","null","null","null","null","null","[1,3]","","",""
"","canvas-keyboard-response","19","130206","0.0-6.0-6.1","565","","","","","clear_screen","null","null","","","critical","t","c","d","240","164","164","240","232.8713","160.6713","spektor","0.05","w","240","164","164","240","232.8713","160.6713","39360","39360","37415.7294","td","null","null","null","null","null","null","[1,3]","","",""
"","canvas-keyboard-response","20","130407","0.0-6.0-0.2","565","","","","","pre trial waiting period","null","null","","","catch","l","sw","sh","232","184","165","203","219","201","trueblood","null","null","null","null","null","null","null","null","null","null","null","","180","200","260","200","36000","52000","[1,3]","494.3986678818931","490.39106117581787","477.4429934744603"
"","canvas-keyboard-response","21","130429","0.0-6.0-1.2","565","","","","","clear_screen","null","null","","","catch","l","sw","sh","232","184","165","203","219","201","trueblood","null","null","null","null","null","null","null","null","null","null","null","","180","200","260","200","36000","52000","[1,3]","494.3986678818931","490.39106117581787","477.4429934744603"
"","canvas-keyboard-response","22","130937","0.0-6.0-2.2","565","","","","","rectangles no change","null","null","","","catch","l","sw","sh","232","184","165","203","219","201","trueblood","null","null","null","null","null","null","null","null","null","null","null","","180","200","260","200","36000","52000","[1,3]","494.3986678818931","490.39106117581787","477.4429934744603"
"","canvas-keyboard-response","23","132278","0.0-6.0-3.2","565","","","","","rectangles with change","null","null","","","catch","l","sw","sh","232","184","165","203","219","201","trueblood","null","null","null","null","null","null","null","null","null","null","null","","180","200","260","200","36000","52000","[1,3]","494.3986678818931","490.39106117581787","477.4429934744603"
"","canvas-keyboard-response","24","132299","0.0-6.0-4.2","565","","","","","clear_screen","null","null","","","catch","l","sw","sh","232","184","165","203","219","201","trueblood","null","null","null","null","null","null","null","null","null","null","null","","180","200","260","200","36000","52000","[1,3]","494.3986678818931","490.39106117581787","477.4429934744603"
"","canvas-keyboard-response","25","132559","0.0-6.0-5.2","565","","","","","make choice","255","1","","","catch","l","sw","sh","232","184","165","203","219","201","trueblood","null","null","null","null","null","null","null","null","null","null","null","","180","200","260","200","36000","52000","[1,3]","","",""
"","canvas-keyboard-response","26","132580","0.0-6.0-6.2","565","","","","","clear_screen","null","null","","","catch","l","sw","sh","232","184","165","203","219","201","trueblood","null","null","null","null","null","null","null","null","null","null","null","","180","200","260","200","36000","52000","[1,3]","","",""
"","canvas-keyboard-response","27","132781","0.0-6.0-0.3","565","","","","","pre trial waiting period","null","null","","","critical","c","d","t","164","240","227.1683","158.0083","240","164","spektor","0.09","w","240","164","164","240","227.1683","158.0083","39360","39360","35894.4834","dc","null","null","null","null","null","null","[2,1]","478.55175292029384","175.79626446682565","502.737321641863"
"","canvas-keyboard-response","28","132803","0.0-6.0-1.3","565","","","","","clear_screen","null","null","","","critical","c","d","t","164","240","227.1683","158.0083","240","164","spektor","0.09","w","240","164","164","240","227.1683","158.0083","39360","39360","35894.4834","dc","null","null","null","null","null","null","[2,1]","478.55175292029384","175.79626446682565","502.737321641863"
"","canvas-keyboard-response","29","133312","0.0-6.0-2.3","565","","","","","rectangles no change","null","null","","","critical","c","d","t","164","240","227.1683","158.0083","240","164","spektor","0.09","w","240","164","164","240","227.1683","158.0083","39360","39360","35894.4834","dc","null","null","null","null","null","null","[2,1]","478.55175292029384","175.79626446682565","502.737321641863"
"","canvas-keyboard-response","30","134654","0.0-6.0-3.3","565","","","","","rectangles with change","null","null","","","critical","c","d","t","164","240","227.1683","158.0083","240","164","spektor","0.09","w","240","164","164","240","227.1683","158.0083","39360","39360","35894.4834","dc","null","null","null","null","null","null","[2,1]","478.55175292029384","175.79626446682565","502.737321641863"
"","canvas-keyboard-response","31","134669","0.0-6.0-4.3","565","","","","","clear_screen","6","1","","","critical","c","d","t","164","240","227.1683","158.0083","240","164","spektor","0.09","w","240","164","164","240","227.1683","158.0083","39360","39360","35894.4834","dc","null","null","null","null","null","null","[2,1]","478.55175292029384","175.79626446682565","502.737321641863"
"","canvas-keyboard-response","32","136751","0.0-6.0-5.3","565","","","","","make choice","2075","1","","","critical","c","d","t","164","240","227.1683","158.0083","240","164","spektor","0.09","w","240","164","164","240","227.1683","158.0083","39360","39360","35894.4834","dc","null","null","null","null","null","null","[2,1]","","",""
"","canvas-keyboard-response","33","136774","0.0-6.0-6.3","565","","","","","clear_screen","null","null","","","critical","c","d","t","164","240","227.1683","158.0083","240","164","spektor","0.09","w","240","164","164","240","227.1683","158.0083","39360","39360","35894.4834","dc","null","null","null","null","null","null","[2,1]","","",""
"","canvas-keyboard-response","34","136975","0.0-6.0-0.4","565","","","","","pre trial waiting period","null","null","","","critical","c","t","d","240","164","164","240","162.6685","237.1485","spektor","0.02","h","164","240","240","164","162.6685","237.1485","39360","39360","38576.5967","tc","null","null","null","null","null","null","[2,1]","540.5551594678218","95.50023563481578","490.4418219230265"
"","canvas-keyboard-response","35","136999","0.0-6.0-1.4","565","","","","","clear_screen","null","null","","","critical","c","t","d","240","164","164","240","162.6685","237.1485","spektor","0.02","h","164","240","240","164","162.6685","237.1485","39360","39360","38576.5967","tc","null","null","null","null","null","null","[2,1]","540.5551594678218","95.50023563481578","490.4418219230265"
"","canvas-keyboard-response","36","137506","0.0-6.0-2.4","565","","","","","rectangles no change","null","null","","","critical","c","t","d","240","164","164","240","162.6685","237.1485","spektor","0.02","h","164","240","240","164","162.6685","237.1485","39360","39360","38576.5967","tc","null","null","null","null","null","null","[2,1]","540.5551594678218","95.50023563481578","490.4418219230265"
"","canvas-keyboard-response","37","138843","0.0-6.0-3.4","565","","","","","rectangles with change","null","null","","","critical","c","t","d","240","164","164","240","162.6685","237.1485","spektor","0.02","h","164","240","240","164","162.6685","237.1485","39360","39360","38576.5967","tc","null","null","null","null","null","null","[2,1]","540.5551594678218","95.50023563481578","490.4418219230265"
"","canvas-keyboard-response","38","138862","0.0-6.0-4.4","565","","","","","clear_screen","null","null","","","critical","c","t","d","240","164","164","240","162.6685","237.1485","spektor","0.02","h","164","240","240","164","162.6685","237.1485","39360","39360","38576.5967","tc","null","null","null","null","null","null","[2,1]","540.5551594678218","95.50023563481578","490.4418219230265"
"","canvas-keyboard-response","39","139320","0.0-6.0-5.4","565","","","","","make choice","450","1","","","critical","c","t","d","240","164","164","240","162.6685","237.1485","spektor","0.02","h","164","240","240","164","162.6685","237.1485","39360","39360","38576.5967","tc","null","null","null","null","null","null","[2,1]","","",""
"","canvas-keyboard-response","40","139343","0.0-6.0-6.4","565","","","","","clear_screen","null","null","","","critical","c","t","d","240","164","164","240","162.6685","237.1485","spektor","0.02","h","164","240","240","164","162.6685","237.1485","39360","39360","38576.5967","tc","null","null","null","null","null","null","[2,1]","","",""
"","canvas-keyboard-response","41","139544","0.0-6.0-0.5","565","","","","","pre trial waiting period","null","null","","","critical","d","t","c","240","164","240","164","164","240","spektor","0","w","240","164","164","240","240","164","39360","39360","39360","tc","null","null","null","null","null","null","[2,3]","533.3870199606697","207.5040318305052","488.08973071208686"
"","canvas-keyboard-response","42","139565","0.0-6.0-1.5","565","","","","","clear_screen","null","null","","","critical","d","t","c","240","164","240","164","164","240","spektor","0","w","240","164","164","240","240","164","39360","39360","39360","tc","null","null","null","null","null","null","[2,3]","533.3870199606697","207.5040318305052","488.08973071208686"
"","canvas-keyboard-response","43","140073","0.0-6.0-2.5","565","","","","","rectangles no change","null","null","","","critical","d","t","c","240","164","240","164","164","240","spektor","0","w","240","164","164","240","240","164","39360","39360","39360","tc","null","null","null","null","null","null","[2,3]","533.3870199606697","207.5040318305052","488.08973071208686"
"","canvas-keyboard-response","44","141412","0.0-6.0-3.5","565","","","","","rectangles with change","null","null","","","critical","d","t","c","240","164","240","164","164","240","spektor","0","w","240","164","164","240","240","164","39360","39360","39360","tc","null","null","null","null","null","null","[2,3]","533.3870199606697","207.5040318305052","488.08973071208686"
"","canvas-keyboard-response","45","141433","0.0-6.0-4.5","565","","","","","clear_screen","null","null","","","critical","d","t","c","240","164","240","164","164","240","spektor","0","w","240","164","164","240","240","164","39360","39360","39360","tc","null","null","null","null","null","null","[2,3]","533.3870199606697","207.5040318305052","488.08973071208686"
"","canvas-keyboard-response","46","141559","0.0-6.0-5.5","565","","","","","make choice","120","3","","","critical","d","t","c","240","164","240","164","164","240","spektor","0","w","240","164","164","240","240","164","39360","39360","39360","tc","null","null","null","null","null","null","[2,3]","","",""
"","canvas-keyboard-response","47","141581","0.0-6.0-6.5","565","","","","","clear_screen","null","null","","","critical","d","t","c","240","164","240","164","164","240","spektor","0","w","240","164","164","240","240","164","39360","39360","39360","tc","null","null","null","null","null","null","[2,3]","","",""
"","canvas-keyboard-response","48","141782","0.0-6.0-0.6","565","","","","","pre trial waiting period","null","null","","","critical","t","d","c","240","164","240","164","164","240","trueblood","0","w","240","164","164","240","240","164","39360","39360","39360","tc","null","null","null","null","null","null","[1,3]","483.31786148612497","483.42506265003277","458.8960584436197"
"","canvas-keyboard-response","49","141806","0.0-6.0-1.6","565","","","","","clear_screen","null","null","","","critical","t","d","c","240","164","240","164","164","240","trueblood","0","w","240","164","164","240","240","164","39360","39360","39360","tc","null","null","null","null","null","null","[1,3]","483.31786148612497","483.42506265003277","458.8960584436197"
"","canvas-keyboard-response","50","142314","0.0-6.0-2.6","565","","","","","rectangles no change","null","null","","","critical","t","d","c","240","164","240","164","164","240","trueblood","0","w","240","164","164","240","240","164","39360","39360","39360","tc","null","null","null","null","null","null","[1,3]","483.31786148612497","483.42506265003277","458.8960584436197"
"","canvas-keyboard-response","51","143650","0.0-6.0-3.6","565","","","","","rectangles with change","null","null","","","critical","t","d","c","240","164","240","164","164","240","trueblood","0","w","240","164","164","240","240","164","39360","39360","39360","tc","null","null","null","null","null","null","[1,3]","483.31786148612497","483.42506265003277","458.8960584436197"
"","canvas-keyboard-response","52","143670","0.0-6.0-4.6","565","","","","","clear_screen","null","null","","","critical","t","d","c","240","164","240","164","164","240","trueblood","0","w","240","164","164","240","240","164","39360","39360","39360","tc","null","null","null","null","null","null","[1,3]","483.31786148612497","483.42506265003277","458.8960584436197"
"","canvas-keyboard-response","53","145248","0.0-6.0-5.6","565","","","","","make choice","1572","3","","","critical","t","d","c","240","164","240","164","164","240","trueblood","0","w","240","164","164","240","240","164","39360","39360","39360","tc","null","null","null","null","null","null","[1,3]","","",""
"","canvas-keyboard-response","54","145268","0.0-6.0-6.6","565","","","","","clear_screen","null","null","","","critical","t","d","c","240","164","240","164","164","240","trueblood","0","w","240","164","164","240","240","164","39360","39360","39360","tc","null","null","null","null","null","null","[1,3]","","",""
"","canvas-keyboard-response","55","145469","0.0-6.0-0.7","565","","","","","pre trial waiting period","null","null","","","critical","d","t","c","232.8713","160.6713","240","164","164","240","trueblood","0.05","w","240","164","164","240","232.8713","160.6713","39360","39360","37415.7294","td","null","null","null","null","null","null","[2,1]","519.0608792244892","515.9903218326822","464.7476789224125"
"","canvas-keyboard-response","56","145489","0.0-6.0-1.7","565","","","","","clear_screen","null","null","","","critical","d","t","c","232.8713","160.6713","240","164","164","240","trueblood","0.05","w","240","164","164","240","232.8713","160.6713","39360","39360","37415.7294","td","null","null","null","null","null","null","[2,1]","519.0608792244892","515.9903218326822","464.7476789224125"
"","canvas-keyboard-response","57","146001","0.0-6.0-2.7","565","","","","","rectangles no change","null","null","","","critical","d","t","c","232.8713","160.6713","240","164","164","240","trueblood","0.05","w","240","164","164","240","232.8713","160.6713","39360","39360","37415.7294","td","null","null","null","null","null","null","[2,1]","519.0608792244892","515.9903218326822","464.7476789224125"
"","canvas-keyboard-response","58","147341","0.0-6.0-3.7","565","","","","","rectangles with change","null","null","","","critical","d","t","c","232.8713","160.6713","240","164","164","240","trueblood","0.05","w","240","164","164","240","232.8713","160.6713","39360","39360","37415.7294","td","null","null","null","null","null","null","[2,1]","519.0608792244892","515.9903218326822","464.7476789224125"
"","canvas-keyboard-response","59","147360","0.0-6.0-4.7","565","","","","","clear_screen","null","null","","","critical","d","t","c","232.8713","160.6713","240","164","164","240","trueblood","0.05","w","240","164","164","240","232.8713","160.6713","39360","39360","37415.7294","td","null","null","null","null","null","null","[2,1]","519.0608792244892","515.9903218326822","464.7476789224125"
"","canvas-keyboard-response","60","148079","0.0-6.0-5.7","565","","","","","make choice","713","2","","","critical","d","t","c","232.8713","160.6713","240","164","164","240","trueblood","0.05","w","240","164","164","240","232.8713","160.6713","39360","39360","37415.7294","td","null","null","null","null","null","null","[2,1]","","",""
"","canvas-keyboard-response","61","148099","0.0-6.0-6.7","565","","","","","clear_screen","null","null","","","critical","d","t","c","232.8713","160.6713","240","164","164","240","trueblood","0.05","w","240","164","164","240","232.8713","160.6713","39360","39360","37415.7294","td","null","null","null","null","null","null","[2,1]","","",""
"","canvas-keyboard-response","62","148300","0.0-6.0-0.8","565","","","","","pre trial waiting period","null","null","","","critical","t","d","c","164","240","158.0083","227.1683","240","164","spektor","0.09","h","164","240","240","164","158.0083","227.1683","39360","39360","35894.4834","tc","null","null","null","null","null","null","[1,3]","456.1360534407575","144.46090839856504","498.56197232890696"
"","canvas-keyboard-response","63","148323","0.0-6.0-1.8","565","","","","","clear_screen","null","null","","","critical","t","d","c","164","240","158.0083","227.1683","240","164","spektor","0.09","h","164","240","240","164","158.0083","227.1683","39360","39360","35894.4834","tc","null","null","null","null","null","null","[1,3]","456.1360534407575","144.46090839856504","498.56197232890696"
"","canvas-keyboard-response","64","148830","0.0-6.0-2.8","565","","","","","rectangles no change","null","null","","","critical","t","d","c","164","240","158.0083","227.1683","240","164","spektor","0.09","h","164","240","240","164","158.0083","227.1683","39360","39360","35894.4834","tc","null","null","null","null","null","null","[1,3]","456.1360534407575","144.46090839856504","498.56197232890696"
"","canvas-keyboard-response","65","150169","0.0-6.0-3.8","565","","","","","rectangles with change","null","null","","","critical","t","d","c","164","240","158.0083","227.1683","240","164","spektor","0.09","h","164","240","240","164","158.0083","227.1683","39360","39360","35894.4834","tc","null","null","null","null","null","null","[1,3]","456.1360534407575","144.46090839856504","498.56197232890696"
"","canvas-keyboard-response","66","150190","0.0-6.0-4.8","565","","","","","clear_screen","null","null","","","critical","t","d","c","164","240","158.0083","227.1683","240","164","spektor","0.09","h","164","240","240","164","158.0083","227.1683","39360","39360","35894.4834","tc","null","null","null","null","null","null","[1,3]","456.1360534407575","144.46090839856504","498.56197232890696"
"","canvas-keyboard-response","67","150847","0.0-6.0-5.8","565","","","","","make choice","652","1","","","critical","t","d","c","164","240","158.0083","227.1683","240","164","spektor","0.09","h","164","240","240","164","158.0083","227.1683","39360","39360","35894.4834","tc","null","null","null","null","null","null","[1,3]","","",""
"","canvas-keyboard-response","68","150867","0.0-6.0-6.8","565","","","","","clear_screen","null","null","","","critical","t","d","c","164","240","158.0083","227.1683","240","164","spektor","0.09","h","164","240","240","164","158.0083","227.1683","39360","39360","35894.4834","tc","null","null","null","null","null","null","[1,3]","","",""
"","canvas-keyboard-response","69","151068","0.0-6.0-0.9","565","","","","","pre trial waiting period","null","null","","","catch","sh","sw","l","173","170","154","187","233","277","trueblood","null","null","null","null","null","null","null","null","null","null","null","","180","200","260","200","36000","52000","[2,3]","478.1752989353428","478.81981847553357","397.59754339831323"
"","canvas-keyboard-response","70","151086","0.0-6.0-1.9","565","","","","","clear_screen","null","null","","","catch","sh","sw","l","173","170","154","187","233","277","trueblood","null","null","null","null","null","null","null","null","null","null","null","","180","200","260","200","36000","52000","[2,3]","478.1752989353428","478.81981847553357","397.59754339831323"
"","canvas-keyboard-response","71","151593","0.0-6.0-2.9","565","","","","","rectangles no change","null","null","","","catch","sh","sw","l","173","170","154","187","233","277","trueblood","null","null","null","null","null","null","null","null","null","null","null","","180","200","260","200","36000","52000","[2,3]","478.1752989353428","478.81981847553357","397.59754339831323"
"","canvas-keyboard-response","72","152929","0.0-6.0-3.9","565","","","","","rectangles with change","null","null","","","catch","sh","sw","l","173","170","154","187","233","277","trueblood","null","null","null","null","null","null","null","null","null","null","null","","180","200","260","200","36000","52000","[2,3]","478.1752989353428","478.81981847553357","397.59754339831323"
"","canvas-keyboard-response","73","152950","0.0-6.0-4.9","565","","","","","clear_screen","null","null","","","catch","sh","sw","l","173","170","154","187","233","277","trueblood","null","null","null","null","null","null","null","null","null","null","null","","180","200","260","200","36000","52000","[2,3]","478.1752989353428","478.81981847553357","397.59754339831323"
"","canvas-keyboard-response","74","153464","0.0-6.0-5.9","565","","","","","make choice","508","3","","","catch","sh","sw","l","173","170","154","187","233","277","trueblood","null","null","null","null","null","null","null","null","null","null","null","","180","200","260","200","36000","52000","[2,3]","","",""
"","canvas-keyboard-response","75","153483","0.0-6.0-6.9","565","","","","","clear_screen","null","null","","","catch","sh","sw","l","173","170","154","187","233","277","trueblood","null","null","null","null","null","null","null","null","null","null","null","","180","200","260","200","36000","52000","[2,3]","","",""
"","canvas-keyboard-response","76","153683","0.0-6.0-0.10","565","","","","","pre trial waiting period","null","null","","","critical","t","d","c","240","164","227.1683","158.0083","164","240","trueblood","0.09","w","240","164","164","240","227.1683","158.0083","39360","39360","35894.4834","td","null","null","null","null","null","null","[1,2]","474.8736075286104","473.35883779520964","441.77134939301675"
"","canvas-keyboard-response","77","153704","0.0-6.0-1.10","565","","","","","clear_screen","null","null","","","critical","t","d","c","240","164","227.1683","158.0083","164","240","trueblood","0.09","w","240","164","164","240","227.1683","158.0083","39360","39360","35894.4834","td","null","null","null","null","null","null","[1,2]","474.8736075286104","473.35883779520964","441.77134939301675"
"","canvas-keyboard-response","78","154212","0.0-6.0-2.10","565","","","","","rectangles no change","null","null","","","critical","t","d","c","240","164","227.1683","158.0083","164","240","trueblood","0.09","w","240","164","164","240","227.1683","158.0083","39360","39360","35894.4834","td","null","null","null","null","null","null","[1,2]","474.8736075286104","473.35883779520964","441.77134939301675"
"","canvas-keyboard-response","79","155552","0.0-6.0-3.10","565","","","","","rectangles with change","null","null","","","critical","t","d","c","240","164","227.1683","158.0083","164","240","trueblood","0.09","w","240","164","164","240","227.1683","158.0083","39360","39360","35894.4834","td","null","null","null","null","null","null","[1,2]","474.8736075286104","473.35883779520964","441.77134939301675"
"","canvas-keyboard-response","80","155569","0.0-6.0-4.10","565","","","","","clear_screen","null","null","","","critical","t","d","c","240","164","227.1683","158.0083","164","240","trueblood","0.09","w","240","164","164","240","227.1683","158.0083","39360","39360","35894.4834","td","null","null","null","null","null","null","[1,2]","474.8736075286104","473.35883779520964","441.77134939301675"
"","canvas-keyboard-response","81","156439","0.0-6.0-5.10","565","","","","","make choice","862","1","","","critical","t","d","c","240","164","227.1683","158.0083","164","240","trueblood","0.09","w","240","164","164","240","227.1683","158.0083","39360","39360","35894.4834","td","null","null","null","null","null","null","[1,2]","","",""
"","canvas-keyboard-response","82","156458","0.0-6.0-6.10","565","","","","","clear_screen","null","null","","","critical","t","d","c","240","164","227.1683","158.0083","164","240","trueblood","0.09","w","240","164","164","240","227.1683","158.0083","39360","39360","35894.4834","td","null","null","null","null","null","null","[1,2]","","",""
"","canvas-keyboard-response","83","156658","0.0-6.0-0.11","565","","","","","pre trial waiting period","null","null","","","catch","sh","l","sw","228","191","220","209","156","185","spektor","null","null","null","null","null","null","null","null","null","null","null","","180","200","260","200","36000","52000","[1,2]","510.95338204624466","177.38040868277469","494.66766893529257"
"","canvas-keyboard-response","84","156679","0.0-6.0-1.11","565","","","","","clear_screen","null","null","","","catch","sh","l","sw","228","191","220","209","156","185","spektor","null","null","null","null","null","null","null","null","null","null","null","","180","200","260","200","36000","52000","[1,2]","510.95338204624466","177.38040868277469","494.66766893529257"
"","canvas-keyboard-response","85","157188","0.0-6.0-2.11","565","","","","","rectangles no change","null","null","","","catch","sh","l","sw","228","191","220","209","156","185","spektor","null","null","null","null","null","null","null","null","null","null","null","","180","200","260","200","36000","52000","[1,2]","510.95338204624466","177.38040868277469","494.66766893529257"
"","canvas-keyboard-response","86","158527","0.0-6.0-3.11","565","","","","","rectangles with change","null","null","","","catch","sh","l","sw","228","191","220","209","156","185","spektor","null","null","null","null","null","null","null","null","null","null","null","","180","200","260","200","36000","52000","[1,2]","510.95338204624466","177.38040868277469","494.66766893529257"
"","canvas-keyboard-response","87","158548","0.0-6.0-4.11","565","","","","","clear_screen","null","null","","","catch","sh","l","sw","228","191","220","209","156","185","spektor","null","null","null","null","null","null","null","null","null","null","null","","180","200","260","200","36000","52000","[1,2]","510.95338204624466","177.38040868277469","494.66766893529257"
"","canvas-keyboard-response","88","159207","0.0-6.0-5.11","565","","","","","make choice","651","1","","","catch","sh","l","sw","228","191","220","209","156","185","spektor","null","null","null","null","null","null","null","null","null","null","null","","180","200","260","200","36000","52000","[1,2]","","",""
"","canvas-keyboard-response","89","159228","0.0-6.0-6.11","565","","","","","clear_screen","null","null","","","catch","sh","l","sw","228","191","220","209","156","185","spektor","null","null","null","null","null","null","null","null","null","null","null","","180","200","260","200","36000","52000","[1,2]","","",""
"","canvas-keyboard-response","90","159429","0.0-6.0-0.12","565","","","","","pre trial waiting period","null","null","","","catch","sw","l","sh","180","200","227","188","223","169","spektor","null","null","null","null","null","null","null","null","null","null","null","","180","200","260","200","36000","52000","[1,2]","506.51416624285906","181.55230597716337","537.7268698256264"
"","canvas-keyboard-response","91","159449","0.0-6.0-1.12","565","","","","","clear_screen","null","null","","","catch","sw","l","sh","180","200","227","188","223","169","spektor","null","null","null","null","null","null","null","null","null","null","null","","180","200","260","200","36000","52000","[1,2]","506.51416624285906","181.55230597716337","537.7268698256264"
"","canvas-keyboard-response","92","159959","0.0-6.0-2.12","565","","","","","rectangles no change","null","null","","","catch","sw","l","sh","180","200","227","188","223","169","spektor","null","null","null","null","null","null","null","null","null","null","null","","180","200","260","200","36000","52000","[1,2]","506.51416624285906","181.55230597716337","537.7268698256264"
"","canvas-keyboard-response","93","161298","0.0-6.0-3.12","565","","","","","rectangles with change","null","null","","","catch","sw","l","sh","180","200","227","188","223","169","spektor","null","null","null","null","null","null","null","null","null","null","null","","180","200","260","200","36000","52000","[1,2]","506.51416624285906","181.55230597716337","537.7268698256264"
"","canvas-keyboard-response","94","161317","0.0-6.0-4.12","565","","","","","clear_screen","null","null","","","catch","sw","l","sh","180","200","227","188","223","169","spektor","null","null","null","null","null","null","null","null","null","null","null","","180","200","260","200","36000","52000","[1,2]","506.51416624285906","181.55230597716337","537.7268698256264"
"","canvas-keyboard-response","95","162480","0.0-6.0-5.12","565","","","","","make choice","1150","2","","","catch","sw","l","sh","180","200","227","188","223","169","spektor","null","null","null","null","null","null","null","null","null","null","null","","180","200","260","200","36000","52000","[1,2]","","",""
"","canvas-keyboard-response","96","162502","0.0-6.0-6.12","565","","","","","clear_screen","null","null","","","catch","sw","l","sh","180","200","227","188","223","169","spektor","null","null","null","null","null","null","null","null","null","null","null","","180","200","260","200","36000","52000","[1,2]","","",""
"","canvas-keyboard-response","97","162703","0.0-6.0-0.13","565","","","","","pre trial waiting period","null","null","","","critical","t","c","d","240","164","164","240","240","164","spektor","0","w","240","164","164","240","240","164","39360","39360","39360","dc","null","null","null","null","null","null","[3,2]","524.8312711859575","135.74170278841643","525.5230394852839"
"","canvas-keyboard-response","98","162723","0.0-6.0-1.13","565","","","","","clear_screen","null","null","","","critical","t","c","d","240","164","164","240","240","164","spektor","0","w","240","164","164","240","240","164","39360","39360","39360","dc","null","null","null","null","null","null","[3,2]","524.8312711859575","135.74170278841643","525.5230394852839"
"","canvas-keyboard-response","99","163232","0.0-6.0-2.13","565","","","","","rectangles no change","null","null","","","critical","t","c","d","240","164","164","240","240","164","spektor","0","w","240","164","164","240","240","164","39360","39360","39360","dc","null","null","null","null","null","null","[3,2]","524.8312711859575","135.74170278841643","525.5230394852839"
"","canvas-keyboard-response","100","164570","0.0-6.0-3.13","565","","","","","rectangles with change","null","null","","","critical","t","c","d","240","164","164","240","240","164","spektor","0","w","240","164","164","240","240","164","39360","39360","39360","dc","null","null","null","null","null","null","[3,2]","524.8312711859575","135.74170278841643","525.5230394852839"
"","canvas-keyboard-response","101","164594","0.0-6.0-4.13","565","","","","","clear_screen","null","null","","","critical","t","c","d","240","164","164","240","240","164","spektor","0","w","240","164","164","240","240","164","39360","39360","39360","dc","null","null","null","null","null","null","[3,2]","524.8312711859575","135.74170278841643","525.5230394852839"
"","canvas-keyboard-response","102","165582","0.0-6.0-5.13","565","","","","","make choice","984","3","","","critical","t","c","d","240","164","164","240","240","164","spektor","0","w","240","164","164","240","240","164","39360","39360","39360","dc","null","null","null","null","null","null","[3,2]","","",""
"","canvas-keyboard-response","103","165601","0.0-6.0-6.13","565","","","","","clear_screen","null","null","","","critical","t","c","d","240","164","164","240","240","164","spektor","0","w","240","164","164","240","240","164","39360","39360","39360","dc","null","null","null","null","null","null","[3,2]","","",""
"","canvas-keyboard-response","104","165802","0.0-6.0-0.14","565","","","","","pre trial waiting period","null","null","","","critical","t","d","c","240","164","232.8713","160.6713","164","240","spektor","0.05","w","240","164","164","240","232.8713","160.6713","39360","39360","37415.7294","dc","null","null","null","null","null","null","[2,3]","513.3212951032579","180.2712210626384","497.88371142673293"
"","canvas-keyboard-response","105","165821","0.0-6.0-1.14","565","","","","","clear_screen","null","null","","","critical","t","d","c","240","164","232.8713","160.6713","164","240","spektor","0.05","w","240","164","164","240","232.8713","160.6713","39360","39360","37415.7294","dc","null","null","null","null","null","null","[2,3]","513.3212951032579","180.2712210626384","497.88371142673293"
"","canvas-keyboard-response","106","166330","0.0-6.0-2.14","565","","","","","rectangles no change","null","null","","","critical","t","d","c","240","164","232.8713","160.6713","164","240","spektor","0.05","w","240","164","164","240","232.8713","160.6713","39360","39360","37415.7294","dc","null","null","null","null","null","null","[2,3]","513.3212951032579","180.2712210626384","497.88371142673293"
"","canvas-keyboard-response","107","167666","0.0-6.0-3.14","565","","","","","rectangles with change","null","null","","","critical","t","d","c","240","164","232.8713","160.6713","164","240","spektor","0.05","w","240","164","164","240","232.8713","160.6713","39360","39360","37415.7294","dc","null","null","null","null","null","null","[2,3]","513.3212951032579","180.2712210626384","497.88371142673293"
"","canvas-keyboard-response","108","167685","0.0-6.0-4.14","565","","","","","clear_screen","null","null","","","critical","t","d","c","240","164","232.8713","160.6713","164","240","spektor","0.05","w","240","164","164","240","232.8713","160.6713","39360","39360","37415.7294","dc","null","null","null","null","null","null","[2,3]","513.3212951032579","180.2712210626384","497.88371142673293"
"","canvas-keyboard-response","109","168952","0.0-6.0-5.14","565","","","","","make choice","1261","2","","","critical","t","d","c","240","164","232.8713","160.6713","164","240","spektor","0.05","w","240","164","164","240","232.8713","160.6713","39360","39360","37415.7294","dc","null","null","null","null","null","null","[2,3]","","",""
"","canvas-keyboard-response","110","168970","0.0-6.0-6.14","565","","","","","clear_screen","null","null","","","critical","t","d","c","240","164","232.8713","160.6713","164","240","spektor","0.05","w","240","164","164","240","232.8713","160.6713","39360","39360","37415.7294","dc","null","null","null","null","null","null","[2,3]","","",""
"","canvas-keyboard-response","111","169172","0.0-6.0-0.15","565","","","","","pre trial waiting period","null","null","","","critical","t","c","d","164","240","240","164","158.0083","227.1683","trueblood","0.09","h","164","240","240","164","158.0083","227.1683","39360","39360","35894.4834","td","null","null","null","null","null","null","[1,3]","454.8937242938827","511.42700914423585","451.558463225713"
"","canvas-keyboard-response","112","169192","0.0-6.0-1.15","565","","","","","clear_screen","null","null","","","critical","t","c","d","164","240","240","164","158.0083","227.1683","trueblood","0.09","h","164","240","240","164","158.0083","227.1683","39360","39360","35894.4834","td","null","null","null","null","null","null","[1,3]","454.8937242938827","511.42700914423585","451.558463225713"
"","canvas-keyboard-response","113","169701","0.0-6.0-2.15","565","","","","","rectangles no change","null","null","","","critical","t","c","d","164","240","240","164","158.0083","227.1683","trueblood","0.09","h","164","240","240","164","158.0083","227.1683","39360","39360","35894.4834","td","null","null","null","null","null","null","[1,3]","454.8937242938827","511.42700914423585","451.558463225713"
"","canvas-keyboard-response","114","171037","0.0-6.0-3.15","565","","","","","rectangles with change","null","null","","","critical","t","c","d","164","240","240","164","158.0083","227.1683","trueblood","0.09","h","164","240","240","164","158.0083","227.1683","39360","39360","35894.4834","td","null","null","null","null","null","null","[1,3]","454.8937242938827","511.42700914423585","451.558463225713"
"","canvas-keyboard-response","115","171056","0.0-6.0-4.15","565","","","","","clear_screen","null","null","","","critical","t","c","d","164","240","240","164","158.0083","227.1683","trueblood","0.09","h","164","240","240","164","158.0083","227.1683","39360","39360","35894.4834","td","null","null","null","null","null","null","[1,3]","454.8937242938827","511.42700914423585","451.558463225713"
"","canvas-keyboard-response","116","172655","0.0-6.0-5.15","565","","","","","make choice","1594","1","","","critical","t","c","d","164","240","240","164","158.0083","227.1683","trueblood","0.09","h","164","240","240","164","158.0083","227.1683","39360","39360","35894.4834","td","null","null","null","null","null","null","[1,3]","","",""
"","canvas-keyboard-response","117","172675","0.0-6.0-6.15","565","","","","","clear_screen","null","null","","","critical","t","c","d","164","240","240","164","158.0083","227.1683","trueblood","0.09","h","164","240","240","164","158.0083","227.1683","39360","39360","35894.4834","td","null","null","null","null","null","null","[1,3]","","",""
"","canvas-keyboard-response","118","172876","0.0-6.0-0.16","565","","","","","pre trial waiting period","null","null","","","critical","t","d","c","240","164","220.0396","154.6796","164","240","spektor","0.14","w","240","164","164","240","220.0396","154.6796","39360","39360","34035.6388","dc","null","null","null","null","null","null","[2,3]","507.19611786116553","180.25938977810833","501.72202204225835"
"","canvas-keyboard-response","119","172896","0.0-6.0-1.16","565","","","","","clear_screen","null","null","","","critical","t","d","c","240","164","220.0396","154.6796","164","240","spektor","0.14","w","240","164","164","240","220.0396","154.6796","39360","39360","34035.6388","dc","null","null","null","null","null","null","[2,3]","507.19611786116553","180.25938977810833","501.72202204225835"
"","canvas-keyboard-response","120","173402","0.0-6.0-2.16","565","","","","","rectangles no change","null","null","","","critical","t","d","c","240","164","220.0396","154.6796","164","240","spektor","0.14","w","240","164","164","240","220.0396","154.6796","39360","39360","34035.6388","dc","null","null","null","null","null","null","[2,3]","507.19611786116553","180.25938977810833","501.72202204225835"
"","canvas-keyboard-response","121","174737","0.0-6.0-3.16","565","","","","","rectangles with change","null","null","","","critical","t","d","c","240","164","220.0396","154.6796","164","240","spektor","0.14","w","240","164","164","240","220.0396","154.6796","39360","39360","34035.6388","dc","null","null","null","null","null","null","[2,3]","507.19611786116553","180.25938977810833","501.72202204225835"
"","canvas-keyboard-response","122","174759","0.0-6.0-4.16","565","","","","","clear_screen","null","null","","","critical","t","d","c","240","164","220.0396","154.6796","164","240","spektor","0.14","w","240","164","164","240","220.0396","154.6796","39360","39360","34035.6388","dc","null","null","null","null","null","null","[2,3]","507.19611786116553","180.25938977810833","501.72202204225835"
"","canvas-keyboard-response","123","175583","0.0-6.0-5.16","565","","","","","make choice","817","2","","","critical","t","d","c","240","164","220.0396","154.6796","164","240","spektor","0.14","w","240","164","164","240","220.0396","154.6796","39360","39360","34035.6388","dc","null","null","null","null","null","null","[2,3]","","",""
"","canvas-keyboard-response","124","175604","0.0-6.0-6.16","565","","","","","clear_screen","null","null","","","critical","t","d","c","240","164","220.0396","154.6796","164","240","spektor","0.14","w","240","164","164","240","220.0396","154.6796","39360","39360","34035.6388","dc","null","null","null","null","null","null","[2,3]","","",""
"","canvas-keyboard-response","125","175805","0.0-6.0-0.17","565","","","","","pre trial waiting period","null","null","","","critical","c","d","t","240","164","164","240","164","240","spektor","0","h","164","240","240","164","164","240","39360","39360","39360","tc","null","null","null","null","null","null","[3,1]","538.6854337804605","99.83973461803149","459.3804621496721"
"","canvas-keyboard-response","126","175825","0.0-6.0-1.17","565","","","","","clear_screen","null","null","","","critical","c","d","t","240","164","164","240","164","240","spektor","0","h","164","240","240","164","164","240","39360","39360","39360","tc","null","null","null","null","null","null","[3,1]","538.6854337804605","99.83973461803149","459.3804621496721"
"","canvas-keyboard-response","127","176334","0.0-6.0-2.17","565","","","","","rectangles no change","null","null","","","critical","c","d","t","240","164","164","240","164","240","spektor","0","h","164","240","240","164","164","240","39360","39360","39360","tc","null","null","null","null","null","null","[3,1]","538.6854337804605","99.83973461803149","459.3804621496721"
"","canvas-keyboard-response","128","177668","0.0-6.0-3.17","565","","","","","rectangles with change","null","null","","","critical","c","d","t","240","164","164","240","164","240","spektor","0","h","164","240","240","164","164","240","39360","39360","39360","tc","null","null","null","null","null","null","[3,1]","538.6854337804605","99.83973461803149","459.3804621496721"
"","canvas-keyboard-response","129","177686","0.0-6.0-4.17","565","","","","","clear_screen","null","null","","","critical","c","d","t","240","164","164","240","164","240","spektor","0","h","164","240","240","164","164","240","39360","39360","39360","tc","null","null","null","null","null","null","[3,1]","538.6854337804605","99.83973461803149","459.3804621496721"
"","canvas-keyboard-response","130","178055","0.0-6.0-5.17","565","","","","","make choice","361","1","","","critical","c","d","t","240","164","164","240","164","240","spektor","0","h","164","240","240","164","164","240","39360","39360","39360","tc","null","null","null","null","null","null","[3,1]","","",""
"","canvas-keyboard-response","131","178075","0.0-6.0-6.17","565","","","","","clear_screen","null","null","","","critical","c","d","t","240","164","164","240","164","240","spektor","0","h","164","240","240","164","164","240","39360","39360","39360","tc","null","null","null","null","null","null","[3,1]","","",""
"","canvas-keyboard-response","132","178276","0.0-6.0-0.18","565","","","","","pre trial waiting period","null","null","","","critical","t","d","c","240","164","220.0396","154.6796","164","240","trueblood","0.14","w","240","164","164","240","220.0396","154.6796","39360","39360","34035.6388","tc","null","null","null","null","null","null","[1,3]","470.2804894747652","494.13706858880425","443.32574212215155"
"","canvas-keyboard-response","133","178297","0.0-6.0-1.18","565","","","","","clear_screen","null","null","","","critical","t","d","c","240","164","220.0396","154.6796","164","240","trueblood","0.14","w","240","164","164","240","220.0396","154.6796","39360","39360","34035.6388","tc","null","null","null","null","null","null","[1,3]","470.2804894747652","494.13706858880425","443.32574212215155"
"","canvas-keyboard-response","134","178808","0.0-6.0-2.18","565","","","","","rectangles no change","null","null","","","critical","t","d","c","240","164","220.0396","154.6796","164","240","trueblood","0.14","w","240","164","164","240","220.0396","154.6796","39360","39360","34035.6388","tc","null","null","null","null","null","null","[1,3]","470.2804894747652","494.13706858880425","443.32574212215155"
"","canvas-keyboard-response","135","180143","0.0-6.0-3.18","565","","","","","rectangles with change","null","null","","","critical","t","d","c","240","164","220.0396","154.6796","164","240","trueblood","0.14","w","240","164","164","240","220.0396","154.6796","39360","39360","34035.6388","tc","null","null","null","null","null","null","[1,3]","470.2804894747652","494.13706858880425","443.32574212215155"
"","canvas-keyboard-response","136","180162","0.0-6.0-4.18","565","","","","","clear_screen","null","null","","","critical","t","d","c","240","164","220.0396","154.6796","164","240","trueblood","0.14","w","240","164","164","240","220.0396","154.6796","39360","39360","34035.6388","tc","null","null","null","null","null","null","[1,3]","470.2804894747652","494.13706858880425","443.32574212215155"
"","canvas-keyboard-response","137","180551","0.0-6.0-5.18","565","","","","","make choice","383","1","","","critical","t","d","c","240","164","220.0396","154.6796","164","240","trueblood","0.14","w","240","164","164","240","220.0396","154.6796","39360","39360","34035.6388","tc","null","null","null","null","null","null","[1,3]","","",""
"","canvas-keyboard-response","138","180571","0.0-6.0-6.18","565","","","","","clear_screen","null","null","","","critical","t","d","c","240","164","220.0396","154.6796","164","240","trueblood","0.14","w","240","164","164","240","220.0396","154.6796","39360","39360","34035.6388","tc","null","null","null","null","null","null","[1,3]","","",""
"","canvas-keyboard-response","139","180772","0.0-6.0-0.19","565","","","","","pre trial waiting period","null","null","","","critical","c","d","t","164","240","237.1485","162.6685","240","164","spektor","0.02","w","240","164","164","240","237.1485","162.6685","39360","39360","38576.5967","td","null","null","null","null","null","null","[3,2]","480.29486872137255","194.44530183806688","506.7013605347095"
"","canvas-keyboard-response","140","180792","0.0-6.0-1.19","565","","","","","clear_screen","null","null","","","critical","c","d","t","164","240","237.1485","162.6685","240","164","spektor","0.02","w","240","164","164","240","237.1485","162.6685","39360","39360","38576.5967","td","null","null","null","null","null","null","[3,2]","480.29486872137255","194.44530183806688","506.7013605347095"
"","canvas-keyboard-response","141","181299","0.0-6.0-2.19","565","","","","","rectangles no change","null","null","","","critical","c","d","t","164","240","237.1485","162.6685","240","164","spektor","0.02","w","240","164","164","240","237.1485","162.6685","39360","39360","38576.5967","td","null","null","null","null","null","null","[3,2]","480.29486872137255","194.44530183806688","506.7013605347095"
"","canvas-keyboard-response","142","182634","0.0-6.0-3.19","565","","","","","rectangles with change","null","null","","","critical","c","d","t","164","240","237.1485","162.6685","240","164","spektor","0.02","w","240","164","164","240","237.1485","162.6685","39360","39360","38576.5967","td","null","null","null","null","null","null","[3,2]","480.29486872137255","194.44530183806688","506.7013605347095"
"","canvas-keyboard-response","143","182656","0.0-6.0-4.19","565","","","","","clear_screen","null","null","","","critical","c","d","t","164","240","237.1485","162.6685","240","164","spektor","0.02","w","240","164","164","240","237.1485","162.6685","39360","39360","38576.5967","td","null","null","null","null","null","null","[3,2]","480.29486872137255","194.44530183806688","506.7013605347095"
"","canvas-keyboard-response","144","183000","0.0-6.0-5.19","565","","","","","make choice","338","3","","","critical","c","d","t","164","240","237.1485","162.6685","240","164","spektor","0.02","w","240","164","164","240","237.1485","162.6685","39360","39360","38576.5967","td","null","null","null","null","null","null","[3,2]","","",""
"","canvas-keyboard-response","145","183019","0.0-6.0-6.19","565","","","","","clear_screen","null","null","","","critical","c","d","t","164","240","237.1485","162.6685","240","164","spektor","0.02","w","240","164","164","240","237.1485","162.6685","39360","39360","38576.5967","td","null","null","null","null","null","null","[3,2]","","",""
"","canvas-keyboard-response","146","183221","0.0-6.0-0.20","565","","","","","pre trial waiting period","null","null","","","catch","sw","sh","l","180","200","160","166","264","197","trueblood","null","null","null","null","null","null","null","null","null","null","null","","180","200","260","200","36000","52000","[1,3]","466.1235981528334","473.9012128239557","479.29332353408165"
"","canvas-keyboard-response","147","183243","0.0-6.0-1.20","565","","","","","clear_screen","null","null","","","catch","sw","sh","l","180","200","160","166","264","197","trueblood","null","null","null","null","null","null","null","null","null","null","null","","180","200","260","200","36000","52000","[1,3]","466.1235981528334","473.9012128239557","479.29332353408165"
"","canvas-keyboard-response","148","183750","0.0-6.0-2.20","565","","","","","rectangles no change","null","null","","","catch","sw","sh","l","180","200","160","166","264","197","trueblood","null","null","null","null","null","null","null","null","null","null","null","","180","200","260","200","36000","52000","[1,3]","466.1235981528334","473.9012128239557","479.29332353408165"
"","canvas-keyboard-response","149","185087","0.0-6.0-3.20","565","","","","","rectangles with change","null","null","","","catch","sw","sh","l","180","200","160","166","264","197","trueblood","null","null","null","null","null","null","null","null","null","null","null","","180","200","260","200","36000","52000","[1,3]","466.1235981528334","473.9012128239557","479.29332353408165"
"","canvas-keyboard-response","150","185109","0.0-6.0-4.20","565","","","","","clear_screen","null","null","","","catch","sw","sh","l","180","200","160","166","264","197","trueblood","null","null","null","null","null","null","null","null","null","null","null","","180","200","260","200","36000","52000","[1,3]","466.1235981528334","473.9012128239557","479.29332353408165"
"","canvas-keyboard-response","151","185912","0.0-6.0-5.20","565","","","","","make choice","796","3","","","catch","sw","sh","l","180","200","160","166","264","197","trueblood","null","null","null","null","null","null","null","null","null","null","null","","180","200","260","200","36000","52000","[1,3]","","",""
"","canvas-keyboard-response","152","185931","0.0-6.0-6.20","565","","","","","clear_screen","null","null","","","catch","sw","sh","l","180","200","160","166","264","197","trueblood","null","null","null","null","null","null","null","null","null","null","null","","180","200","260","200","36000","52000","[1,3]","","",""
"","canvas-keyboard-response","153","186132","0.0-6.0-0.21","565","","","","","pre trial waiting period","null","null","","","critical","d","c","t","240","164","164","240","240","164","spektor","0","w","240","164","164","240","240","164","39360","39360","39360","td","null","null","null","null","null","null","[3,1]","535.7755277340068","124.04378884711025","533.1375847407572"
"","canvas-keyboard-response","154","186151","0.0-6.0-1.21","565","","","","","clear_screen","null","null","","","critical","d","c","t","240","164","164","240","240","164","spektor","0","w","240","164","164","240","240","164","39360","39360","39360","td","null","null","null","null","null","null","[3,1]","535.7755277340068","124.04378884711025","533.1375847407572"
"","canvas-keyboard-response","155","186661","0.0-6.0-2.21","565","","","","","rectangles no change","null","null","","","critical","d","c","t","240","164","164","240","240","164","spektor","0","w","240","164","164","240","240","164","39360","39360","39360","td","null","null","null","null","null","null","[3,1]","535.7755277340068","124.04378884711025","533.1375847407572"
"","canvas-keyboard-response","156","187999","0.0-6.0-3.21","565","","","","","rectangles with change","null","null","","","critical","d","c","t","240","164","164","240","240","164","spektor","0","w","240","164","164","240","240","164","39360","39360","39360","td","null","null","null","null","null","null","[3,1]","535.7755277340068","124.04378884711025","533.1375847407572"
"","canvas-keyboard-response","157","188023","0.0-6.0-4.21","565","","","","","clear_screen","null","null","","","critical","d","c","t","240","164","164","240","240","164","spektor","0","w","240","164","164","240","240","164","39360","39360","39360","td","null","null","null","null","null","null","[3,1]","535.7755277340068","124.04378884711025","533.1375847407572"
"","canvas-keyboard-response","158","189303","0.0-6.0-5.21","565","","","","","make choice","1274","3","","","critical","d","c","t","240","164","164","240","240","164","spektor","0","w","240","164","164","240","240","164","39360","39360","39360","td","null","null","null","null","null","null","[3,1]","","",""
"","canvas-keyboard-response","159","189324","0.0-6.0-6.21","565","","","","","clear_screen","null","null","","","critical","d","c","t","240","164","164","240","240","164","spektor","0","w","240","164","164","240","240","164","39360","39360","39360","td","null","null","null","null","null","null","[3,1]","","",""
"","canvas-keyboard-response","160","189525","0.0-6.0-0.22","565","","","","","pre trial waiting period","null","null","","","critical","t","c","d","240","164","164","240","237.1485","162.6685","spektor","0.02","w","240","164","164","240","237.1485","162.6685","39360","39360","38576.5967","dc","null","null","null","null","null","null","[3,2]","532.5084420783712","147.42798466839736","518.2700569155935"
"","canvas-keyboard-response","161","189547","0.0-6.0-1.22","565","","","","","clear_screen","null","null","","","critical","t","c","d","240","164","164","240","237.1485","162.6685","spektor","0.02","w","240","164","164","240","237.1485","162.6685","39360","39360","38576.5967","dc","null","null","null","null","null","null","[3,2]","532.5084420783712","147.42798466839736","518.2700569155935"
"","canvas-keyboard-response","162","190054","0.0-6.0-2.22","565","","","","","rectangles no change","null","null","","","critical","t","c","d","240","164","164","240","237.1485","162.6685","spektor","0.02","w","240","164","164","240","237.1485","162.6685","39360","39360","38576.5967","dc","null","null","null","null","null","null","[3,2]","532.5084420783712","147.42798466839736","518.2700569155935"
"","canvas-keyboard-response","163","191390","0.0-6.0-3.22","565","","","","","rectangles with change","null","null","","","critical","t","c","d","240","164","164","240","237.1485","162.6685","spektor","0.02","w","240","164","164","240","237.1485","162.6685","39360","39360","38576.5967","dc","null","null","null","null","null","null","[3,2]","532.5084420783712","147.42798466839736","518.2700569155935"
"","canvas-keyboard-response","164","191409","0.0-6.0-4.22","565","","","","","clear_screen","null","null","","","critical","t","c","d","240","164","164","240","237.1485","162.6685","spektor","0.02","w","240","164","164","240","237.1485","162.6685","39360","39360","38576.5967","dc","null","null","null","null","null","null","[3,2]","532.5084420783712","147.42798466839736","518.2700569155935"
"","canvas-keyboard-response","165","192591","0.0-6.0-5.22","565","","","","","make choice","1177","3","","","critical","t","c","d","240","164","164","240","237.1485","162.6685","spektor","0.02","w","240","164","164","240","237.1485","162.6685","39360","39360","38576.5967","dc","null","null","null","null","null","null","[3,2]","","",""
"","canvas-keyboard-response","166","192611","0.0-6.0-6.22","565","","","","","clear_screen","null","null","","","critical","t","c","d","240","164","164","240","237.1485","162.6685","spektor","0.02","w","240","164","164","240","237.1485","162.6685","39360","39360","38576.5967","dc","null","null","null","null","null","null","[3,2]","","",""
"","canvas-keyboard-response","167","192812","0.0-6.0-0.23","565","","","","","pre trial waiting period","null","null","","","critical","t","d","c","164","240","154.6796","220.0396","240","164","trueblood","0.14","h","164","240","240","164","154.6796","220.0396","39360","39360","34035.6388","td","null","null","null","null","null","null","[1,2]","432.22191039798986","472.5013213684002","473.2491556106238"
"","canvas-keyboard-response","168","192833","0.0-6.0-1.23","565","","","","","clear_screen","null","null","","","critical","t","d","c","164","240","154.6796","220.0396","240","164","trueblood","0.14","h","164","240","240","164","154.6796","220.0396","39360","39360","34035.6388","td","null","null","null","null","null","null","[1,2]","432.22191039798986","472.5013213684002","473.2491556106238"
"","canvas-keyboard-response","169","193340","0.0-6.0-2.23","565","","","","","rectangles no change","null","null","","","critical","t","d","c","164","240","154.6796","220.0396","240","164","trueblood","0.14","h","164","240","240","164","154.6796","220.0396","39360","39360","34035.6388","td","null","null","null","null","null","null","[1,2]","432.22191039798986","472.5013213684002","473.2491556106238"
"","canvas-keyboard-response","170","194678","0.0-6.0-3.23","565","","","","","rectangles with change","null","null","","","critical","t","d","c","164","240","154.6796","220.0396","240","164","trueblood","0.14","h","164","240","240","164","154.6796","220.0396","39360","39360","34035.6388","td","null","null","null","null","null","null","[1,2]","432.22191039798986","472.5013213684002","473.2491556106238"
"","canvas-keyboard-response","171","194700","0.0-6.0-4.23","565","","","","","clear_screen","null","null","","","critical","t","d","c","164","240","154.6796","220.0396","240","164","trueblood","0.14","h","164","240","240","164","154.6796","220.0396","39360","39360","34035.6388","td","null","null","null","null","null","null","[1,2]","432.22191039798986","472.5013213684002","473.2491556106238"
"","canvas-keyboard-response","172","196431","0.0-6.0-5.23","565","","","","","make choice","1724","1","","","critical","t","d","c","164","240","154.6796","220.0396","240","164","trueblood","0.14","h","164","240","240","164","154.6796","220.0396","39360","39360","34035.6388","td","null","null","null","null","null","null","[1,2]","","",""
"","canvas-keyboard-response","173","196448","0.0-6.0-6.23","565","","","","","clear_screen","null","null","","","critical","t","d","c","164","240","154.6796","220.0396","240","164","trueblood","0.14","h","164","240","240","164","154.6796","220.0396","39360","39360","34035.6388","td","null","null","null","null","null","null","[1,2]","","",""
"","canvas-keyboard-response","174","196649","0.0-6.0-0.24","565","","","","","pre trial waiting period","null","null","","","catch","l","sh","sw","218","237","217","211","165","229","trueblood","null","null","null","null","null","null","null","null","null","null","null","","180","200","260","200","36000","52000","[1,3]","466.0967270451619","457.9368250989467","452.9083944167498"
"","canvas-keyboard-response","175","196669","0.0-6.0-1.24","565","","","","","clear_screen","null","null","","","catch","l","sh","sw","218","237","217","211","165","229","trueblood","null","null","null","null","null","null","null","null","null","null","null","","180","200","260","200","36000","52000","[1,3]","466.0967270451619","457.9368250989467","452.9083944167498"
"","canvas-keyboard-response","176","197176","0.0-6.0-2.24","565","","","","","rectangles no change","null","null","","","catch","l","sh","sw","218","237","217","211","165","229","trueblood","null","null","null","null","null","null","null","null","null","null","null","","180","200","260","200","36000","52000","[1,3]","466.0967270451619","457.9368250989467","452.9083944167498"
"","canvas-keyboard-response","177","198512","0.0-6.0-3.24","565","","","","","rectangles with change","null","null","","","catch","l","sh","sw","218","237","217","211","165","229","trueblood","null","null","null","null","null","null","null","null","null","null","null","","180","200","260","200","36000","52000","[1,3]","466.0967270451619","457.9368250989467","452.9083944167498"
"","canvas-keyboard-response","178","198530","0.0-6.0-4.24","565","","","","","clear_screen","null","null","","","catch","l","sh","sw","218","237","217","211","165","229","trueblood","null","null","null","null","null","null","null","null","null","null","null","","180","200","260","200","36000","52000","[1,3]","466.0967270451619","457.9368250989467","452.9083944167498"
"","canvas-keyboard-response","179","198944","0.0-6.0-5.24","565","","","","","make choice","403","1","","","catch","l","sh","sw","218","237","217","211","165","229","trueblood","null","null","null","null","null","null","null","null","null","null","null","","180","200","260","200","36000","52000","[1,3]","","",""
"","canvas-keyboard-response","180","198963","0.0-6.0-6.24","565","","","","","clear_screen","null","null","","","catch","l","sh","sw","218","237","217","211","165","229","trueblood","null","null","null","null","null","null","null","null","null","null","null","","180","200","260","200","36000","52000","[1,3]","","",""
"","canvas-keyboard-response","181","199165","0.0-6.0-0.25","565","","","","","pre trial waiting period","null","null","","","critical","c","d","t","164","240","227.1683","158.0083","240","164","spektor","0.09","w","240","164","164","240","227.1683","158.0083","39360","39360","35894.4834","tc","null","null","null","null","null","null","[3,1]","484.2366281725529","215.01242427793463","521.9676408347835"
"","canvas-keyboard-response","182","199185","0.0-6.0-1.25","565","","","","","clear_screen","null","null","","","critical","c","d","t","164","240","227.1683","158.0083","240","164","spektor","0.09","w","240","164","164","240","227.1683","158.0083","39360","39360","35894.4834","tc","null","null","null","null","null","null","[3,1]","484.2366281725529","215.01242427793463","521.9676408347835"
"","canvas-keyboard-response","183","199693","0.0-6.0-2.25","565","","","","","rectangles no change","null","null","","","critical","c","d","t","164","240","227.1683","158.0083","240","164","spektor","0.09","w","240","164","164","240","227.1683","158.0083","39360","39360","35894.4834","tc","null","null","null","null","null","null","[3,1]","484.2366281725529","215.01242427793463","521.9676408347835"
"","canvas-keyboard-response","184","201033","0.0-6.0-3.25","565","","","","","rectangles with change","null","null","","","critical","c","d","t","164","240","227.1683","158.0083","240","164","spektor","0.09","w","240","164","164","240","227.1683","158.0083","39360","39360","35894.4834","tc","null","null","null","null","null","null","[3,1]","484.2366281725529","215.01242427793463","521.9676408347835"
"","canvas-keyboard-response","185","201055","0.0-6.0-4.25","565","","","","","clear_screen","null","null","","","critical","c","d","t","164","240","227.1683","158.0083","240","164","spektor","0.09","w","240","164","164","240","227.1683","158.0083","39360","39360","35894.4834","tc","null","null","null","null","null","null","[3,1]","484.2366281725529","215.01242427793463","521.9676408347835"
"","canvas-keyboard-response","186","201231","0.0-6.0-5.25","565","","","","","make choice","171","3","","","critical","c","d","t","164","240","227.1683","158.0083","240","164","spektor","0.09","w","240","164","164","240","227.1683","158.0083","39360","39360","35894.4834","tc","null","null","null","null","null","null","[3,1]","","",""
"","canvas-keyboard-response","187","201251","0.0-6.0-6.25","565","","","","","clear_screen","null","null","","","critical","c","d","t","164","240","227.1683","158.0083","240","164","spektor","0.09","w","240","164","164","240","227.1683","158.0083","39360","39360","35894.4834","tc","null","null","null","null","null","null","[3,1]","","",""
"","canvas-keyboard-response","188","201452","0.0-6.0-0.26","565","","","","","pre trial waiting period","null","null","","","critical","d","t","c","160.6713","232.8713","164","240","240","164","spektor","0.05","h","164","240","240","164","160.6713","232.8713","39360","39360","37415.7294","td","null","null","null","null","null","null","[2,1]","504.4564109040478","95.71126489884274","497.4840790512686"
"","canvas-keyboard-response","189","201471","0.0-6.0-1.26","565","","","","","clear_screen","null","null","","","critical","d","t","c","160.6713","232.8713","164","240","240","164","spektor","0.05","h","164","240","240","164","160.6713","232.8713","39360","39360","37415.7294","td","null","null","null","null","null","null","[2,1]","504.4564109040478","95.71126489884274","497.4840790512686"
"","canvas-keyboard-response","190","201979","0.0-6.0-2.26","565","","","","","rectangles no change","null","null","","","critical","d","t","c","160.6713","232.8713","164","240","240","164","spektor","0.05","h","164","240","240","164","160.6713","232.8713","39360","39360","37415.7294","td","null","null","null","null","null","null","[2,1]","504.4564109040478","95.71126489884274","497.4840790512686"
"","canvas-keyboard-response","191","203319","0.0-6.0-3.26","565","","","","","rectangles with change","null","null","","","critical","d","t","c","160.6713","232.8713","164","240","240","164","spektor","0.05","h","164","240","240","164","160.6713","232.8713","39360","39360","37415.7294","td","null","null","null","null","null","null","[2,1]","504.4564109040478","95.71126489884274","497.4840790512686"
"","canvas-keyboard-response","192","203339","0.0-6.0-4.26","565","","","","","clear_screen","null","null","","","critical","d","t","c","160.6713","232.8713","164","240","240","164","spektor","0.05","h","164","240","240","164","160.6713","232.8713","39360","39360","37415.7294","td","null","null","null","null","null","null","[2,1]","504.4564109040478","95.71126489884274","497.4840790512686"
"","canvas-keyboard-response","193","204112","0.0-6.0-5.26","565","","","","","make choice","764","2","","","critical","d","t","c","160.6713","232.8713","164","240","240","164","spektor","0.05","h","164","240","240","164","160.6713","232.8713","39360","39360","37415.7294","td","null","null","null","null","null","null","[2,1]","","",""
"","canvas-keyboard-response","194","204130","0.0-6.0-6.26","565","","","","","clear_screen","null","null","","","critical","d","t","c","160.6713","232.8713","164","240","240","164","spektor","0.05","h","164","240","240","164","160.6713","232.8713","39360","39360","37415.7294","td","null","null","null","null","null","null","[2,1]","","",""
"","canvas-keyboard-response","195","204330","0.0-6.0-0.27","565","","","","","pre trial waiting period","null","null","","","critical","d","t","c","154.6796","220.0396","164","240","240","164","spektor","0.14","h","164","240","240","164","154.6796","220.0396","39360","39360","34035.6388","tc","null","null","null","null","null","null","[2,3]","507.25035442709606","126.09345472153595","533.9163971295776"
"","canvas-keyboard-response","196","204353","0.0-6.0-1.27","565","","","","","clear_screen","null","null","","","critical","d","t","c","154.6796","220.0396","164","240","240","164","spektor","0.14","h","164","240","240","164","154.6796","220.0396","39360","39360","34035.6388","tc","null","null","null","null","null","null","[2,3]","507.25035442709606","126.09345472153595","533.9163971295776"
"","canvas-keyboard-response","197","204859","0.0-6.0-2.27","565","","","","","rectangles no change","null","null","","","critical","d","t","c","154.6796","220.0396","164","240","240","164","spektor","0.14","h","164","240","240","164","154.6796","220.0396","39360","39360","34035.6388","tc","null","null","null","null","null","null","[2,3]","507.25035442709606","126.09345472153595","533.9163971295776"
"","canvas-keyboard-response","198","206196","0.0-6.0-3.27","565","","","","","rectangles with change","null","null","","","critical","d","t","c","154.6796","220.0396","164","240","240","164","spektor","0.14","h","164","240","240","164","154.6796","220.0396","39360","39360","34035.6388","tc","null","null","null","null","null","null","[2,3]","507.25035442709606","126.09345472153595","533.9163971295776"
"","canvas-keyboard-response","199","206213","0.0-6.0-4.27","565","","","","","clear_screen","null","null","","","critical","d","t","c","154.6796","220.0396","164","240","240","164","spektor","0.14","h","164","240","240","164","154.6796","220.0396","39360","39360","34035.6388","tc","null","null","null","null","null","null","[2,3]","507.25035442709606","126.09345472153595","533.9163971295776"
"","canvas-keyboard-response","200","208079","0.0-6.0-5.27","565","","","","","make choice","1860","3","","","critical","d","t","c","154.6796","220.0396","164","240","240","164","spektor","0.14","h","164","240","240","164","154.6796","220.0396","39360","39360","34035.6388","tc","null","null","null","null","null","null","[2,3]","","",""
"","canvas-keyboard-response","201","208099","0.0-6.0-6.27","565","","","","","clear_screen","null","null","","","critical","d","t","c","154.6796","220.0396","164","240","240","164","spektor","0.14","h","164","240","240","164","154.6796","220.0396","39360","39360","34035.6388","tc","null","null","null","null","null","null","[2,3]","","",""
"","canvas-keyboard-response","202","208301","0.0-6.0-0.28","565","","","","","pre trial waiting period","null","null","","","critical","t","c","d","240","164","164","240","227.1683","158.0083","trueblood","0.09","w","240","164","164","240","227.1683","158.0083","39360","39360","35894.4834","tc","null","null","null","null","null","null","[1,2]","490.59170942057455","435.456630875492","516.3115834745684"
"","canvas-keyboard-response","203","208320","0.0-6.0-1.28","565","","","","","clear_screen","null","null","","","critical","t","c","d","240","164","164","240","227.1683","158.0083","trueblood","0.09","w","240","164","164","240","227.1683","158.0083","39360","39360","35894.4834","tc","null","null","null","null","null","null","[1,2]","490.59170942057455","435.456630875492","516.3115834745684"
"","canvas-keyboard-response","204","208826","0.0-6.0-2.28","565","","","","","rectangles no change","null","null","","","critical","t","c","d","240","164","164","240","227.1683","158.0083","trueblood","0.09","w","240","164","164","240","227.1683","158.0083","39360","39360","35894.4834","tc","null","null","null","null","null","null","[1,2]","490.59170942057455","435.456630875492","516.3115834745684"
"","canvas-keyboard-response","205","210162","0.0-6.0-3.28","565","","","","","rectangles with change","null","null","","","critical","t","c","d","240","164","164","240","227.1683","158.0083","trueblood","0.09","w","240","164","164","240","227.1683","158.0083","39360","39360","35894.4834","tc","null","null","null","null","null","null","[1,2]","490.59170942057455","435.456630875492","516.3115834745684"
"","canvas-keyboard-response","206","210181","0.0-6.0-4.28","565","","","","","clear_screen","null","null","","","critical","t","c","d","240","164","164","240","227.1683","158.0083","trueblood","0.09","w","240","164","164","240","227.1683","158.0083","39360","39360","35894.4834","tc","null","null","null","null","null","null","[1,2]","490.59170942057455","435.456630875492","516.3115834745684"
"","canvas-keyboard-response","207","210959","0.0-6.0-5.28","565","","","","","make choice","772","1","","","critical","t","c","d","240","164","164","240","227.1683","158.0083","trueblood","0.09","w","240","164","164","240","227.1683","158.0083","39360","39360","35894.4834","tc","null","null","null","null","null","null","[1,2]","","",""
"","canvas-keyboard-response","208","210979","0.0-6.0-6.28","565","","","","","clear_screen","null","null","","","critical","t","c","d","240","164","164","240","227.1683","158.0083","trueblood","0.09","w","240","164","164","240","227.1683","158.0083","39360","39360","35894.4834","tc","null","null","null","null","null","null","[1,2]","","",""
"","canvas-keyboard-response","209","211180","0.0-6.0-0.29","565","","","","","pre trial waiting period","null","null","","","critical","c","d","t","240","164","162.6685","237.1485","164","240","trueblood","0.02","h","164","240","240","164","162.6685","237.1485","39360","39360","38576.5967","dc","null","null","null","null","null","null","[2,1]","508.0657990353017","428.47980050317835","427.11002051246317"
"","canvas-keyboard-response","210","211200","0.0-6.0-1.29","565","","","","","clear_screen","null","null","","","critical","c","d","t","240","164","162.6685","237.1485","164","240","trueblood","0.02","h","164","240","240","164","162.6685","237.1485","39360","39360","38576.5967","dc","null","null","null","null","null","null","[2,1]","508.0657990353017","428.47980050317835","427.11002051246317"
"","canvas-keyboard-response","211","211707","0.0-6.0-2.29","565","","","","","rectangles no change","null","null","","","critical","c","d","t","240","164","162.6685","237.1485","164","240","trueblood","0.02","h","164","240","240","164","162.6685","237.1485","39360","39360","38576.5967","dc","null","null","null","null","null","null","[2,1]","508.0657990353017","428.47980050317835","427.11002051246317"
"","canvas-keyboard-response","212","213044","0.0-6.0-3.29","565","","","","","rectangles with change","null","null","","","critical","c","d","t","240","164","162.6685","237.1485","164","240","trueblood","0.02","h","164","240","240","164","162.6685","237.1485","39360","39360","38576.5967","dc","null","null","null","null","null","null","[2,1]","508.0657990353017","428.47980050317835","427.11002051246317"
"","canvas-keyboard-response","213","213063","0.0-6.0-4.29","565","","","","","clear_screen","null","null","","","critical","c","d","t","240","164","162.6685","237.1485","164","240","trueblood","0.02","h","164","240","240","164","162.6685","237.1485","39360","39360","38576.5967","dc","null","null","null","null","null","null","[2,1]","508.0657990353017","428.47980050317835","427.11002051246317"
"","canvas-keyboard-response","214","213184","0.0-6.0-5.29","565","","","","","make choice","114","1","","","critical","c","d","t","240","164","162.6685","237.1485","164","240","trueblood","0.02","h","164","240","240","164","162.6685","237.1485","39360","39360","38576.5967","dc","null","null","null","null","null","null","[2,1]","","",""
"","canvas-keyboard-response","215","213202","0.0-6.0-6.29","565","","","","","clear_screen","null","null","","","critical","c","d","t","240","164","162.6685","237.1485","164","240","trueblood","0.02","h","164","240","240","164","162.6685","237.1485","39360","39360","38576.5967","dc","null","null","null","null","null","null","[2,1]","","",""
"","canvas-keyboard-response","216","213404","0.0-6.0-0.30","565","","","","","pre trial waiting period","null","null","","","critical","c","d","t","164","240","227.1683","158.0083","240","164","spektor","0.09","w","240","164","164","240","227.1683","158.0083","39360","39360","35894.4834","td","null","null","null","null","null","null","[3,2]","482.05290744630446","204.58616256583264","539.7585601974578"
"","canvas-keyboard-response","217","213423","0.0-6.0-1.30","565","","","","","clear_screen","null","null","","","critical","c","d","t","164","240","227.1683","158.0083","240","164","spektor","0.09","w","240","164","164","240","227.1683","158.0083","39360","39360","35894.4834","td","null","null","null","null","null","null","[3,2]","482.05290744630446","204.58616256583264","539.7585601974578"
"","canvas-keyboard-response","218","213932","0.0-6.0-2.30","565","","","","","rectangles no change","null","null","","","critical","c","d","t","164","240","227.1683","158.0083","240","164","spektor","0.09","w","240","164","164","240","227.1683","158.0083","39360","39360","35894.4834","td","null","null","null","null","null","null","[3,2]","482.05290744630446","204.58616256583264","539.7585601974578"
"","canvas-keyboard-response","219","215271","0.0-6.0-3.30","565","","","","","rectangles with change","null","null","","","critical","c","d","t","164","240","227.1683","158.0083","240","164","spektor","0.09","w","240","164","164","240","227.1683","158.0083","39360","39360","35894.4834","td","null","null","null","null","null","null","[3,2]","482.05290744630446","204.58616256583264","539.7585601974578"
"","canvas-keyboard-response","220","215295","0.0-6.0-4.30","565","","","","","clear_screen","null","null","","","critical","c","d","t","164","240","227.1683","158.0083","240","164","spektor","0.09","w","240","164","164","240","227.1683","158.0083","39360","39360","35894.4834","td","null","null","null","null","null","null","[3,2]","482.05290744630446","204.58616256583264","539.7585601974578"
"","canvas-keyboard-response","221","215967","0.0-6.0-5.30","565","","","","","make choice","665","3","","","critical","c","d","t","164","240","227.1683","158.0083","240","164","spektor","0.09","w","240","164","164","240","227.1683","158.0083","39360","39360","35894.4834","td","null","null","null","null","null","null","[3,2]","","",""
"","canvas-keyboard-response","222","215985","0.0-6.0-6.30","565","","","","","clear_screen","null","null","","","critical","c","d","t","164","240","227.1683","158.0083","240","164","spektor","0.09","w","240","164","164","240","227.1683","158.0083","39360","39360","35894.4834","td","null","null","null","null","null","null","[3,2]","","",""
"","canvas-keyboard-response","223","216186","0.0-6.0-0.31","565","","","","","pre trial waiting period","null","null","","","catch","l","sw","sh","210","284","189","206","165","179","spektor","null","null","null","null","null","null","null","null","null","null","null","","180","200","260","200","36000","52000","[1,3]","480.63006977545336","126.41999382610959","532.4156063303742"
"","canvas-keyboard-response","224","216208","0.0-6.0-1.31","565","","","","","clear_screen","null","null","","","catch","l","sw","sh","210","284","189","206","165","179","spektor","null","null","null","null","null","null","null","null","null","null","null","","180","200","260","200","36000","52000","[1,3]","480.63006977545336","126.41999382610959","532.4156063303742"
"","canvas-keyboard-response","225","216714","0.0-6.0-2.31","565","","","","","rectangles no change","null","null","","","catch","l","sw","sh","210","284","189","206","165","179","spektor","null","null","null","null","null","null","null","null","null","null","null","","180","200","260","200","36000","52000","[1,3]","480.63006977545336","126.41999382610959","532.4156063303742"
"","canvas-keyboard-response","226","218051","0.0-6.0-3.31","565","","","","","rectangles with change","null","null","","","catch","l","sw","sh","210","284","189","206","165","179","spektor","null","null","null","null","null","null","null","null","null","null","null","","180","200","260","200","36000","52000","[1,3]","480.63006977545336","126.41999382610959","532.4156063303742"
"","canvas-keyboard-response","227","218071","0.0-6.0-4.31","565","","","","","clear_screen","null","null","","","catch","l","sw","sh","210","284","189","206","165","179","spektor","null","null","null","null","null","null","null","null","null","null","null","","180","200","260","200","36000","52000","[1,3]","480.63006977545336","126.41999382610959","532.4156063303742"
"","canvas-keyboard-response","228","218816","0.0-6.0-5.31","565","","","","","make choice","739","1","","","catch","l","sw","sh","210","284","189","206","165","179","spektor","null","null","null","null","null","null","null","null","null","null","null","","180","200","260","200","36000","52000","[1,3]","","",""
"","canvas-keyboard-response","229","218836","0.0-6.0-6.31","565","","","","","clear_screen","null","null","","","catch","l","sw","sh","210","284","189","206","165","179","spektor","null","null","null","null","null","null","null","null","null","null","null","","180","200","260","200","36000","52000","[1,3]","","",""
"","canvas-keyboard-response","230","219037","0.0-6.0-0.32","565","","","","","pre trial waiting period","null","null","","","critical","c","d","t","240","164","162.6685","237.1485","164","240","spektor","0.02","h","164","240","240","164","162.6685","237.1485","39360","39360","38576.5967","dc","null","null","null","null","null","null","[2,1]","519.6877191362012","114.51462398083255","468.7437674892378"
"","canvas-keyboard-response","231","219055","0.0-6.0-1.32","565","","","","","clear_screen","null","null","","","critical","c","d","t","240","164","162.6685","237.1485","164","240","spektor","0.02","h","164","240","240","164","162.6685","237.1485","39360","39360","38576.5967","dc","null","null","null","null","null","null","[2,1]","519.6877191362012","114.51462398083255","468.7437674892378"
"","canvas-keyboard-response","232","219561","0.0-6.0-2.32","565","","","","","rectangles no change","null","null","","","critical","c","d","t","240","164","162.6685","237.1485","164","240","spektor","0.02","h","164","240","240","164","162.6685","237.1485","39360","39360","38576.5967","dc","null","null","null","null","null","null","[2,1]","519.6877191362012","114.51462398083255","468.7437674892378"
"","canvas-keyboard-response","233","220896","0.0-6.0-3.32","565","","","","","rectangles with change","null","null","","","critical","c","d","t","240","164","162.6685","237.1485","164","240","spektor","0.02","h","164","240","240","164","162.6685","237.1485","39360","39360","38576.5967","dc","null","null","null","null","null","null","[2,1]","519.6877191362012","114.51462398083255","468.7437674892378"
"","canvas-keyboard-response","234","220919","0.0-6.0-4.32","565","","","","","clear_screen","null","null","","","critical","c","d","t","240","164","162.6685","237.1485","164","240","spektor","0.02","h","164","240","240","164","162.6685","237.1485","39360","39360","38576.5967","dc","null","null","null","null","null","null","[2,1]","519.6877191362012","114.51462398083255","468.7437674892378"
"","canvas-keyboard-response","235","221535","0.0-6.0-5.32","565","","","","","make choice","610","1","","","critical","c","d","t","240","164","162.6685","237.1485","164","240","spektor","0.02","h","164","240","240","164","162.6685","237.1485","39360","39360","38576.5967","dc","null","null","null","null","null","null","[2,1]","","",""
"","canvas-keyboard-response","236","221555","0.0-6.0-6.32","565","","","","","clear_screen","null","null","","","critical","c","d","t","240","164","162.6685","237.1485","164","240","spektor","0.02","h","164","240","240","164","162.6685","237.1485","39360","39360","38576.5967","dc","null","null","null","null","null","null","[2,1]","","",""
"","canvas-keyboard-response","237","221756","0.0-6.0-0.33","565","","","","","pre trial waiting period","null","null","","","catch","l","sh","sw","270","210","206","161","188","230","trueblood","null","null","null","null","null","null","null","null","null","null","null","","180","200","260","200","36000","52000","[1,3]","447.68223031427897","475.78063361226623","466.36511427146246"
"","canvas-keyboard-response","238","221780","0.0-6.0-1.33","565","","","","","clear_screen","null","null","","","catch","l","sh","sw","270","210","206","161","188","230","trueblood","null","null","null","null","null","null","null","null","null","null","null","","180","200","260","200","36000","52000","[1,3]","447.68223031427897","475.78063361226623","466.36511427146246"
"","canvas-keyboard-response","239","222287","0.0-6.0-2.33","565","","","","","rectangles no change","null","null","","","catch","l","sh","sw","270","210","206","161","188","230","trueblood","null","null","null","null","null","null","null","null","null","null","null","","180","200","260","200","36000","52000","[1,3]","447.68223031427897","475.78063361226623","466.36511427146246"
"","canvas-keyboard-response","240","223626","0.0-6.0-3.33","565","","","","","rectangles with change","null","null","","","catch","l","sh","sw","270","210","206","161","188","230","trueblood","null","null","null","null","null","null","null","null","null","null","null","","180","200","260","200","36000","52000","[1,3]","447.68223031427897","475.78063361226623","466.36511427146246"
"","canvas-keyboard-response","241","223648","0.0-6.0-4.33","565","","","","","clear_screen","null","null","","","catch","l","sh","sw","270","210","206","161","188","230","trueblood","null","null","null","null","null","null","null","null","null","null","null","","180","200","260","200","36000","52000","[1,3]","447.68223031427897","475.78063361226623","466.36511427146246"
"","canvas-keyboard-response","242","224040","0.0-6.0-5.33","565","","","","","make choice","385","1","","","catch","l","sh","sw","270","210","206","161","188","230","trueblood","null","null","null","null","null","null","null","null","null","null","null","","180","200","260","200","36000","52000","[1,3]","","",""
"","canvas-keyboard-response","243","224059","0.0-6.0-6.33","565","","","","","clear_screen","null","null","","","catch","l","sh","sw","270","210","206","161","188","230","trueblood","null","null","null","null","null","null","null","null","null","null","null","","180","200","260","200","36000","52000","[1,3]","","",""
"","canvas-keyboard-response","244","224260","0.0-6.0-0.34","565","","","","","pre trial waiting period","null","null","","","critical","t","d","c","240","164","232.8713","160.6713","164","240","trueblood","0.05","w","240","164","164","240","232.8713","160.6713","39360","39360","37415.7294","tc","null","null","null","null","null","null","[1,3]","471.5187070452204","481.85098122200765","466.12745016933513"
"","canvas-keyboard-response","245","224283","0.0-6.0-1.34","565","","","","","clear_screen","null","null","","","critical","t","d","c","240","164","232.8713","160.6713","164","240","trueblood","0.05","w","240","164","164","240","232.8713","160.6713","39360","39360","37415.7294","tc","null","null","null","null","null","null","[1,3]","471.5187070452204","481.85098122200765","466.12745016933513"
"","canvas-keyboard-response","246","224790","0.0-6.0-2.34","565","","","","","rectangles no change","null","null","","","critical","t","d","c","240","164","232.8713","160.6713","164","240","trueblood","0.05","w","240","164","164","240","232.8713","160.6713","39360","39360","37415.7294","tc","null","null","null","null","null","null","[1,3]","471.5187070452204","481.85098122200765","466.12745016933513"
"","canvas-keyboard-response","247","226128","0.0-6.0-3.34","565","","","","","rectangles with change","null","null","","","critical","t","d","c","240","164","232.8713","160.6713","164","240","trueblood","0.05","w","240","164","164","240","232.8713","160.6713","39360","39360","37415.7294","tc","null","null","null","null","null","null","[1,3]","471.5187070452204","481.85098122200765","466.12745016933513"
"","canvas-keyboard-response","248","226147","0.0-6.0-4.34","565","","","","","clear_screen","null","null","","","critical","t","d","c","240","164","232.8713","160.6713","164","240","trueblood","0.05","w","240","164","164","240","232.8713","160.6713","39360","39360","37415.7294","tc","null","null","null","null","null","null","[1,3]","471.5187070452204","481.85098122200765","466.12745016933513"
"","canvas-keyboard-response","249","226631","0.0-6.0-5.34","565","","","","","make choice","478","1","","","critical","t","d","c","240","164","232.8713","160.6713","164","240","trueblood","0.05","w","240","164","164","240","232.8713","160.6713","39360","39360","37415.7294","tc","null","null","null","null","null","null","[1,3]","","",""
"","canvas-keyboard-response","250","226651","0.0-6.0-6.34","565","","","","","clear_screen","null","null","","","critical","t","d","c","240","164","232.8713","160.6713","164","240","trueblood","0.05","w","240","164","164","240","232.8713","160.6713","39360","39360","37415.7294","tc","null","null","null","null","null","null","[1,3]","","",""
"","canvas-keyboard-response","251","226852","0.0-6.0-0.35","565","","","","","pre trial waiting period","null","null","","","catch","sh","sw","l","228","200","143","200","223","290","spektor","null","null","null","null","null","null","null","null","null","null","null","","180","200","260","200","36000","52000","[1,3]","502.36185246864983","147.02831180609274","439.6806806081771"
"","canvas-keyboard-response","252","226872","0.0-6.0-1.35","565","","","","","clear_screen","null","null","","","catch","sh","sw","l","228","200","143","200","223","290","spektor","null","null","null","null","null","null","null","null","null","null","null","","180","200","260","200","36000","52000","[1,3]","502.36185246864983","147.02831180609274","439.6806806081771"
"","canvas-keyboard-response","253","227379","0.0-6.0-2.35","565","","","","","rectangles no change","null","null","","","catch","sh","sw","l","228","200","143","200","223","290","spektor","null","null","null","null","null","null","null","null","null","null","null","","180","200","260","200","36000","52000","[1,3]","502.36185246864983","147.02831180609274","439.6806806081771"
"","canvas-keyboard-response","254","228716","0.0-6.0-3.35","565","","","","","rectangles with change","null","null","","","catch","sh","sw","l","228","200","143","200","223","290","spektor","null","null","null","null","null","null","null","null","null","null","null","","180","200","260","200","36000","52000","[1,3]","502.36185246864983","147.02831180609274","439.6806806081771"
"","canvas-keyboard-response","255","228739","0.0-6.0-4.35","565","","","","","clear_screen","null","null","","","catch","sh","sw","l","228","200","143","200","223","290","spektor","null","null","null","null","null","null","null","null","null","null","null","","180","200","260","200","36000","52000","[1,3]","502.36185246864983","147.02831180609274","439.6806806081771"
"","canvas-keyboard-response","256","229232","0.0-6.0-5.35","565","","","","","make choice","482","1","","","catch","sh","sw","l","228","200","143","200","223","290","spektor","null","null","null","null","null","null","null","null","null","null","null","","180","200","260","200","36000","52000","[1,3]","","",""
"","canvas-keyboard-response","257","229252","0.0-6.0-6.35","565","","","","","clear_screen","null","null","","","catch","sh","sw","l","228","200","143","200","223","290","spektor","null","null","null","null","null","null","null","null","null","null","null","","180","200","260","200","36000","52000","[1,3]","","",""
"","canvas-keyboard-response","258","229454","0.0-6.0-0.36","565","","","","","pre trial waiting period","null","null","","","critical","d","t","c","154.6796","220.0396","164","240","240","164","trueblood","0.14","h","164","240","240","164","154.6796","220.0396","39360","39360","34035.6388","tc","null","null","null","null","null","null","[2,3]","439.934828046109","445.5478590353895","470.87802072330703"
"","canvas-keyboard-response","259","229472","0.0-6.0-1.36","565","","","","","clear_screen","null","null","","","critical","d","t","c","154.6796","220.0396","164","240","240","164","trueblood","0.14","h","164","240","240","164","154.6796","220.0396","39360","39360","34035.6388","tc","null","null","null","null","null","null","[2,3]","439.934828046109","445.5478590353895","470.87802072330703"
"","canvas-keyboard-response","260","229980","0.0-6.0-2.36","565","","","","","rectangles no change","null","null","","","critical","d","t","c","154.6796","220.0396","164","240","240","164","trueblood","0.14","h","164","240","240","164","154.6796","220.0396","39360","39360","34035.6388","tc","null","null","null","null","null","null","[2,3]","439.934828046109","445.5478590353895","470.87802072330703"
"","canvas-keyboard-response","261","231319","0.0-6.0-3.36","565","","","","","rectangles with change","null","null","","","critical","d","t","c","154.6796","220.0396","164","240","240","164","trueblood","0.14","h","164","240","240","164","154.6796","220.0396","39360","39360","34035.6388","tc","null","null","null","null","null","null","[2,3]","439.934828046109","445.5478590353895","470.87802072330703"
"","canvas-keyboard-response","262","231343","0.0-6.0-4.36","565","","","","","clear_screen","null","null","","","critical","d","t","c","154.6796","220.0396","164","240","240","164","trueblood","0.14","h","164","240","240","164","154.6796","220.0396","39360","39360","34035.6388","tc","null","null","null","null","null","null","[2,3]","439.934828046109","445.5478590353895","470.87802072330703"
"","canvas-keyboard-response","263","233312","0.0-6.0-5.36","565","","","","","make choice","1964","3","","","critical","d","t","c","154.6796","220.0396","164","240","240","164","trueblood","0.14","h","164","240","240","164","154.6796","220.0396","39360","39360","34035.6388","tc","null","null","null","null","null","null","[2,3]","","",""
"","canvas-keyboard-response","264","233331","0.0-6.0-6.36","565","","","","","clear_screen","null","null","","","critical","d","t","c","154.6796","220.0396","164","240","240","164","trueblood","0.14","h","164","240","240","164","154.6796","220.0396","39360","39360","34035.6388","tc","null","null","null","null","null","null","[2,3]","","",""
"","canvas-keyboard-response","265","233532","0.0-6.0-0.37","565","","","","","pre trial waiting period","null","null","","","catch","l","sh","sw","235","282","200","179","176","198","spektor","null","null","null","null","null","null","null","null","null","null","null","","180","200","260","200","36000","52000","[1,2]","442.81191880187873","168.51304494361312","481.1155258760297"
