"success","trial_type","trial_index","time_elapsed","internal_node_id","sub_n","timeout","failed_images","failed_audio","failed_video","screen_id","rt","response","stimulus","view_history","trial","r1","r2","r3","w1","h1","w2","h2","w3","h3","display","tdd","tdo","tw","th","cw","ch","dw","dh","ta","ca","da","probe","csls","csss","clls","clss","sa","la","probe_rects","r1yloc","r2yloc","r3yloc"
"true","fullscreen","0","2856","0.0-0.0","548","","","","","","","","","","","","","","","","","","","","","","","","","","","","","","","","","","","","","","","","","",""
"true","preload","1","2875","0.0-1.0","548","false","[]","[]","[]","img preload","","","","","","","","","","","","","","","","","","","","","","","","","","","","","","","","","","","","",""
"","survey-html-form","2","3719253","0.0-2.0","548","","","","","enter-sub-number","3716371","{""response"":""548""}","","","","","","","","","","","","","","","","","","","","","","","","","","","","","","","","","","",""
"","image-button-response","3","3749515","0.0-3.0","548","","","","","","30192","0","consent.png","","","","","","","","","","","","","","","","","","","","","","","","","","","","","","","","","",""
"","html-button-response","4","3758035","0.0-4.0","548","","","","","intro mssg","8513","0","<div style= ""font-size:25px;"" <p> <strong> Welcome! </strong><br> <p style=""color:#8B0000; font-size:25px;""><strong> Please do NOT exit full screen until you are done with the experiment. </strong> </p><p style=""font-size:25px;color:#8B0000;""> <strong> Your data will be lost <br> if you try to go back or refresh the page after the experiment starts. Feel free to click ""previous"" during the instructions, however.</strong> </p><br><p> <strong> Thanks in advance for your contribution to our research! </strong></p>","","","","","","","","","","","","","","","","","","","","","","","","","","","","","","","","","",""
"","instructions","5","3805163","0.0-5.0","548","","","","","instructions","47121","","","[{""page_index"":0,""viewing_time"":12071},{""page_index"":1,""viewing_time"":8064},{""page_index"":2,""viewing_time"":4402},{""page_index"":3,""viewing_time"":10120},{""page_index"":4,""viewing_time"":7704},{""page_index"":5,""viewing_time"":1984},{""page_index"":6,""viewing_time"":1976},{""page_index"":7,""viewing_time"":800}]","","","","","","","","","","","","","","","","","","","","","","","","","","","","","","","","",""
"","canvas-keyboard-response","6","3805368","0.0-6.0-0.0","548","","","","","pre trial waiting period","null","null","","","critical","t","c","d","240","164","164","240","237.1485","162.6685","spektor","0.02","w","240","164","164","240","237.1485","162.6685","39360","39360","38576.5967","td","null","null","null","null","null","null","[1,3]","512.243018606262","110.14102925084748","538.8062327883142"
"","canvas-keyboard-response","7","3805394","0.0-6.0-1.0","548","","","","","clear_screen","null","null","","","critical","t","c","d","240","164","164","240","237.1485","162.6685","spektor","0.02","w","240","164","164","240","237.1485","162.6685","39360","39360","38576.5967","td","null","null","null","null","null","null","[1,3]","512.243018606262","110.14102925084748","538.8062327883142"
"","canvas-keyboard-response","8","3805905","0.0-6.0-2.0","548","","","","","rectangles no change","null","null","","","critical","t","c","d","240","164","164","240","237.1485","162.6685","spektor","0.02","w","240","164","164","240","237.1485","162.6685","39360","39360","38576.5967","td","null","null","null","null","null","null","[1,3]","512.243018606262","110.14102925084748","538.8062327883142"
"","canvas-keyboard-response","9","3807241","0.0-6.0-3.0","548","","","","","rectangles with change","null","null","","","critical","t","c","d","240","164","164","240","237.1485","162.6685","spektor","0.02","w","240","164","164","240","237.1485","162.6685","39360","39360","38576.5967","td","null","null","null","null","null","null","[1,3]","512.243018606262","110.14102925084748","538.8062327883142"
"","canvas-keyboard-response","10","3807261","0.0-6.0-4.0","548","","","","","clear_screen","null","null","","","critical","t","c","d","240","164","164","240","237.1485","162.6685","spektor","0.02","w","240","164","164","240","237.1485","162.6685","39360","39360","38576.5967","td","null","null","null","null","null","null","[1,3]","512.243018606262","110.14102925084748","538.8062327883142"
"","canvas-keyboard-response","11","3811159","0.0-6.0-5.0","548","","","","","make choice","3891","1","","","critical","t","c","d","240","164","164","240","237.1485","162.6685","spektor","0.02","w","240","164","164","240","237.1485","162.6685","39360","39360","38576.5967","td","null","null","null","null","null","null","[1,3]","","",""
"","canvas-keyboard-response","12","3811178","0.0-6.0-6.0","548","","","","","clear_screen","null","null","","","critical","t","c","d","240","164","164","240","237.1485","162.6685","spektor","0.02","w","240","164","164","240","237.1485","162.6685","39360","39360","38576.5967","td","null","null","null","null","null","null","[1,3]","","",""
"","canvas-keyboard-response","13","3811379","0.0-6.0-0.1","548","","","","","pre trial waiting period","null","null","","","critical","c","d","t","164","240","220.0396","154.6796","240","164","trueblood","0.14","w","240","164","164","240","220.0396","154.6796","39360","39360","34035.6388","dc","null","null","null","null","null","null","[2,1]","422.19352738804315","523.4938756577062","481.2585399576362"
"","canvas-keyboard-response","14","3811404","0.0-6.0-1.1","548","","","","","clear_screen","null","null","","","critical","c","d","t","164","240","220.0396","154.6796","240","164","trueblood","0.14","w","240","164","164","240","220.0396","154.6796","39360","39360","34035.6388","dc","null","null","null","null","null","null","[2,1]","422.19352738804315","523.4938756577062","481.2585399576362"
"","canvas-keyboard-response","15","3811915","0.0-6.0-2.1","548","","","","","rectangles no change","null","null","","","critical","c","d","t","164","240","220.0396","154.6796","240","164","trueblood","0.14","w","240","164","164","240","220.0396","154.6796","39360","39360","34035.6388","dc","null","null","null","null","null","null","[2,1]","422.19352738804315","523.4938756577062","481.2585399576362"
"","canvas-keyboard-response","16","3813253","0.0-6.0-3.1","548","","","","","rectangles with change","null","null","","","critical","c","d","t","164","240","220.0396","154.6796","240","164","trueblood","0.14","w","240","164","164","240","220.0396","154.6796","39360","39360","34035.6388","dc","null","null","null","null","null","null","[2,1]","422.19352738804315","523.4938756577062","481.2585399576362"
"","canvas-keyboard-response","17","3813276","0.0-6.0-4.1","548","","","","","clear_screen","null","null","","","critical","c","d","t","164","240","220.0396","154.6796","240","164","trueblood","0.14","w","240","164","164","240","220.0396","154.6796","39360","39360","34035.6388","dc","null","null","null","null","null","null","[2,1]","422.19352738804315","523.4938756577062","481.2585399576362"
"","canvas-keyboard-response","18","3815703","0.0-6.0-5.1","548","","","","","make choice","2417","2","","","critical","c","d","t","164","240","220.0396","154.6796","240","164","trueblood","0.14","w","240","164","164","240","220.0396","154.6796","39360","39360","34035.6388","dc","null","null","null","null","null","null","[2,1]","","",""
"","canvas-keyboard-response","19","3815721","0.0-6.0-6.1","548","","","","","clear_screen","null","null","","","critical","c","d","t","164","240","220.0396","154.6796","240","164","trueblood","0.14","w","240","164","164","240","220.0396","154.6796","39360","39360","34035.6388","dc","null","null","null","null","null","null","[2,1]","","",""
"","canvas-keyboard-response","20","3815922","0.0-6.0-0.2","548","","","","","pre trial waiting period","null","null","","","catch","sw","sh","l","180","200","231","141","237","233","spektor","null","null","null","null","null","null","null","null","null","null","null","","180","200","260","200","36000","52000","[1,3]","517.811445955659","222.05148933980092","462.1914814783938"
"","canvas-keyboard-response","21","3815942","0.0-6.0-1.2","548","","","","","clear_screen","null","null","","","catch","sw","sh","l","180","200","231","141","237","233","spektor","null","null","null","null","null","null","null","null","null","null","null","","180","200","260","200","36000","52000","[1,3]","517.811445955659","222.05148933980092","462.1914814783938"
"","canvas-keyboard-response","22","3816449","0.0-6.0-2.2","548","","","","","rectangles no change","null","null","","","catch","sw","sh","l","180","200","231","141","237","233","spektor","null","null","null","null","null","null","null","null","null","null","null","","180","200","260","200","36000","52000","[1,3]","517.811445955659","222.05148933980092","462.1914814783938"
"","canvas-keyboard-response","23","3817786","0.0-6.0-3.2","548","","","","","rectangles with change","null","null","","","catch","sw","sh","l","180","200","231","141","237","233","spektor","null","null","null","null","null","null","null","null","null","null","null","","180","200","260","200","36000","52000","[1,3]","517.811445955659","222.05148933980092","462.1914814783938"
"","canvas-keyboard-response","24","3817804","0.0-6.0-4.2","548","","","","","clear_screen","null","null","","","catch","sw","sh","l","180","200","231","141","237","233","spektor","null","null","null","null","null","null","null","null","null","null","null","","180","200","260","200","36000","52000","[1,3]","517.811445955659","222.05148933980092","462.1914814783938"
"","canvas-keyboard-response","25","3819158","0.0-6.0-5.2","548","","","","","make choice","1346","3","","","catch","sw","sh","l","180","200","231","141","237","233","spektor","null","null","null","null","null","null","null","null","null","null","null","","180","200","260","200","36000","52000","[1,3]","","",""
"","canvas-keyboard-response","26","3819181","0.0-6.0-6.2","548","","","","","clear_screen","null","null","","","catch","sw","sh","l","180","200","231","141","237","233","spektor","null","null","null","null","null","null","null","null","null","null","null","","180","200","260","200","36000","52000","[1,3]","","",""
"","canvas-keyboard-response","27","3819382","0.0-6.0-0.3","548","","","","","pre trial waiting period","null","null","","","critical","d","t","c","164","240","164","240","240","164","spektor","0","h","164","240","240","164","164","240","39360","39360","39360","td","null","null","null","null","null","null","[2,1]","482.7907641072731","112.27257081787288","511.3285558122239"
"","canvas-keyboard-response","28","3819402","0.0-6.0-1.3","548","","","","","clear_screen","null","null","","","critical","d","t","c","164","240","164","240","240","164","spektor","0","h","164","240","240","164","164","240","39360","39360","39360","td","null","null","null","null","null","null","[2,1]","482.7907641072731","112.27257081787288","511.3285558122239"
"","canvas-keyboard-response","29","3819910","0.0-6.0-2.3","548","","","","","rectangles no change","null","null","","","critical","d","t","c","164","240","164","240","240","164","spektor","0","h","164","240","240","164","164","240","39360","39360","39360","td","null","null","null","null","null","null","[2,1]","482.7907641072731","112.27257081787288","511.3285558122239"
"","canvas-keyboard-response","30","3821249","0.0-6.0-3.3","548","","","","","rectangles with change","null","null","","","critical","d","t","c","164","240","164","240","240","164","spektor","0","h","164","240","240","164","164","240","39360","39360","39360","td","null","null","null","null","null","null","[2,1]","482.7907641072731","112.27257081787288","511.3285558122239"
"","canvas-keyboard-response","31","3821269","0.0-6.0-4.3","548","","","","","clear_screen","null","null","","","critical","d","t","c","164","240","164","240","240","164","spektor","0","h","164","240","240","164","164","240","39360","39360","39360","td","null","null","null","null","null","null","[2,1]","482.7907641072731","112.27257081787288","511.3285558122239"
"","canvas-keyboard-response","32","3822854","0.0-6.0-5.3","548","","","","","make choice","1579","2","","","critical","d","t","c","164","240","164","240","240","164","spektor","0","h","164","240","240","164","164","240","39360","39360","39360","td","null","null","null","null","null","null","[2,1]","","",""
"","canvas-keyboard-response","33","3822872","0.0-6.0-6.3","548","","","","","clear_screen","null","null","","","critical","d","t","c","164","240","164","240","240","164","spektor","0","h","164","240","240","164","164","240","39360","39360","39360","td","null","null","null","null","null","null","[2,1]","","",""
"","canvas-keyboard-response","34","3823073","0.0-6.0-0.4","548","","","","","pre trial waiting period","null","null","","","critical","t","c","d","164","240","240","164","160.6713","232.8713","spektor","0.05","h","164","240","240","164","160.6713","232.8713","39360","39360","37415.7294","dc","null","null","null","null","null","null","[3,2]","464.07489073002887","169.35684471243363","496.65168524509346"
"","canvas-keyboard-response","35","3823097","0.0-6.0-1.4","548","","","","","clear_screen","null","null","","","critical","t","c","d","164","240","240","164","160.6713","232.8713","spektor","0.05","h","164","240","240","164","160.6713","232.8713","39360","39360","37415.7294","dc","null","null","null","null","null","null","[3,2]","464.07489073002887","169.35684471243363","496.65168524509346"
"","canvas-keyboard-response","36","3823605","0.0-6.0-2.4","548","","","","","rectangles no change","null","null","","","critical","t","c","d","164","240","240","164","160.6713","232.8713","spektor","0.05","h","164","240","240","164","160.6713","232.8713","39360","39360","37415.7294","dc","null","null","null","null","null","null","[3,2]","464.07489073002887","169.35684471243363","496.65168524509346"
"","canvas-keyboard-response","37","3824947","0.0-6.0-3.4","548","","","","","rectangles with change","null","null","","","critical","t","c","d","164","240","240","164","160.6713","232.8713","spektor","0.05","h","164","240","240","164","160.6713","232.8713","39360","39360","37415.7294","dc","null","null","null","null","null","null","[3,2]","464.07489073002887","169.35684471243363","496.65168524509346"
"","canvas-keyboard-response","38","3824968","0.0-6.0-4.4","548","","","","","clear_screen","null","null","","","critical","t","c","d","164","240","240","164","160.6713","232.8713","spektor","0.05","h","164","240","240","164","160.6713","232.8713","39360","39360","37415.7294","dc","null","null","null","null","null","null","[3,2]","464.07489073002887","169.35684471243363","496.65168524509346"
"","canvas-keyboard-response","39","3826206","0.0-6.0-5.4","548","","","","","make choice","1233","2","","","critical","t","c","d","164","240","240","164","160.6713","232.8713","spektor","0.05","h","164","240","240","164","160.6713","232.8713","39360","39360","37415.7294","dc","null","null","null","null","null","null","[3,2]","","",""
"","canvas-keyboard-response","40","3826225","0.0-6.0-6.4","548","","","","","clear_screen","null","null","","","critical","t","c","d","164","240","240","164","160.6713","232.8713","spektor","0.05","h","164","240","240","164","160.6713","232.8713","39360","39360","37415.7294","dc","null","null","null","null","null","null","[3,2]","","",""
"","canvas-keyboard-response","41","3826426","0.0-6.0-0.5","548","","","","","pre trial waiting period","null","null","","","critical","c","d","t","240","164","162.6685","237.1485","164","240","spektor","0.02","h","164","240","240","164","162.6685","237.1485","39360","39360","38576.5967","tc","null","null","null","null","null","null","[3,1]","508.8042684947514","129.16045664335718","456.34203994893545"
"","canvas-keyboard-response","42","3826450","0.0-6.0-1.5","548","","","","","clear_screen","null","null","","","critical","c","d","t","240","164","162.6685","237.1485","164","240","spektor","0.02","h","164","240","240","164","162.6685","237.1485","39360","39360","38576.5967","tc","null","null","null","null","null","null","[3,1]","508.8042684947514","129.16045664335718","456.34203994893545"
"","canvas-keyboard-response","43","3826958","0.0-6.0-2.5","548","","","","","rectangles no change","null","null","","","critical","c","d","t","240","164","162.6685","237.1485","164","240","spektor","0.02","h","164","240","240","164","162.6685","237.1485","39360","39360","38576.5967","tc","null","null","null","null","null","null","[3,1]","508.8042684947514","129.16045664335718","456.34203994893545"
"","canvas-keyboard-response","44","3828294","0.0-6.0-3.5","548","","","","","rectangles with change","null","null","","","critical","c","d","t","240","164","162.6685","237.1485","164","240","spektor","0.02","h","164","240","240","164","162.6685","237.1485","39360","39360","38576.5967","tc","null","null","null","null","null","null","[3,1]","508.8042684947514","129.16045664335718","456.34203994893545"
"","canvas-keyboard-response","45","3828313","0.0-6.0-4.5","548","","","","","clear_screen","null","null","","","critical","c","d","t","240","164","162.6685","237.1485","164","240","spektor","0.02","h","164","240","240","164","162.6685","237.1485","39360","39360","38576.5967","tc","null","null","null","null","null","null","[3,1]","508.8042684947514","129.16045664335718","456.34203994893545"
"","canvas-keyboard-response","46","3831238","0.0-6.0-5.5","548","","","","","make choice","2917","3","","","critical","c","d","t","240","164","162.6685","237.1485","164","240","spektor","0.02","h","164","240","240","164","162.6685","237.1485","39360","39360","38576.5967","tc","null","null","null","null","null","null","[3,1]","","",""
"","canvas-keyboard-response","47","3831255","0.0-6.0-6.5","548","","","","","clear_screen","null","null","","","critical","c","d","t","240","164","162.6685","237.1485","164","240","spektor","0.02","h","164","240","240","164","162.6685","237.1485","39360","39360","38576.5967","tc","null","null","null","null","null","null","[3,1]","","",""
"","canvas-keyboard-response","48","3831456","0.0-6.0-0.6","548","","","","","pre trial waiting period","null","null","","","critical","d","c","t","220.0396","154.6796","164","240","240","164","spektor","0.14","w","240","164","164","240","220.0396","154.6796","39360","39360","34035.6388","dc","null","null","null","null","null","null","[1,2]","515.7434386307787","126.53971973881018","508.553536753688"
"","canvas-keyboard-response","49","3831477","0.0-6.0-1.6","548","","","","","clear_screen","null","null","","","critical","d","c","t","220.0396","154.6796","164","240","240","164","spektor","0.14","w","240","164","164","240","220.0396","154.6796","39360","39360","34035.6388","dc","null","null","null","null","null","null","[1,2]","515.7434386307787","126.53971973881018","508.553536753688"
"","canvas-keyboard-response","50","3831987","0.0-6.0-2.6","548","","","","","rectangles no change","null","null","","","critical","d","c","t","220.0396","154.6796","164","240","240","164","spektor","0.14","w","240","164","164","240","220.0396","154.6796","39360","39360","34035.6388","dc","null","null","null","null","null","null","[1,2]","515.7434386307787","126.53971973881018","508.553536753688"
"","canvas-keyboard-response","51","3833325","0.0-6.0-3.6","548","","","","","rectangles with change","null","null","","","critical","d","c","t","220.0396","154.6796","164","240","240","164","spektor","0.14","w","240","164","164","240","220.0396","154.6796","39360","39360","34035.6388","dc","null","null","null","null","null","null","[1,2]","515.7434386307787","126.53971973881018","508.553536753688"
"","canvas-keyboard-response","52","3833346","0.0-6.0-4.6","548","","","","","clear_screen","null","null","","","critical","d","c","t","220.0396","154.6796","164","240","240","164","spektor","0.14","w","240","164","164","240","220.0396","154.6796","39360","39360","34035.6388","dc","null","null","null","null","null","null","[1,2]","515.7434386307787","126.53971973881018","508.553536753688"
"","canvas-keyboard-response","53","3835022","0.0-6.0-5.6","548","","","","","make choice","1663","1","","","critical","d","c","t","220.0396","154.6796","164","240","240","164","spektor","0.14","w","240","164","164","240","220.0396","154.6796","39360","39360","34035.6388","dc","null","null","null","null","null","null","[1,2]","","",""
"","canvas-keyboard-response","54","3835041","0.0-6.0-6.6","548","","","","","clear_screen","null","null","","","critical","d","c","t","220.0396","154.6796","164","240","240","164","spektor","0.14","w","240","164","164","240","220.0396","154.6796","39360","39360","34035.6388","dc","null","null","null","null","null","null","[1,2]","","",""
"","canvas-keyboard-response","55","3835242","0.0-6.0-0.7","548","","","","","pre trial waiting period","null","null","","","critical","c","t","d","240","164","164","240","160.6713","232.8713","trueblood","0.05","h","164","240","240","164","160.6713","232.8713","39360","39360","37415.7294","tc","null","null","null","null","null","null","[2,1]","491.15641893241525","440.4258631748929","462.2981866379506"
"","canvas-keyboard-response","56","3835263","0.0-6.0-1.7","548","","","","","clear_screen","null","null","","","critical","c","t","d","240","164","164","240","160.6713","232.8713","trueblood","0.05","h","164","240","240","164","160.6713","232.8713","39360","39360","37415.7294","tc","null","null","null","null","null","null","[2,1]","491.15641893241525","440.4258631748929","462.2981866379506"
"","canvas-keyboard-response","57","3835772","0.0-6.0-2.7","548","","","","","rectangles no change","null","null","","","critical","c","t","d","240","164","164","240","160.6713","232.8713","trueblood","0.05","h","164","240","240","164","160.6713","232.8713","39360","39360","37415.7294","tc","null","null","null","null","null","null","[2,1]","491.15641893241525","440.4258631748929","462.2981866379506"
"","canvas-keyboard-response","58","3837107","0.0-6.0-3.7","548","","","","","rectangles with change","null","null","","","critical","c","t","d","240","164","164","240","160.6713","232.8713","trueblood","0.05","h","164","240","240","164","160.6713","232.8713","39360","39360","37415.7294","tc","null","null","null","null","null","null","[2,1]","491.15641893241525","440.4258631748929","462.2981866379506"
"","canvas-keyboard-response","59","3837131","0.0-6.0-4.7","548","","","","","clear_screen","null","null","","","critical","c","t","d","240","164","164","240","160.6713","232.8713","trueblood","0.05","h","164","240","240","164","160.6713","232.8713","39360","39360","37415.7294","tc","null","null","null","null","null","null","[2,1]","491.15641893241525","440.4258631748929","462.2981866379506"
"","canvas-keyboard-response","60","3837814","0.0-6.0-5.7","548","","","","","make choice","676","1","","","critical","c","t","d","240","164","164","240","160.6713","232.8713","trueblood","0.05","h","164","240","240","164","160.6713","232.8713","39360","39360","37415.7294","tc","null","null","null","null","null","null","[2,1]","","",""
"","canvas-keyboard-response","61","3837835","0.0-6.0-6.7","548","","","","","clear_screen","null","null","","","critical","c","t","d","240","164","164","240","160.6713","232.8713","trueblood","0.05","h","164","240","240","164","160.6713","232.8713","39360","39360","37415.7294","tc","null","null","null","null","null","null","[2,1]","","",""
"","canvas-keyboard-response","62","3838036","0.0-6.0-0.8","548","","","","","pre trial waiting period","null","null","","","critical","c","t","d","240","164","164","240","162.6685","237.1485","spektor","0.02","h","164","240","240","164","162.6685","237.1485","39360","39360","38576.5967","td","null","null","null","null","null","null","[2,3]","539.6760674460285","101.25828722477858","472.97053222161003"
"","canvas-keyboard-response","63","3838060","0.0-6.0-1.8","548","","","","","clear_screen","null","null","","","critical","c","t","d","240","164","164","240","162.6685","237.1485","spektor","0.02","h","164","240","240","164","162.6685","237.1485","39360","39360","38576.5967","td","null","null","null","null","null","null","[2,3]","539.6760674460285","101.25828722477858","472.97053222161003"
"","canvas-keyboard-response","64","3838567","0.0-6.0-2.8","548","","","","","rectangles no change","null","null","","","critical","c","t","d","240","164","164","240","162.6685","237.1485","spektor","0.02","h","164","240","240","164","162.6685","237.1485","39360","39360","38576.5967","td","null","null","null","null","null","null","[2,3]","539.6760674460285","101.25828722477858","472.97053222161003"
"","canvas-keyboard-response","65","3839908","0.0-6.0-3.8","548","","","","","rectangles with change","null","null","","","critical","c","t","d","240","164","164","240","162.6685","237.1485","spektor","0.02","h","164","240","240","164","162.6685","237.1485","39360","39360","38576.5967","td","null","null","null","null","null","null","[2,3]","539.6760674460285","101.25828722477858","472.97053222161003"
"","canvas-keyboard-response","66","3839931","0.0-6.0-4.8","548","","","","","clear_screen","null","null","","","critical","c","t","d","240","164","164","240","162.6685","237.1485","spektor","0.02","h","164","240","240","164","162.6685","237.1485","39360","39360","38576.5967","td","null","null","null","null","null","null","[2,3]","539.6760674460285","101.25828722477858","472.97053222161003"
"","canvas-keyboard-response","67","3840918","0.0-6.0-5.8","548","","","","","make choice","981","3","","","critical","c","t","d","240","164","164","240","162.6685","237.1485","spektor","0.02","h","164","240","240","164","162.6685","237.1485","39360","39360","38576.5967","td","null","null","null","null","null","null","[2,3]","","",""
"","canvas-keyboard-response","68","3840937","0.0-6.0-6.8","548","","","","","clear_screen","null","null","","","critical","c","t","d","240","164","164","240","162.6685","237.1485","spektor","0.02","h","164","240","240","164","162.6685","237.1485","39360","39360","38576.5967","td","null","null","null","null","null","null","[2,3]","","",""
"","canvas-keyboard-response","69","3841138","0.0-6.0-0.9","548","","","","","pre trial waiting period","null","null","","","critical","t","d","c","164","240","158.0083","227.1683","240","164","trueblood","0.09","h","164","240","240","164","158.0083","227.1683","39360","39360","35894.4834","dc","null","null","null","null","null","null","[2,3]","428.1643046201901","458.3502661426157","493.1061118370836"
"","canvas-keyboard-response","70","3841157","0.0-6.0-1.9","548","","","","","clear_screen","null","null","","","critical","t","d","c","164","240","158.0083","227.1683","240","164","trueblood","0.09","h","164","240","240","164","158.0083","227.1683","39360","39360","35894.4834","dc","null","null","null","null","null","null","[2,3]","428.1643046201901","458.3502661426157","493.1061118370836"
"","canvas-keyboard-response","71","3841666","0.0-6.0-2.9","548","","","","","rectangles no change","null","null","","","critical","t","d","c","164","240","158.0083","227.1683","240","164","trueblood","0.09","h","164","240","240","164","158.0083","227.1683","39360","39360","35894.4834","dc","null","null","null","null","null","null","[2,3]","428.1643046201901","458.3502661426157","493.1061118370836"
"","canvas-keyboard-response","72","3843003","0.0-6.0-3.9","548","","","","","rectangles with change","null","null","","","critical","t","d","c","164","240","158.0083","227.1683","240","164","trueblood","0.09","h","164","240","240","164","158.0083","227.1683","39360","39360","35894.4834","dc","null","null","null","null","null","null","[2,3]","428.1643046201901","458.3502661426157","493.1061118370836"
"","canvas-keyboard-response","73","3843027","0.0-6.0-4.9","548","","","","","clear_screen","null","null","","","critical","t","d","c","164","240","158.0083","227.1683","240","164","trueblood","0.09","h","164","240","240","164","158.0083","227.1683","39360","39360","35894.4834","dc","null","null","null","null","null","null","[2,3]","428.1643046201901","458.3502661426157","493.1061118370836"
"","canvas-keyboard-response","74","3844574","0.0-6.0-5.9","548","","","","","make choice","1539","3","","","critical","t","d","c","164","240","158.0083","227.1683","240","164","trueblood","0.09","h","164","240","240","164","158.0083","227.1683","39360","39360","35894.4834","dc","null","null","null","null","null","null","[2,3]","","",""
"","canvas-keyboard-response","75","3844593","0.0-6.0-6.9","548","","","","","clear_screen","null","null","","","critical","t","d","c","164","240","158.0083","227.1683","240","164","trueblood","0.09","h","164","240","240","164","158.0083","227.1683","39360","39360","35894.4834","dc","null","null","null","null","null","null","[2,3]","","",""
"","canvas-keyboard-response","76","3844794","0.0-6.0-0.10","548","","","","","pre trial waiting period","null","null","","","critical","d","t","c","162.6685","237.1485","164","240","240","164","trueblood","0.02","h","164","240","240","164","162.6685","237.1485","39360","39360","38576.5967","td","null","null","null","null","null","null","[2,1]","463.1526847551795","465.5332807184527","474.0211224686016"
"","canvas-keyboard-response","77","3844813","0.0-6.0-1.10","548","","","","","clear_screen","null","null","","","critical","d","t","c","162.6685","237.1485","164","240","240","164","trueblood","0.02","h","164","240","240","164","162.6685","237.1485","39360","39360","38576.5967","td","null","null","null","null","null","null","[2,1]","463.1526847551795","465.5332807184527","474.0211224686016"
"","canvas-keyboard-response","78","3845322","0.0-6.0-2.10","548","","","","","rectangles no change","null","null","","","critical","d","t","c","162.6685","237.1485","164","240","240","164","trueblood","0.02","h","164","240","240","164","162.6685","237.1485","39360","39360","38576.5967","td","null","null","null","null","null","null","[2,1]","463.1526847551795","465.5332807184527","474.0211224686016"
"","canvas-keyboard-response","79","3846659","0.0-6.0-3.10","548","","","","","rectangles with change","null","null","","","critical","d","t","c","162.6685","237.1485","164","240","240","164","trueblood","0.02","h","164","240","240","164","162.6685","237.1485","39360","39360","38576.5967","td","null","null","null","null","null","null","[2,1]","463.1526847551795","465.5332807184527","474.0211224686016"
"","canvas-keyboard-response","80","3846682","0.0-6.0-4.10","548","","","","","clear_screen","null","null","","","critical","d","t","c","162.6685","237.1485","164","240","240","164","trueblood","0.02","h","164","240","240","164","162.6685","237.1485","39360","39360","38576.5967","td","null","null","null","null","null","null","[2,1]","463.1526847551795","465.5332807184527","474.0211224686016"
"","canvas-keyboard-response","81","3847126","0.0-6.0-5.10","548","","","","","make choice","437","1","","","critical","d","t","c","162.6685","237.1485","164","240","240","164","trueblood","0.02","h","164","240","240","164","162.6685","237.1485","39360","39360","38576.5967","td","null","null","null","null","null","null","[2,1]","","",""
"","canvas-keyboard-response","82","3847148","0.0-6.0-6.10","548","","","","","clear_screen","null","null","","","critical","d","t","c","162.6685","237.1485","164","240","240","164","trueblood","0.02","h","164","240","240","164","162.6685","237.1485","39360","39360","38576.5967","td","null","null","null","null","null","null","[2,1]","","",""
"","canvas-keyboard-response","83","3847349","0.0-6.0-0.11","548","","","","","pre trial waiting period","null","null","","","critical","c","d","t","164","240","232.8713","160.6713","240","164","spektor","0.05","w","240","164","164","240","232.8713","160.6713","39360","39360","37415.7294","dc","null","null","null","null","null","null","[2,1]","473.18944617617996","190.51946614583122","531.6801537461981"
"","canvas-keyboard-response","84","3847373","0.0-6.0-1.11","548","","","","","clear_screen","null","null","","","critical","c","d","t","164","240","232.8713","160.6713","240","164","spektor","0.05","w","240","164","164","240","232.8713","160.6713","39360","39360","37415.7294","dc","null","null","null","null","null","null","[2,1]","473.18944617617996","190.51946614583122","531.6801537461981"
"","canvas-keyboard-response","85","3847881","0.0-6.0-2.11","548","","","","","rectangles no change","null","null","","","critical","c","d","t","164","240","232.8713","160.6713","240","164","spektor","0.05","w","240","164","164","240","232.8713","160.6713","39360","39360","37415.7294","dc","null","null","null","null","null","null","[2,1]","473.18944617617996","190.51946614583122","531.6801537461981"
"","canvas-keyboard-response","86","3849217","0.0-6.0-3.11","548","","","","","rectangles with change","null","null","","","critical","c","d","t","164","240","232.8713","160.6713","240","164","spektor","0.05","w","240","164","164","240","232.8713","160.6713","39360","39360","37415.7294","dc","null","null","null","null","null","null","[2,1]","473.18944617617996","190.51946614583122","531.6801537461981"
"","canvas-keyboard-response","87","3849240","0.0-6.0-4.11","548","","","","","clear_screen","null","null","","","critical","c","d","t","164","240","232.8713","160.6713","240","164","spektor","0.05","w","240","164","164","240","232.8713","160.6713","39360","39360","37415.7294","dc","null","null","null","null","null","null","[2,1]","473.18944617617996","190.51946614583122","531.6801537461981"
"","canvas-keyboard-response","88","3850126","0.0-6.0-5.11","548","","","","","make choice","879","2","","","critical","c","d","t","164","240","232.8713","160.6713","240","164","spektor","0.05","w","240","164","164","240","232.8713","160.6713","39360","39360","37415.7294","dc","null","null","null","null","null","null","[2,1]","","",""
"","canvas-keyboard-response","89","3850148","0.0-6.0-6.11","548","","","","","clear_screen","null","null","","","critical","c","d","t","164","240","232.8713","160.6713","240","164","spektor","0.05","w","240","164","164","240","232.8713","160.6713","39360","39360","37415.7294","dc","null","null","null","null","null","null","[2,1]","","",""
"","canvas-keyboard-response","90","3850349","0.0-6.0-0.12","548","","","","","pre trial waiting period","null","null","","","catch","l","sh","sw","233","207","218","156","196","220","spektor","null","null","null","null","null","null","null","null","null","null","null","","180","200","260","200","36000","52000","[1,2]","488.6089602816912","173.09397879862703","509.55488214406984"
"","canvas-keyboard-response","91","3850369","0.0-6.0-1.12","548","","","","","clear_screen","null","null","","","catch","l","sh","sw","233","207","218","156","196","220","spektor","null","null","null","null","null","null","null","null","null","null","null","","180","200","260","200","36000","52000","[1,2]","488.6089602816912","173.09397879862703","509.55488214406984"
"","canvas-keyboard-response","92","3850878","0.0-6.0-2.12","548","","","","","rectangles no change","null","null","","","catch","l","sh","sw","233","207","218","156","196","220","spektor","null","null","null","null","null","null","null","null","null","null","null","","180","200","260","200","36000","52000","[1,2]","488.6089602816912","173.09397879862703","509.55488214406984"
"","canvas-keyboard-response","93","3852215","0.0-6.0-3.12","548","","","","","rectangles with change","null","null","","","catch","l","sh","sw","233","207","218","156","196","220","spektor","null","null","null","null","null","null","null","null","null","null","null","","180","200","260","200","36000","52000","[1,2]","488.6089602816912","173.09397879862703","509.55488214406984"
"","canvas-keyboard-response","94","3852236","0.0-6.0-4.12","548","","","","","clear_screen","null","null","","","catch","l","sh","sw","233","207","218","156","196","220","spektor","null","null","null","null","null","null","null","null","null","null","null","","180","200","260","200","36000","52000","[1,2]","488.6089602816912","173.09397879862703","509.55488214406984"
"","canvas-keyboard-response","95","3852942","0.0-6.0-5.12","548","","","","","make choice","699","1","","","catch","l","sh","sw","233","207","218","156","196","220","spektor","null","null","null","null","null","null","null","null","null","null","null","","180","200","260","200","36000","52000","[1,2]","","",""
"","canvas-keyboard-response","96","3852959","0.0-6.0-6.12","548","","","","","clear_screen","null","null","","","catch","l","sh","sw","233","207","218","156","196","220","spektor","null","null","null","null","null","null","null","null","null","null","null","","180","200","260","200","36000","52000","[1,2]","","",""
"","canvas-keyboard-response","97","3853161","0.0-6.0-0.13","548","","","","","pre trial waiting period","null","null","","","catch","sw","l","sh","180","200","237","208","197","152","trueblood","null","null","null","null","null","null","null","null","null","null","null","","180","200","260","200","36000","52000","[1,2]","488.56645342136744","442.3260422789526","493.05079624461945"
"","canvas-keyboard-response","98","3853185","0.0-6.0-1.13","548","","","","","clear_screen","null","null","","","catch","sw","l","sh","180","200","237","208","197","152","trueblood","null","null","null","null","null","null","null","null","null","null","null","","180","200","260","200","36000","52000","[1,2]","488.56645342136744","442.3260422789526","493.05079624461945"
"","canvas-keyboard-response","99","3853693","0.0-6.0-2.13","548","","","","","rectangles no change","null","null","","","catch","sw","l","sh","180","200","237","208","197","152","trueblood","null","null","null","null","null","null","null","null","null","null","null","","180","200","260","200","36000","52000","[1,2]","488.56645342136744","442.3260422789526","493.05079624461945"
"","canvas-keyboard-response","100","3855033","0.0-6.0-3.13","548","","","","","rectangles with change","null","null","","","catch","sw","l","sh","180","200","237","208","197","152","trueblood","null","null","null","null","null","null","null","null","null","null","null","","180","200","260","200","36000","52000","[1,2]","488.56645342136744","442.3260422789526","493.05079624461945"
"","canvas-keyboard-response","101","3855055","0.0-6.0-4.13","548","","","","","clear_screen","null","null","","","catch","sw","l","sh","180","200","237","208","197","152","trueblood","null","null","null","null","null","null","null","null","null","null","null","","180","200","260","200","36000","52000","[1,2]","488.56645342136744","442.3260422789526","493.05079624461945"
"","canvas-keyboard-response","102","3855614","0.0-6.0-5.13","548","","","","","make choice","553","2","","","catch","sw","l","sh","180","200","237","208","197","152","trueblood","null","null","null","null","null","null","null","null","null","null","null","","180","200","260","200","36000","52000","[1,2]","","",""
"","canvas-keyboard-response","103","3855636","0.0-6.0-6.13","548","","","","","clear_screen","null","null","","","catch","sw","l","sh","180","200","237","208","197","152","trueblood","null","null","null","null","null","null","null","null","null","null","null","","180","200","260","200","36000","52000","[1,2]","","",""
"","canvas-keyboard-response","104","3855837","0.0-6.0-0.14","548","","","","","pre trial waiting period","null","null","","","critical","c","d","t","240","164","164","240","164","240","spektor","0","h","164","240","240","164","164","240","39360","39360","39360","dc","null","null","null","null","null","null","[2,1]","526.370581313441","129.9190297262531","468.9669581991296"
"","canvas-keyboard-response","105","3855856","0.0-6.0-1.14","548","","","","","clear_screen","null","null","","","critical","c","d","t","240","164","164","240","164","240","spektor","0","h","164","240","240","164","164","240","39360","39360","39360","dc","null","null","null","null","null","null","[2,1]","526.370581313441","129.9190297262531","468.9669581991296"
"","canvas-keyboard-response","106","3856363","0.0-6.0-2.14","548","","","","","rectangles no change","null","null","","","critical","c","d","t","240","164","164","240","164","240","spektor","0","h","164","240","240","164","164","240","39360","39360","39360","dc","null","null","null","null","null","null","[2,1]","526.370581313441","129.9190297262531","468.9669581991296"
"","canvas-keyboard-response","107","3857702","0.0-6.0-3.14","548","","","","","rectangles with change","null","null","","","critical","c","d","t","240","164","164","240","164","240","spektor","0","h","164","240","240","164","164","240","39360","39360","39360","dc","null","null","null","null","null","null","[2,1]","526.370581313441","129.9190297262531","468.9669581991296"
"","canvas-keyboard-response","108","3857724","0.0-6.0-4.14","548","","","","","clear_screen","null","null","","","critical","c","d","t","240","164","164","240","164","240","spektor","0","h","164","240","240","164","164","240","39360","39360","39360","dc","null","null","null","null","null","null","[2,1]","526.370581313441","129.9190297262531","468.9669581991296"
"","canvas-keyboard-response","109","3858374","0.0-6.0-5.14","548","","","","","make choice","642","1","","","critical","c","d","t","240","164","164","240","164","240","spektor","0","h","164","240","240","164","164","240","39360","39360","39360","dc","null","null","null","null","null","null","[2,1]","","",""
"","canvas-keyboard-response","110","3858392","0.0-6.0-6.14","548","","","","","clear_screen","null","null","","","critical","c","d","t","240","164","164","240","164","240","spektor","0","h","164","240","240","164","164","240","39360","39360","39360","dc","null","null","null","null","null","null","[2,1]","","",""
"","canvas-keyboard-response","111","3858592","0.0-6.0-0.15","548","","","","","pre trial waiting period","null","null","","","critical","d","t","c","227.1683","158.0083","240","164","164","240","trueblood","0.09","w","240","164","164","240","227.1683","158.0083","39360","39360","35894.4834","td","null","null","null","null","null","null","[2,1]","508.6473301342252","510.37410197088667","459.73927432406157"
"","canvas-keyboard-response","112","3858613","0.0-6.0-1.15","548","","","","","clear_screen","null","null","","","critical","d","t","c","227.1683","158.0083","240","164","164","240","trueblood","0.09","w","240","164","164","240","227.1683","158.0083","39360","39360","35894.4834","td","null","null","null","null","null","null","[2,1]","508.6473301342252","510.37410197088667","459.73927432406157"
"","canvas-keyboard-response","113","3859118","0.0-6.0-2.15","548","","","","","rectangles no change","null","null","","","critical","d","t","c","227.1683","158.0083","240","164","164","240","trueblood","0.09","w","240","164","164","240","227.1683","158.0083","39360","39360","35894.4834","td","null","null","null","null","null","null","[2,1]","508.6473301342252","510.37410197088667","459.73927432406157"
"","canvas-keyboard-response","114","3860456","0.0-6.0-3.15","548","","","","","rectangles with change","null","null","","","critical","d","t","c","227.1683","158.0083","240","164","164","240","trueblood","0.09","w","240","164","164","240","227.1683","158.0083","39360","39360","35894.4834","td","null","null","null","null","null","null","[2,1]","508.6473301342252","510.37410197088667","459.73927432406157"
"","canvas-keyboard-response","115","3860477","0.0-6.0-4.15","548","","","","","clear_screen","null","null","","","critical","d","t","c","227.1683","158.0083","240","164","164","240","trueblood","0.09","w","240","164","164","240","227.1683","158.0083","39360","39360","35894.4834","td","null","null","null","null","null","null","[2,1]","508.6473301342252","510.37410197088667","459.73927432406157"
"","canvas-keyboard-response","116","3861222","0.0-6.0-5.15","548","","","","","make choice","740","2","","","critical","d","t","c","227.1683","158.0083","240","164","164","240","trueblood","0.09","w","240","164","164","240","227.1683","158.0083","39360","39360","35894.4834","td","null","null","null","null","null","null","[2,1]","","",""
"","canvas-keyboard-response","117","3861240","0.0-6.0-6.15","548","","","","","clear_screen","null","null","","","critical","d","t","c","227.1683","158.0083","240","164","164","240","trueblood","0.09","w","240","164","164","240","227.1683","158.0083","39360","39360","35894.4834","td","null","null","null","null","null","null","[2,1]","","",""
"","canvas-keyboard-response","118","3861441","0.0-6.0-0.16","548","","","","","pre trial waiting period","null","null","","","catch","sh","sw","l","207","200","188","203","193","257","trueblood","null","null","null","null","null","null","null","null","null","null","null","","180","200","260","200","36000","52000","[1,3]","463.06887682964236","459.9933745175404","437.17729516178144"
"","canvas-keyboard-response","119","3861461","0.0-6.0-1.16","548","","","","","clear_screen","null","null","","","catch","sh","sw","l","207","200","188","203","193","257","trueblood","null","null","null","null","null","null","null","null","null","null","null","","180","200","260","200","36000","52000","[1,3]","463.06887682964236","459.9933745175404","437.17729516178144"
"","canvas-keyboard-response","120","3861972","0.0-6.0-2.16","548","","","","","rectangles no change","null","null","","","catch","sh","sw","l","207","200","188","203","193","257","trueblood","null","null","null","null","null","null","null","null","null","null","null","","180","200","260","200","36000","52000","[1,3]","463.06887682964236","459.9933745175404","437.17729516178144"
"","canvas-keyboard-response","121","3863308","0.0-6.0-3.16","548","","","","","rectangles with change","null","null","","","catch","sh","sw","l","207","200","188","203","193","257","trueblood","null","null","null","null","null","null","null","null","null","null","null","","180","200","260","200","36000","52000","[1,3]","463.06887682964236","459.9933745175404","437.17729516178144"
"","canvas-keyboard-response","122","3863327","0.0-6.0-4.16","548","","","","","clear_screen","null","null","","","catch","sh","sw","l","207","200","188","203","193","257","trueblood","null","null","null","null","null","null","null","null","null","null","null","","180","200","260","200","36000","52000","[1,3]","463.06887682964236","459.9933745175404","437.17729516178144"
"","canvas-keyboard-response","123","3863805","0.0-6.0-5.16","548","","","","","make choice","470","1","","","catch","sh","sw","l","207","200","188","203","193","257","trueblood","null","null","null","null","null","null","null","null","null","null","null","","180","200","260","200","36000","52000","[1,3]","","",""
"","canvas-keyboard-response","124","3863826","0.0-6.0-6.16","548","","","","","clear_screen","null","null","","","catch","sh","sw","l","207","200","188","203","193","257","trueblood","null","null","null","null","null","null","null","null","null","null","null","","180","200","260","200","36000","52000","[1,3]","","",""
"","canvas-keyboard-response","125","3864028","0.0-6.0-0.17","548","","","","","pre trial waiting period","null","null","","","critical","c","t","d","240","164","164","240","164","240","spektor","0","h","164","240","240","164","164","240","39360","39360","39360","tc","null","null","null","null","null","null","[2,1]","526.1494822067777","111.02439410257078","482.36618841006447"
"","canvas-keyboard-response","126","3864048","0.0-6.0-1.17","548","","","","","clear_screen","null","null","","","critical","c","t","d","240","164","164","240","164","240","spektor","0","h","164","240","240","164","164","240","39360","39360","39360","tc","null","null","null","null","null","null","[2,1]","526.1494822067777","111.02439410257078","482.36618841006447"
"","canvas-keyboard-response","127","3864554","0.0-6.0-2.17","548","","","","","rectangles no change","null","null","","","critical","c","t","d","240","164","164","240","164","240","spektor","0","h","164","240","240","164","164","240","39360","39360","39360","tc","null","null","null","null","null","null","[2,1]","526.1494822067777","111.02439410257078","482.36618841006447"
"","canvas-keyboard-response","128","3865889","0.0-6.0-3.17","548","","","","","rectangles with change","null","null","","","critical","c","t","d","240","164","164","240","164","240","spektor","0","h","164","240","240","164","164","240","39360","39360","39360","tc","null","null","null","null","null","null","[2,1]","526.1494822067777","111.02439410257078","482.36618841006447"
"","canvas-keyboard-response","129","3865910","0.0-6.0-4.17","548","","","","","clear_screen","null","null","","","critical","c","t","d","240","164","164","240","164","240","spektor","0","h","164","240","240","164","164","240","39360","39360","39360","tc","null","null","null","null","null","null","[2,1]","526.1494822067777","111.02439410257078","482.36618841006447"
"","canvas-keyboard-response","130","3866398","0.0-6.0-5.17","548","","","","","make choice","484","1","","","critical","c","t","d","240","164","164","240","164","240","spektor","0","h","164","240","240","164","164","240","39360","39360","39360","tc","null","null","null","null","null","null","[2,1]","","",""
"","canvas-keyboard-response","131","3866415","0.0-6.0-6.17","548","","","","","clear_screen","null","null","","","critical","c","t","d","240","164","164","240","164","240","spektor","0","h","164","240","240","164","164","240","39360","39360","39360","tc","null","null","null","null","null","null","[2,1]","","",""
"","canvas-keyboard-response","132","3866617","0.0-6.0-0.18","548","","","","","pre trial waiting period","null","null","","","critical","c","t","d","164","240","240","164","240","164","spektor","0","w","240","164","164","240","240","164","39360","39360","39360","dc","null","null","null","null","null","null","[3,1]","478.8570945720929","206.88327478899762","510.8754264729048"
"","canvas-keyboard-response","133","3866636","0.0-6.0-1.18","548","","","","","clear_screen","null","null","","","critical","c","t","d","164","240","240","164","240","164","spektor","0","w","240","164","164","240","240","164","39360","39360","39360","dc","null","null","null","null","null","null","[3,1]","478.8570945720929","206.88327478899762","510.8754264729048"
"","canvas-keyboard-response","134","3867145","0.0-6.0-2.18","548","","","","","rectangles no change","null","null","","","critical","c","t","d","164","240","240","164","240","164","spektor","0","w","240","164","164","240","240","164","39360","39360","39360","dc","null","null","null","null","null","null","[3,1]","478.8570945720929","206.88327478899762","510.8754264729048"
"","canvas-keyboard-response","135","3868484","0.0-6.0-3.18","548","","","","","rectangles with change","null","null","","","critical","c","t","d","164","240","240","164","240","164","spektor","0","w","240","164","164","240","240","164","39360","39360","39360","dc","null","null","null","null","null","null","[3,1]","478.8570945720929","206.88327478899762","510.8754264729048"
"","canvas-keyboard-response","136","3868506","0.0-6.0-4.18","548","","","","","clear_screen","null","null","","","critical","c","t","d","164","240","240","164","240","164","spektor","0","w","240","164","164","240","240","164","39360","39360","39360","dc","null","null","null","null","null","null","[3,1]","478.8570945720929","206.88327478899762","510.8754264729048"
"","canvas-keyboard-response","137","3868990","0.0-6.0-5.18","548","","","","","make choice","478","3","","","critical","c","t","d","164","240","240","164","240","164","spektor","0","w","240","164","164","240","240","164","39360","39360","39360","dc","null","null","null","null","null","null","[3,1]","","",""
"","canvas-keyboard-response","138","3869009","0.0-6.0-6.18","548","","","","","clear_screen","null","null","","","critical","c","t","d","164","240","240","164","240","164","spektor","0","w","240","164","164","240","240","164","39360","39360","39360","dc","null","null","null","null","null","null","[3,1]","","",""
"","canvas-keyboard-response","139","3869210","0.0-6.0-0.19","548","","","","","pre trial waiting period","null","null","","","catch","l","sw","sh","228","192","188","233","169","153","spektor","null","null","null","null","null","null","null","null","null","null","null","","180","200","260","200","36000","52000","[1,3]","500.10663632038177","124.68620881398658","500.5451463523628"
"","canvas-keyboard-response","140","3869232","0.0-6.0-1.19","548","","","","","clear_screen","null","null","","","catch","l","sw","sh","228","192","188","233","169","153","spektor","null","null","null","null","null","null","null","null","null","null","null","","180","200","260","200","36000","52000","[1,3]","500.10663632038177","124.68620881398658","500.5451463523628"
"","canvas-keyboard-response","141","3869740","0.0-6.0-2.19","548","","","","","rectangles no change","null","null","","","catch","l","sw","sh","228","192","188","233","169","153","spektor","null","null","null","null","null","null","null","null","null","null","null","","180","200","260","200","36000","52000","[1,3]","500.10663632038177","124.68620881398658","500.5451463523628"
"","canvas-keyboard-response","142","3871080","0.0-6.0-3.19","548","","","","","rectangles with change","null","null","","","catch","l","sw","sh","228","192","188","233","169","153","spektor","null","null","null","null","null","null","null","null","null","null","null","","180","200","260","200","36000","52000","[1,3]","500.10663632038177","124.68620881398658","500.5451463523628"
"","canvas-keyboard-response","143","3871100","0.0-6.0-4.19","548","","","","","clear_screen","null","null","","","catch","l","sw","sh","228","192","188","233","169","153","spektor","null","null","null","null","null","null","null","null","null","null","null","","180","200","260","200","36000","52000","[1,3]","500.10663632038177","124.68620881398658","500.5451463523628"
"","canvas-keyboard-response","144","3871462","0.0-6.0-5.19","548","","","","","make choice","354","1","","","catch","l","sw","sh","228","192","188","233","169","153","spektor","null","null","null","null","null","null","null","null","null","null","null","","180","200","260","200","36000","52000","[1,3]","","",""
"","canvas-keyboard-response","145","3871483","0.0-6.0-6.19","548","","","","","clear_screen","null","null","","","catch","l","sw","sh","228","192","188","233","169","153","spektor","null","null","null","null","null","null","null","null","null","null","null","","180","200","260","200","36000","52000","[1,3]","","",""
"","canvas-keyboard-response","146","3871684","0.0-6.0-0.20","548","","","","","pre trial waiting period","null","null","","","critical","t","d","c","240","164","232.8713","160.6713","164","240","trueblood","0.05","w","240","164","164","240","232.8713","160.6713","39360","39360","37415.7294","td","null","null","null","null","null","null","[1,2]","503.5234461230299","473.78298025895947","444.65456019149525"
"","canvas-keyboard-response","147","3871708","0.0-6.0-1.20","548","","","","","clear_screen","null","null","","","critical","t","d","c","240","164","232.8713","160.6713","164","240","trueblood","0.05","w","240","164","164","240","232.8713","160.6713","39360","39360","37415.7294","td","null","null","null","null","null","null","[1,2]","503.5234461230299","473.78298025895947","444.65456019149525"
"","canvas-keyboard-response","148","3872215","0.0-6.0-2.20","548","","","","","rectangles no change","null","null","","","critical","t","d","c","240","164","232.8713","160.6713","164","240","trueblood","0.05","w","240","164","164","240","232.8713","160.6713","39360","39360","37415.7294","td","null","null","null","null","null","null","[1,2]","503.5234461230299","473.78298025895947","444.65456019149525"
"","canvas-keyboard-response","149","3873556","0.0-6.0-3.20","548","","","","","rectangles with change","null","null","","","critical","t","d","c","240","164","232.8713","160.6713","164","240","trueblood","0.05","w","240","164","164","240","232.8713","160.6713","39360","39360","37415.7294","td","null","null","null","null","null","null","[1,2]","503.5234461230299","473.78298025895947","444.65456019149525"
"","canvas-keyboard-response","150","3873579","0.0-6.0-4.20","548","","","","","clear_screen","null","null","","","critical","t","d","c","240","164","232.8713","160.6713","164","240","trueblood","0.05","w","240","164","164","240","232.8713","160.6713","39360","39360","37415.7294","td","null","null","null","null","null","null","[1,2]","503.5234461230299","473.78298025895947","444.65456019149525"
"","canvas-keyboard-response","151","3874190","0.0-6.0-5.20","548","","","","","make choice","604","1","","","critical","t","d","c","240","164","232.8713","160.6713","164","240","trueblood","0.05","w","240","164","164","240","232.8713","160.6713","39360","39360","37415.7294","td","null","null","null","null","null","null","[1,2]","","",""
"","canvas-keyboard-response","152","3874210","0.0-6.0-6.20","548","","","","","clear_screen","null","null","","","critical","t","d","c","240","164","232.8713","160.6713","164","240","trueblood","0.05","w","240","164","164","240","232.8713","160.6713","39360","39360","37415.7294","td","null","null","null","null","null","null","[1,2]","","",""
"","canvas-keyboard-response","153","3874411","0.0-6.0-0.21","548","","","","","pre trial waiting period","null","null","","","catch","l","sw","sh","185","267","209","207","225","197","trueblood","null","null","null","null","null","null","null","null","null","null","null","","180","200","260","200","36000","52000","[1,2]","420.43635213162395","445.5621560023766","484.81672474419906"
"","canvas-keyboard-response","154","3874436","0.0-6.0-1.21","548","","","","","clear_screen","null","null","","","catch","l","sw","sh","185","267","209","207","225","197","trueblood","null","null","null","null","null","null","null","null","null","null","null","","180","200","260","200","36000","52000","[1,2]","420.43635213162395","445.5621560023766","484.81672474419906"
"","canvas-keyboard-response","155","3874943","0.0-6.0-2.21","548","","","","","rectangles no change","null","null","","","catch","l","sw","sh","185","267","209","207","225","197","trueblood","null","null","null","null","null","null","null","null","null","null","null","","180","200","260","200","36000","52000","[1,2]","420.43635213162395","445.5621560023766","484.81672474419906"
"","canvas-keyboard-response","156","3876281","0.0-6.0-3.21","548","","","","","rectangles with change","null","null","","","catch","l","sw","sh","185","267","209","207","225","197","trueblood","null","null","null","null","null","null","null","null","null","null","null","","180","200","260","200","36000","52000","[1,2]","420.43635213162395","445.5621560023766","484.81672474419906"
"","canvas-keyboard-response","157","3876304","0.0-6.0-4.21","548","","","","","clear_screen","null","null","","","catch","l","sw","sh","185","267","209","207","225","197","trueblood","null","null","null","null","null","null","null","null","null","null","null","","180","200","260","200","36000","52000","[1,2]","420.43635213162395","445.5621560023766","484.81672474419906"
"","canvas-keyboard-response","158","3876966","0.0-6.0-5.21","548","","","","","make choice","654","1","","","catch","l","sw","sh","185","267","209","207","225","197","trueblood","null","null","null","null","null","null","null","null","null","null","null","","180","200","260","200","36000","52000","[1,2]","","",""
"","canvas-keyboard-response","159","3876985","0.0-6.0-6.21","548","","","","","clear_screen","null","null","","","catch","l","sw","sh","185","267","209","207","225","197","trueblood","null","null","null","null","null","null","null","null","null","null","null","","180","200","260","200","36000","52000","[1,2]","","",""
"","canvas-keyboard-response","160","3877186","0.0-6.0-0.22","548","","","","","pre trial waiting period","null","null","","","critical","c","t","d","164","240","240","164","237.1485","162.6685","trueblood","0.02","w","240","164","164","240","237.1485","162.6685","39360","39360","38576.5967","tc","null","null","null","null","null","null","[2,1]","452.8582220620325","514.4579186185053","488.4965445315257"
"","canvas-keyboard-response","161","3877210","0.0-6.0-1.22","548","","","","","clear_screen","null","null","","","critical","c","t","d","164","240","240","164","237.1485","162.6685","trueblood","0.02","w","240","164","164","240","237.1485","162.6685","39360","39360","38576.5967","tc","null","null","null","null","null","null","[2,1]","452.8582220620325","514.4579186185053","488.4965445315257"
"","canvas-keyboard-response","162","3877723","0.0-6.0-2.22","548","","","","","rectangles no change","null","null","","","critical","c","t","d","164","240","240","164","237.1485","162.6685","trueblood","0.02","w","240","164","164","240","237.1485","162.6685","39360","39360","38576.5967","tc","null","null","null","null","null","null","[2,1]","452.8582220620325","514.4579186185053","488.4965445315257"
"","canvas-keyboard-response","163","3879064","0.0-6.0-3.22","548","","","","","rectangles with change","null","null","","","critical","c","t","d","164","240","240","164","237.1485","162.6685","trueblood","0.02","w","240","164","164","240","237.1485","162.6685","39360","39360","38576.5967","tc","null","null","null","null","null","null","[2,1]","452.8582220620325","514.4579186185053","488.4965445315257"
"","canvas-keyboard-response","164","3879088","0.0-6.0-4.22","548","","","","","clear_screen","null","null","","","critical","c","t","d","164","240","240","164","237.1485","162.6685","trueblood","0.02","w","240","164","164","240","237.1485","162.6685","39360","39360","38576.5967","tc","null","null","null","null","null","null","[2,1]","452.8582220620325","514.4579186185053","488.4965445315257"
"","canvas-keyboard-response","165","3879814","0.0-6.0-5.22","548","","","","","make choice","719","2","","","critical","c","t","d","164","240","240","164","237.1485","162.6685","trueblood","0.02","w","240","164","164","240","237.1485","162.6685","39360","39360","38576.5967","tc","null","null","null","null","null","null","[2,1]","","",""
"","canvas-keyboard-response","166","3879831","0.0-6.0-6.22","548","","","","","clear_screen","null","null","","","critical","c","t","d","164","240","240","164","237.1485","162.6685","trueblood","0.02","w","240","164","164","240","237.1485","162.6685","39360","39360","38576.5967","tc","null","null","null","null","null","null","[2,1]","","",""
"","canvas-keyboard-response","167","3880032","0.0-6.0-0.23","548","","","","","pre trial waiting period","null","null","","","critical","d","c","t","237.1485","162.6685","164","240","240","164","trueblood","0.02","w","240","164","164","240","237.1485","162.6685","39360","39360","38576.5967","dc","null","null","null","null","null","null","[1,2]","489.13589890466153","442.171550782838","491.4426049320065"
"","canvas-keyboard-response","168","3880057","0.0-6.0-1.23","548","","","","","clear_screen","null","null","","","critical","d","c","t","237.1485","162.6685","164","240","240","164","trueblood","0.02","w","240","164","164","240","237.1485","162.6685","39360","39360","38576.5967","dc","null","null","null","null","null","null","[1,2]","489.13589890466153","442.171550782838","491.4426049320065"
"","canvas-keyboard-response","169","3880564","0.0-6.0-2.23","548","","","","","rectangles no change","null","null","","","critical","d","c","t","237.1485","162.6685","164","240","240","164","trueblood","0.02","w","240","164","164","240","237.1485","162.6685","39360","39360","38576.5967","dc","null","null","null","null","null","null","[1,2]","489.13589890466153","442.171550782838","491.4426049320065"
"","canvas-keyboard-response","170","3881900","0.0-6.0-3.23","548","","","","","rectangles with change","null","null","","","critical","d","c","t","237.1485","162.6685","164","240","240","164","trueblood","0.02","w","240","164","164","240","237.1485","162.6685","39360","39360","38576.5967","dc","null","null","null","null","null","null","[1,2]","489.13589890466153","442.171550782838","491.4426049320065"
"","canvas-keyboard-response","171","3881923","0.0-6.0-4.23","548","","","","","clear_screen","null","null","","","critical","d","c","t","237.1485","162.6685","164","240","240","164","trueblood","0.02","w","240","164","164","240","237.1485","162.6685","39360","39360","38576.5967","dc","null","null","null","null","null","null","[1,2]","489.13589890466153","442.171550782838","491.4426049320065"
"","canvas-keyboard-response","172","3882678","0.0-6.0-5.23","548","","","","","make choice","748","1","","","critical","d","c","t","237.1485","162.6685","164","240","240","164","trueblood","0.02","w","240","164","164","240","237.1485","162.6685","39360","39360","38576.5967","dc","null","null","null","null","null","null","[1,2]","","",""
"","canvas-keyboard-response","173","3882700","0.0-6.0-6.23","548","","","","","clear_screen","null","null","","","critical","d","c","t","237.1485","162.6685","164","240","240","164","trueblood","0.02","w","240","164","164","240","237.1485","162.6685","39360","39360","38576.5967","dc","null","null","null","null","null","null","[1,2]","","",""
"","canvas-keyboard-response","174","3882903","0.0-6.0-0.24","548","","","","","pre trial waiting period","null","null","","","critical","c","t","d","240","164","164","240","162.6685","237.1485","trueblood","0.02","h","164","240","240","164","162.6685","237.1485","39360","39360","38576.5967","dc","null","null","null","null","null","null","[3,1]","475.61789001620616","442.8142515123136","470.1790788031998"
"","canvas-keyboard-response","175","3882924","0.0-6.0-1.24","548","","","","","clear_screen","null","null","","","critical","c","t","d","240","164","164","240","162.6685","237.1485","trueblood","0.02","h","164","240","240","164","162.6685","237.1485","39360","39360","38576.5967","dc","null","null","null","null","null","null","[3,1]","475.61789001620616","442.8142515123136","470.1790788031998"
"","canvas-keyboard-response","176","3883430","0.0-6.0-2.24","548","","","","","rectangles no change","null","null","","","critical","c","t","d","240","164","164","240","162.6685","237.1485","trueblood","0.02","h","164","240","240","164","162.6685","237.1485","39360","39360","38576.5967","dc","null","null","null","null","null","null","[3,1]","475.61789001620616","442.8142515123136","470.1790788031998"
"","canvas-keyboard-response","177","3884766","0.0-6.0-3.24","548","","","","","rectangles with change","null","null","","","critical","c","t","d","240","164","164","240","162.6685","237.1485","trueblood","0.02","h","164","240","240","164","162.6685","237.1485","39360","39360","38576.5967","dc","null","null","null","null","null","null","[3,1]","475.61789001620616","442.8142515123136","470.1790788031998"
"","canvas-keyboard-response","178","3884785","0.0-6.0-4.24","548","","","","","clear_screen","null","null","","","critical","c","t","d","240","164","164","240","162.6685","237.1485","trueblood","0.02","h","164","240","240","164","162.6685","237.1485","39360","39360","38576.5967","dc","null","null","null","null","null","null","[3,1]","475.61789001620616","442.8142515123136","470.1790788031998"
"","canvas-keyboard-response","179","3885431","0.0-6.0-5.24","548","","","","","make choice","638","1","","","critical","c","t","d","240","164","164","240","162.6685","237.1485","trueblood","0.02","h","164","240","240","164","162.6685","237.1485","39360","39360","38576.5967","dc","null","null","null","null","null","null","[3,1]","","",""
"","canvas-keyboard-response","180","3885452","0.0-6.0-6.24","548","","","","","clear_screen","null","null","","","critical","c","t","d","240","164","164","240","162.6685","237.1485","trueblood","0.02","h","164","240","240","164","162.6685","237.1485","39360","39360","38576.5967","dc","null","null","null","null","null","null","[3,1]","","",""
"","canvas-keyboard-response","181","3885652","0.0-6.0-0.25","548","","","","","pre trial waiting period","null","null","","","critical","c","t","d","164","240","240","164","237.1485","162.6685","spektor","0.02","w","240","164","164","240","237.1485","162.6685","39360","39360","38576.5967","tc","null","null","null","null","null","null","[2,1]","462.82565481305517","180.2023046387005","537.6197662707068"
"","canvas-keyboard-response","182","3885677","0.0-6.0-1.25","548","","","","","clear_screen","null","null","","","critical","c","t","d","164","240","240","164","237.1485","162.6685","spektor","0.02","w","240","164","164","240","237.1485","162.6685","39360","39360","38576.5967","tc","null","null","null","null","null","null","[2,1]","462.82565481305517","180.2023046387005","537.6197662707068"
"","canvas-keyboard-response","183","3886185","0.0-6.0-2.25","548","","","","","rectangles no change","null","null","","","critical","c","t","d","164","240","240","164","237.1485","162.6685","spektor","0.02","w","240","164","164","240","237.1485","162.6685","39360","39360","38576.5967","tc","null","null","null","null","null","null","[2,1]","462.82565481305517","180.2023046387005","537.6197662707068"
"","canvas-keyboard-response","184","3887518","0.0-6.0-3.25","548","","","","","rectangles with change","null","null","","","critical","c","t","d","164","240","240","164","237.1485","162.6685","spektor","0.02","w","240","164","164","240","237.1485","162.6685","39360","39360","38576.5967","tc","null","null","null","null","null","null","[2,1]","462.82565481305517","180.2023046387005","537.6197662707068"
"","canvas-keyboard-response","185","3887544","0.0-6.0-4.25","548","","","","","clear_screen","null","null","","","critical","c","t","d","164","240","240","164","237.1485","162.6685","spektor","0.02","w","240","164","164","240","237.1485","162.6685","39360","39360","38576.5967","tc","null","null","null","null","null","null","[2,1]","462.82565481305517","180.2023046387005","537.6197662707068"
"","canvas-keyboard-response","186","3888590","0.0-6.0-5.25","548","","","","","make choice","1039","2","","","critical","c","t","d","164","240","240","164","237.1485","162.6685","spektor","0.02","w","240","164","164","240","237.1485","162.6685","39360","39360","38576.5967","tc","null","null","null","null","null","null","[2,1]","","",""
"","canvas-keyboard-response","187","3888607","0.0-6.0-6.25","548","","","","","clear_screen","null","null","","","critical","c","t","d","164","240","240","164","237.1485","162.6685","spektor","0.02","w","240","164","164","240","237.1485","162.6685","39360","39360","38576.5967","tc","null","null","null","null","null","null","[2,1]","","",""
"","canvas-keyboard-response","188","3888809","0.0-6.0-0.26","548","","","","","pre trial waiting period","null","null","","","critical","t","c","d","164","240","240","164","158.0083","227.1683","spektor","0.09","h","164","240","240","164","158.0083","227.1683","39360","39360","35894.4834","dc","null","null","null","null","null","null","[3,2]","471.7627344406489","154.8001736628647","510.57656728928447"
"","canvas-keyboard-response","189","3888828","0.0-6.0-1.26","548","","","","","clear_screen","null","null","","","critical","t","c","d","164","240","240","164","158.0083","227.1683","spektor","0.09","h","164","240","240","164","158.0083","227.1683","39360","39360","35894.4834","dc","null","null","null","null","null","null","[3,2]","471.7627344406489","154.8001736628647","510.57656728928447"
"","canvas-keyboard-response","190","3889337","0.0-6.0-2.26","548","","","","","rectangles no change","null","null","","","critical","t","c","d","164","240","240","164","158.0083","227.1683","spektor","0.09","h","164","240","240","164","158.0083","227.1683","39360","39360","35894.4834","dc","null","null","null","null","null","null","[3,2]","471.7627344406489","154.8001736628647","510.57656728928447"
"","canvas-keyboard-response","191","3890675","0.0-6.0-3.26","548","","","","","rectangles with change","null","null","","","critical","t","c","d","164","240","240","164","158.0083","227.1683","spektor","0.09","h","164","240","240","164","158.0083","227.1683","39360","39360","35894.4834","dc","null","null","null","null","null","null","[3,2]","471.7627344406489","154.8001736628647","510.57656728928447"
"","canvas-keyboard-response","192","3890693","0.0-6.0-4.26","548","","","","","clear_screen","null","null","","","critical","t","c","d","164","240","240","164","158.0083","227.1683","spektor","0.09","h","164","240","240","164","158.0083","227.1683","39360","39360","35894.4834","dc","null","null","null","null","null","null","[3,2]","471.7627344406489","154.8001736628647","510.57656728928447"
"","canvas-keyboard-response","193","3891246","0.0-6.0-5.26","548","","","","","make choice","544","2","","","critical","t","c","d","164","240","240","164","158.0083","227.1683","spektor","0.09","h","164","240","240","164","158.0083","227.1683","39360","39360","35894.4834","dc","null","null","null","null","null","null","[3,2]","","",""
"","canvas-keyboard-response","194","3891264","0.0-6.0-6.26","548","","","","","clear_screen","null","null","","","critical","t","c","d","164","240","240","164","158.0083","227.1683","spektor","0.09","h","164","240","240","164","158.0083","227.1683","39360","39360","35894.4834","dc","null","null","null","null","null","null","[3,2]","","",""
"","canvas-keyboard-response","195","3891465","0.0-6.0-0.27","548","","","","","pre trial waiting period","null","null","","","catch","sw","l","sh","180","200","238","223","171","191","trueblood","null","null","null","null","null","null","null","null","null","null","null","","180","200","260","200","36000","52000","[1,2]","462.0690974587476","434.48100586405826","477.4844511979676"
"","canvas-keyboard-response","196","3891488","0.0-6.0-1.27","548","","","","","clear_screen","null","null","","","catch","sw","l","sh","180","200","238","223","171","191","trueblood","null","null","null","null","null","null","null","null","null","null","null","","180","200","260","200","36000","52000","[1,2]","462.0690974587476","434.48100586405826","477.4844511979676"
"","canvas-keyboard-response","197","3891996","0.0-6.0-2.27","548","","","","","rectangles no change","null","null","","","catch","sw","l","sh","180","200","238","223","171","191","trueblood","null","null","null","null","null","null","null","null","null","null","null","","180","200","260","200","36000","52000","[1,2]","462.0690974587476","434.48100586405826","477.4844511979676"
"","canvas-keyboard-response","198","3893330","0.0-6.0-3.27","548","","","","","rectangles with change","null","null","","","catch","sw","l","sh","180","200","238","223","171","191","trueblood","null","null","null","null","null","null","null","null","null","null","null","","180","200","260","200","36000","52000","[1,2]","462.0690974587476","434.48100586405826","477.4844511979676"
"","canvas-keyboard-response","199","3893350","0.0-6.0-4.27","548","","","","","clear_screen","null","null","","","catch","sw","l","sh","180","200","238","223","171","191","trueblood","null","null","null","null","null","null","null","null","null","null","null","","180","200","260","200","36000","52000","[1,2]","462.0690974587476","434.48100586405826","477.4844511979676"
"","canvas-keyboard-response","200","3893998","0.0-6.0-5.27","548","","","","","make choice","642","2","","","catch","sw","l","sh","180","200","238","223","171","191","trueblood","null","null","null","null","null","null","null","null","null","null","null","","180","200","260","200","36000","52000","[1,2]","","",""
"","canvas-keyboard-response","201","3894017","0.0-6.0-6.27","548","","","","","clear_screen","null","null","","","catch","sw","l","sh","180","200","238","223","171","191","trueblood","null","null","null","null","null","null","null","null","null","null","null","","180","200","260","200","36000","52000","[1,2]","","",""
"","canvas-keyboard-response","202","3894218","0.0-6.0-0.28","548","","","","","pre trial waiting period","null","null","","","critical","d","t","c","237.1485","162.6685","240","164","164","240","spektor","0.02","w","240","164","164","240","237.1485","162.6685","39360","39360","38576.5967","dc","null","null","null","null","null","null","[1,3]","530.769225395503","174.97924739379218","498.9687094274091"
"","canvas-keyboard-response","203","3894238","0.0-6.0-1.28","548","","","","","clear_screen","null","null","","","critical","d","t","c","237.1485","162.6685","240","164","164","240","spektor","0.02","w","240","164","164","240","237.1485","162.6685","39360","39360","38576.5967","dc","null","null","null","null","null","null","[1,3]","530.769225395503","174.97924739379218","498.9687094274091"
"","canvas-keyboard-response","204","3894745","0.0-6.0-2.28","548","","","","","rectangles no change","null","null","","","critical","d","t","c","237.1485","162.6685","240","164","164","240","spektor","0.02","w","240","164","164","240","237.1485","162.6685","39360","39360","38576.5967","dc","null","null","null","null","null","null","[1,3]","530.769225395503","174.97924739379218","498.9687094274091"
"","canvas-keyboard-response","205","3896084","0.0-6.0-3.28","548","","","","","rectangles with change","null","null","","","critical","d","t","c","237.1485","162.6685","240","164","164","240","spektor","0.02","w","240","164","164","240","237.1485","162.6685","39360","39360","38576.5967","dc","null","null","null","null","null","null","[1,3]","530.769225395503","174.97924739379218","498.9687094274091"
"","canvas-keyboard-response","206","3896107","0.0-6.0-4.28","548","","","","","clear_screen","null","null","","","critical","d","t","c","237.1485","162.6685","240","164","164","240","spektor","0.02","w","240","164","164","240","237.1485","162.6685","39360","39360","38576.5967","dc","null","null","null","null","null","null","[1,3]","530.769225395503","174.97924739379218","498.9687094274091"
"","canvas-keyboard-response","207","3897646","0.0-6.0-5.28","548","","","","","make choice","1532","1","","","critical","d","t","c","237.1485","162.6685","240","164","164","240","spektor","0.02","w","240","164","164","240","237.1485","162.6685","39360","39360","38576.5967","dc","null","null","null","null","null","null","[1,3]","","",""
"","canvas-keyboard-response","208","3897664","0.0-6.0-6.28","548","","","","","clear_screen","null","null","","","critical","d","t","c","237.1485","162.6685","240","164","164","240","spektor","0.02","w","240","164","164","240","237.1485","162.6685","39360","39360","38576.5967","dc","null","null","null","null","null","null","[1,3]","","",""
"","canvas-keyboard-response","209","3897865","0.0-6.0-0.29","548","","","","","pre trial waiting period","null","null","","","critical","t","d","c","164","240","162.6685","237.1485","240","164","spektor","0.02","h","164","240","240","164","162.6685","237.1485","39360","39360","38576.5967","dc","null","null","null","null","null","null","[2,3]","503.3259488113739","100.20686367820052","530.0494435385591"
"","canvas-keyboard-response","210","3897888","0.0-6.0-1.29","548","","","","","clear_screen","null","null","","","critical","t","d","c","164","240","162.6685","237.1485","240","164","spektor","0.02","h","164","240","240","164","162.6685","237.1485","39360","39360","38576.5967","dc","null","null","null","null","null","null","[2,3]","503.3259488113739","100.20686367820052","530.0494435385591"
"","canvas-keyboard-response","211","3898398","0.0-6.0-2.29","548","","","","","rectangles no change","null","null","","","critical","t","d","c","164","240","162.6685","237.1485","240","164","spektor","0.02","h","164","240","240","164","162.6685","237.1485","39360","39360","38576.5967","dc","null","null","null","null","null","null","[2,3]","503.3259488113739","100.20686367820052","530.0494435385591"
"","canvas-keyboard-response","212","3899736","0.0-6.0-3.29","548","","","","","rectangles with change","null","null","","","critical","t","d","c","164","240","162.6685","237.1485","240","164","spektor","0.02","h","164","240","240","164","162.6685","237.1485","39360","39360","38576.5967","dc","null","null","null","null","null","null","[2,3]","503.3259488113739","100.20686367820052","530.0494435385591"
"","canvas-keyboard-response","213","3899754","0.0-6.0-4.29","548","","","","","clear_screen","null","null","","","critical","t","d","c","164","240","162.6685","237.1485","240","164","spektor","0.02","h","164","240","240","164","162.6685","237.1485","39360","39360","38576.5967","dc","null","null","null","null","null","null","[2,3]","503.3259488113739","100.20686367820052","530.0494435385591"
"","canvas-keyboard-response","214","3900831","0.0-6.0-5.29","548","","","","","make choice","1069","3","","","critical","t","d","c","164","240","162.6685","237.1485","240","164","spektor","0.02","h","164","240","240","164","162.6685","237.1485","39360","39360","38576.5967","dc","null","null","null","null","null","null","[2,3]","","",""
"","canvas-keyboard-response","215","3900848","0.0-6.0-6.29","548","","","","","clear_screen","null","null","","","critical","t","d","c","164","240","162.6685","237.1485","240","164","spektor","0.02","h","164","240","240","164","162.6685","237.1485","39360","39360","38576.5967","dc","null","null","null","null","null","null","[2,3]","","",""
"","canvas-keyboard-response","216","3901049","0.0-6.0-0.30","548","","","","","pre trial waiting period","null","null","","","critical","c","t","d","164","240","240","164","232.8713","160.6713","trueblood","0.05","w","240","164","164","240","232.8713","160.6713","39360","39360","37415.7294","dc","null","null","null","null","null","null","[3,1]","462.43986829193375","492.4941624469276","514.8132044637728"
"","canvas-keyboard-response","217","3901069","0.0-6.0-1.30","548","","","","","clear_screen","null","null","","","critical","c","t","d","164","240","240","164","232.8713","160.6713","trueblood","0.05","w","240","164","164","240","232.8713","160.6713","39360","39360","37415.7294","dc","null","null","null","null","null","null","[3,1]","462.43986829193375","492.4941624469276","514.8132044637728"
"","canvas-keyboard-response","218","3901578","0.0-6.0-2.30","548","","","","","rectangles no change","null","null","","","critical","c","t","d","164","240","240","164","232.8713","160.6713","trueblood","0.05","w","240","164","164","240","232.8713","160.6713","39360","39360","37415.7294","dc","null","null","null","null","null","null","[3,1]","462.43986829193375","492.4941624469276","514.8132044637728"
"","canvas-keyboard-response","219","3902916","0.0-6.0-3.30","548","","","","","rectangles with change","null","null","","","critical","c","t","d","164","240","240","164","232.8713","160.6713","trueblood","0.05","w","240","164","164","240","232.8713","160.6713","39360","39360","37415.7294","dc","null","null","null","null","null","null","[3,1]","462.43986829193375","492.4941624469276","514.8132044637728"
"","canvas-keyboard-response","220","3902935","0.0-6.0-4.30","548","","","","","clear_screen","null","null","","","critical","c","t","d","164","240","240","164","232.8713","160.6713","trueblood","0.05","w","240","164","164","240","232.8713","160.6713","39360","39360","37415.7294","dc","null","null","null","null","null","null","[3,1]","462.43986829193375","492.4941624469276","514.8132044637728"
"","canvas-keyboard-response","221","3903503","0.0-6.0-5.30","548","","","","","make choice","560","3","","","critical","c","t","d","164","240","240","164","232.8713","160.6713","trueblood","0.05","w","240","164","164","240","232.8713","160.6713","39360","39360","37415.7294","dc","null","null","null","null","null","null","[3,1]","","",""
"","canvas-keyboard-response","222","3903524","0.0-6.0-6.30","548","","","","","clear_screen","null","null","","","critical","c","t","d","164","240","240","164","232.8713","160.6713","trueblood","0.05","w","240","164","164","240","232.8713","160.6713","39360","39360","37415.7294","dc","null","null","null","null","null","null","[3,1]","","",""
"","canvas-keyboard-response","223","3903725","0.0-6.0-0.31","548","","","","","pre trial waiting period","null","null","","","catch","l","sw","sh","217","290","203","212","197","165","trueblood","null","null","null","null","null","null","null","null","null","null","null","","180","200","260","200","36000","52000","[1,2]","426.6905308095407","465.09763302660855","517.6265459226936"
"","canvas-keyboard-response","224","3903748","0.0-6.0-1.31","548","","","","","clear_screen","null","null","","","catch","l","sw","sh","217","290","203","212","197","165","trueblood","null","null","null","null","null","null","null","null","null","null","null","","180","200","260","200","36000","52000","[1,2]","426.6905308095407","465.09763302660855","517.6265459226936"
"","canvas-keyboard-response","225","3904256","0.0-6.0-2.31","548","","","","","rectangles no change","null","null","","","catch","l","sw","sh","217","290","203","212","197","165","trueblood","null","null","null","null","null","null","null","null","null","null","null","","180","200","260","200","36000","52000","[1,2]","426.6905308095407","465.09763302660855","517.6265459226936"
"","canvas-keyboard-response","226","3905596","0.0-6.0-3.31","548","","","","","rectangles with change","null","null","","","catch","l","sw","sh","217","290","203","212","197","165","trueblood","null","null","null","null","null","null","null","null","null","null","null","","180","200","260","200","36000","52000","[1,2]","426.6905308095407","465.09763302660855","517.6265459226936"
"","canvas-keyboard-response","227","3905618","0.0-6.0-4.31","548","","","","","clear_screen","null","null","","","catch","l","sw","sh","217","290","203","212","197","165","trueblood","null","null","null","null","null","null","null","null","null","null","null","","180","200","260","200","36000","52000","[1,2]","426.6905308095407","465.09763302660855","517.6265459226936"
"","canvas-keyboard-response","228","3906110","0.0-6.0-5.31","548","","","","","make choice","485","1","","","catch","l","sw","sh","217","290","203","212","197","165","trueblood","null","null","null","null","null","null","null","null","null","null","null","","180","200","260","200","36000","52000","[1,2]","","",""
"","canvas-keyboard-response","229","3906128","0.0-6.0-6.31","548","","","","","clear_screen","null","null","","","catch","l","sw","sh","217","290","203","212","197","165","trueblood","null","null","null","null","null","null","null","null","null","null","null","","180","200","260","200","36000","52000","[1,2]","","",""
"","canvas-keyboard-response","230","3906329","0.0-6.0-0.32","548","","","","","pre trial waiting period","null","null","","","catch","sw","l","sh","180","200","246","215","181","181","trueblood","null","null","null","null","null","null","null","null","null","null","null","","180","200","260","200","36000","52000","[2,3]","455.80215657187","473.5886414549287","481.47124266533166"
"","canvas-keyboard-response","231","3906352","0.0-6.0-1.32","548","","","","","clear_screen","null","null","","","catch","sw","l","sh","180","200","246","215","181","181","trueblood","null","null","null","null","null","null","null","null","null","null","null","","180","200","260","200","36000","52000","[2,3]","455.80215657187","473.5886414549287","481.47124266533166"
"","canvas-keyboard-response","232","3906860","0.0-6.0-2.32","548","","","","","rectangles no change","null","null","","","catch","sw","l","sh","180","200","246","215","181","181","trueblood","null","null","null","null","null","null","null","null","null","null","null","","180","200","260","200","36000","52000","[2,3]","455.80215657187","473.5886414549287","481.47124266533166"
"","canvas-keyboard-response","233","3908195","0.0-6.0-3.32","548","","","","","rectangles with change","null","null","","","catch","sw","l","sh","180","200","246","215","181","181","trueblood","null","null","null","null","null","null","null","null","null","null","null","","180","200","260","200","36000","52000","[2,3]","455.80215657187","473.5886414549287","481.47124266533166"
"","canvas-keyboard-response","234","3908214","0.0-6.0-4.32","548","","","","","clear_screen","null","null","","","catch","sw","l","sh","180","200","246","215","181","181","trueblood","null","null","null","null","null","null","null","null","null","null","null","","180","200","260","200","36000","52000","[2,3]","455.80215657187","473.5886414549287","481.47124266533166"
"","canvas-keyboard-response","235","3908742","0.0-6.0-5.32","548","","","","","make choice","521","2","","","catch","sw","l","sh","180","200","246","215","181","181","trueblood","null","null","null","null","null","null","null","null","null","null","null","","180","200","260","200","36000","52000","[2,3]","","",""
"","canvas-keyboard-response","236","3908764","0.0-6.0-6.32","548","","","","","clear_screen","null","null","","","catch","sw","l","sh","180","200","246","215","181","181","trueblood","null","null","null","null","null","null","null","null","null","null","null","","180","200","260","200","36000","52000","[2,3]","","",""
"","canvas-keyboard-response","237","3908965","0.0-6.0-0.33","548","","","","","pre trial waiting period","null","null","","","critical","t","c","d","164","240","240","164","164","240","trueblood","0","h","164","240","240","164","164","240","39360","39360","39360","tc","null","null","null","null","null","null","[1,2]","421.0024858495167","481.34799193987266","442.08059125976536"
"","canvas-keyboard-response","238","3908988","0.0-6.0-1.33","548","","","","","clear_screen","null","null","","","critical","t","c","d","164","240","240","164","164","240","trueblood","0","h","164","240","240","164","164","240","39360","39360","39360","tc","null","null","null","null","null","null","[1,2]","421.0024858495167","481.34799193987266","442.08059125976536"
"","canvas-keyboard-response","239","3909495","0.0-6.0-2.33","548","","","","","rectangles no change","null","null","","","critical","t","c","d","164","240","240","164","164","240","trueblood","0","h","164","240","240","164","164","240","39360","39360","39360","tc","null","null","null","null","null","null","[1,2]","421.0024858495167","481.34799193987266","442.08059125976536"
"","canvas-keyboard-response","240","3910836","0.0-6.0-3.33","548","","","","","rectangles with change","null","null","","","critical","t","c","d","164","240","240","164","164","240","trueblood","0","h","164","240","240","164","164","240","39360","39360","39360","tc","null","null","null","null","null","null","[1,2]","421.0024858495167","481.34799193987266","442.08059125976536"
"","canvas-keyboard-response","241","3910859","0.0-6.0-4.33","548","","","","","clear_screen","null","null","","","critical","t","c","d","164","240","240","164","164","240","trueblood","0","h","164","240","240","164","164","240","39360","39360","39360","tc","null","null","null","null","null","null","[1,2]","421.0024858495167","481.34799193987266","442.08059125976536"
"","canvas-keyboard-response","242","3911709","0.0-6.0-5.33","548","","","","","make choice","844","1","","","critical","t","c","d","164","240","240","164","164","240","trueblood","0","h","164","240","240","164","164","240","39360","39360","39360","tc","null","null","null","null","null","null","[1,2]","","",""
"","canvas-keyboard-response","243","3911728","0.0-6.0-6.33","548","","","","","clear_screen","null","null","","","critical","t","c","d","164","240","240","164","164","240","trueblood","0","h","164","240","240","164","164","240","39360","39360","39360","tc","null","null","null","null","null","null","[1,2]","","",""
"","canvas-keyboard-response","244","3911929","0.0-6.0-0.34","548","","","","","pre trial waiting period","null","null","","","catch","sh","l","sw","164","191","196","252","204","200","trueblood","null","null","null","null","null","null","null","null","null","null","null","","180","200","260","200","36000","52000","[1,2]","487.3835934372267","452.5913244793877","462.51764290386063"
"","canvas-keyboard-response","245","3911953","0.0-6.0-1.34","548","","","","","clear_screen","null","null","","","catch","sh","l","sw","164","191","196","252","204","200","trueblood","null","null","null","null","null","null","null","null","null","null","null","","180","200","260","200","36000","52000","[1,2]","487.3835934372267","452.5913244793877","462.51764290386063"
"","canvas-keyboard-response","246","3912460","0.0-6.0-2.34","548","","","","","rectangles no change","null","null","","","catch","sh","l","sw","164","191","196","252","204","200","trueblood","null","null","null","null","null","null","null","null","null","null","null","","180","200","260","200","36000","52000","[1,2]","487.3835934372267","452.5913244793877","462.51764290386063"
"","canvas-keyboard-response","247","3913799","0.0-6.0-3.34","548","","","","","rectangles with change","null","null","","","catch","sh","l","sw","164","191","196","252","204","200","trueblood","null","null","null","null","null","null","null","null","null","null","null","","180","200","260","200","36000","52000","[1,2]","487.3835934372267","452.5913244793877","462.51764290386063"
"","canvas-keyboard-response","248","3913824","0.0-6.0-4.34","548","","","","","clear_screen","null","null","","","catch","sh","l","sw","164","191","196","252","204","200","trueblood","null","null","null","null","null","null","null","null","null","null","null","","180","200","260","200","36000","52000","[1,2]","487.3835934372267","452.5913244793877","462.51764290386063"
"","canvas-keyboard-response","249","3914430","0.0-6.0-5.34","548","","","","","make choice","596","2","","","catch","sh","l","sw","164","191","196","252","204","200","trueblood","null","null","null","null","null","null","null","null","null","null","null","","180","200","260","200","36000","52000","[1,2]","","",""
"","canvas-keyboard-response","250","3914451","0.0-6.0-6.34","548","","","","","clear_screen","null","null","","","catch","sh","l","sw","164","191","196","252","204","200","trueblood","null","null","null","null","null","null","null","null","null","null","null","","180","200","260","200","36000","52000","[1,2]","","",""
"","canvas-keyboard-response","251","3914652","0.0-6.0-0.35","548","","","","","pre trial waiting period","null","null","","","critical","d","c","t","154.6796","220.0396","240","164","164","240","trueblood","0.14","h","164","240","240","164","154.6796","220.0396","39360","39360","34035.6388","tc","null","null","null","null","null","null","[3,2]","467.09281886162177","483.71879731867625","422.519055698488"
"","canvas-keyboard-response","252","3914673","0.0-6.0-1.35","548","","","","","clear_screen","null","null","","","critical","d","c","t","154.6796","220.0396","240","164","164","240","trueblood","0.14","h","164","240","240","164","154.6796","220.0396","39360","39360","34035.6388","tc","null","null","null","null","null","null","[3,2]","467.09281886162177","483.71879731867625","422.519055698488"
"","canvas-keyboard-response","253","3915183","0.0-6.0-2.35","548","","","","","rectangles no change","null","null","","","critical","d","c","t","154.6796","220.0396","240","164","164","240","trueblood","0.14","h","164","240","240","164","154.6796","220.0396","39360","39360","34035.6388","tc","null","null","null","null","null","null","[3,2]","467.09281886162177","483.71879731867625","422.519055698488"
"","canvas-keyboard-response","254","3916520","0.0-6.0-3.35","548","","","","","rectangles with change","null","null","","","critical","d","c","t","154.6796","220.0396","240","164","164","240","trueblood","0.14","h","164","240","240","164","154.6796","220.0396","39360","39360","34035.6388","tc","null","null","null","null","null","null","[3,2]","467.09281886162177","483.71879731867625","422.519055698488"
"","canvas-keyboard-response","255","3916543","0.0-6.0-4.35","548","","","","","clear_screen","null","null","","","critical","d","c","t","154.6796","220.0396","240","164","164","240","trueblood","0.14","h","164","240","240","164","154.6796","220.0396","39360","39360","34035.6388","tc","null","null","null","null","null","null","[3,2]","467.09281886162177","483.71879731867625","422.519055698488"
"","canvas-keyboard-response","256","3917446","0.0-6.0-5.35","548","","","","","make choice","896","3","","","critical","d","c","t","154.6796","220.0396","240","164","164","240","trueblood","0.14","h","164","240","240","164","154.6796","220.0396","39360","39360","34035.6388","tc","null","null","null","null","null","null","[3,2]","","",""
"","canvas-keyboard-response","257","3917466","0.0-6.0-6.35","548","","","","","clear_screen","null","null","","","critical","d","c","t","154.6796","220.0396","240","164","164","240","trueblood","0.14","h","164","240","240","164","154.6796","220.0396","39360","39360","34035.6388","tc","null","null","null","null","null","null","[3,2]","","",""
"","canvas-keyboard-response","258","3917667","0.0-6.0-0.36","548","","","","","pre trial waiting period","null","null","","","critical","t","d","c","240","164","240","164","164","240","spektor","0","w","240","164","164","240","240","164","39360","39360","39360","tc","null","null","null","null","null","null","[1,3]","511.98289678345844","198.42339150194744","464.1435561361636"
"","canvas-keyboard-response","259","3917686","0.0-6.0-1.36","548","","","","","clear_screen","null","null","","","critical","t","d","c","240","164","240","164","164","240","spektor","0","w","240","164","164","240","240","164","39360","39360","39360","tc","null","null","null","null","null","null","[1,3]","511.98289678345844","198.42339150194744","464.1435561361636"
"","canvas-keyboard-response","260","3918198","0.0-6.0-2.36","548","","","","","rectangles no change","null","null","","","critical","t","d","c","240","164","240","164","164","240","spektor","0","w","240","164","164","240","240","164","39360","39360","39360","tc","null","null","null","null","null","null","[1,3]","511.98289678345844","198.42339150194744","464.1435561361636"
"","canvas-keyboard-response","261","3919534","0.0-6.0-3.36","548","","","","","rectangles with change","null","null","","","critical","t","d","c","240","164","240","164","164","240","spektor","0","w","240","164","164","240","240","164","39360","39360","39360","tc","null","null","null","null","null","null","[1,3]","511.98289678345844","198.42339150194744","464.1435561361636"
"","canvas-keyboard-response","262","3919558","0.0-6.0-4.36","548","","","","","clear_screen","null","null","","","critical","t","d","c","240","164","240","164","164","240","spektor","0","w","240","164","164","240","240","164","39360","39360","39360","tc","null","null","null","null","null","null","[1,3]","511.98289678345844","198.42339150194744","464.1435561361636"
"","canvas-keyboard-response","263","3920014","0.0-6.0-5.36","548","","","","","make choice","450","1","","","critical","t","d","c","240","164","240","164","164","240","spektor","0","w","240","164","164","240","240","164","39360","39360","39360","tc","null","null","null","null","null","null","[1,3]","","",""
"","canvas-keyboard-response","264","3920033","0.0-6.0-6.36","548","","","","","clear_screen","null","null","","","critical","t","d","c","240","164","240","164","164","240","spektor","0","w","240","164","164","240","240","164","39360","39360","39360","tc","null","null","null","null","null","null","[1,3]","","",""
"","canvas-keyboard-response","265","3920234","0.0-6.0-0.37","548","","","","","pre trial waiting period","null","null","","","catch","sw","sh","l","180","200","163","213","160","275","trueblood","null","null","null","null","null","null","null","null","null","null","null","","180","200","260","200","36000","52000","[2,3]","453.4017545560886","442.47747343353416","396.480241314212"
