"success","trial_type","trial_index","time_elapsed","internal_node_id","sub_n","timeout","failed_images","failed_audio","failed_video","screen_id","rt","response","stimulus","view_history","trial","r1","r2","r3","w1","h1","w2","h2","w3","h3","display","tdd","tdo","tw","th","cw","ch","dw","dh","ta","ca","da","probe","csls","csss","clls","clss","sa","la","probe_rects","r1yloc","r2yloc","r3yloc"
"true","fullscreen","0","1653","0.0-0.0","524","","","","","","","","","","","","","","","","","","","","","","","","","","","","","","","","","","","","","","","","","",""
"true","preload","1","1724","0.0-1.0","524","false","[]","[]","[]","img preload","","","","","","","","","","","","","","","","","","","","","","","","","","","","","","","","","","","","",""
"","survey-html-form","2","8645","0.0-2.0","524","","","","","enter-sub-number","6910","{""response"":""524""}","","","","","","","","","","","","","","","","","","","","","","","","","","","","","","","","","","",""
"","image-button-response","3","57952","0.0-3.0","524","","","","","","49232","0","consent.png","","","","","","","","","","","","","","","","","","","","","","","","","","","","","","","","","",""
"","html-button-response","4","61686","0.0-4.0","524","","","","","intro mssg","3731","0","<div style= ""font-size:25px;"" <p> <strong> Welcome! </strong><br> <p style=""color:#8B0000; font-size:25px;""><strong> Please do NOT exit full screen until you are done with the experiment. </strong> </p><p style=""font-size:25px;color:#8B0000;""> <strong> Your data will be lost <br> if you try to go back or refresh the page after the experiment starts. Feel free to click ""previous"" during the instructions, however.</strong> </p><br><p> <strong> Thanks in advance for your contribution to our research! </strong></p>","","","","","","","","","","","","","","","","","","","","","","","","","","","","","","","","","",""
"","instructions","5","99527","0.0-5.0","524","","","","","instructions","37835","","","[{""page_index"":0,""viewing_time"":5106},{""page_index"":1,""viewing_time"":5752},{""page_index"":2,""viewing_time"":1873},{""page_index"":3,""viewing_time"":9512},{""page_index"":4,""viewing_time"":7823},{""page_index"":5,""viewing_time"":4897},{""page_index"":6,""viewing_time"":1895},{""page_index"":7,""viewing_time"":976}]","","","","","","","","","","","","","","","","","","","","","","","","","","","","","","","","",""
"","canvas-keyboard-response","6","99733","0.0-6.0-0.0","524","","","","","pre trial waiting period","null","null","","","critical","t","d","c","164","240","160.6713","232.8713","240","164","spektor","0.05","h","164","240","240","164","160.6713","232.8713","39360","39360","37415.7294","dc","null","null","null","null","null","null","[2,3]","466.74952285360246","106.8034837472146","508.7322404050279"
"","canvas-keyboard-response","7","99760","0.0-6.0-1.0","524","","","","","clear_screen","null","null","","","critical","t","d","c","164","240","160.6713","232.8713","240","164","spektor","0.05","h","164","240","240","164","160.6713","232.8713","39360","39360","37415.7294","dc","null","null","null","null","null","null","[2,3]","466.74952285360246","106.8034837472146","508.7322404050279"
"","canvas-keyboard-response","8","100287","0.0-6.0-2.0","524","","","","","rectangles no change","null","null","","","critical","t","d","c","164","240","160.6713","232.8713","240","164","spektor","0.05","h","164","240","240","164","160.6713","232.8713","39360","39360","37415.7294","dc","null","null","null","null","null","null","[2,3]","466.74952285360246","106.8034837472146","508.7322404050279"
"","canvas-keyboard-response","9","101626","0.0-6.0-3.0","524","","","","","rectangles with change","null","null","","","critical","t","d","c","164","240","160.6713","232.8713","240","164","spektor","0.05","h","164","240","240","164","160.6713","232.8713","39360","39360","37415.7294","dc","null","null","null","null","null","null","[2,3]","466.74952285360246","106.8034837472146","508.7322404050279"
"","canvas-keyboard-response","10","101646","0.0-6.0-4.0","524","","","","","clear_screen","null","null","","","critical","t","d","c","164","240","160.6713","232.8713","240","164","spektor","0.05","h","164","240","240","164","160.6713","232.8713","39360","39360","37415.7294","dc","null","null","null","null","null","null","[2,3]","466.74952285360246","106.8034837472146","508.7322404050279"
"","canvas-keyboard-response","11","105622","0.0-6.0-5.0","524","","","","","make choice","3968","3","","","critical","t","d","c","164","240","160.6713","232.8713","240","164","spektor","0.05","h","164","240","240","164","160.6713","232.8713","39360","39360","37415.7294","dc","null","null","null","null","null","null","[2,3]","","",""
"","canvas-keyboard-response","12","105642","0.0-6.0-6.0","524","","","","","clear_screen","null","null","","","critical","t","d","c","164","240","160.6713","232.8713","240","164","spektor","0.05","h","164","240","240","164","160.6713","232.8713","39360","39360","37415.7294","dc","null","null","null","null","null","null","[2,3]","","",""
"","canvas-keyboard-response","13","105843","0.0-6.0-0.1","524","","","","","pre trial waiting period","null","null","","","critical","t","c","d","240","164","164","240","237.1485","162.6685","trueblood","0.02","w","240","164","164","240","237.1485","162.6685","39360","39360","38576.5967","td","null","null","null","null","null","null","[1,3]","509.74382705584253","465.5141913199305","503.13098742403486"
"","canvas-keyboard-response","14","105866","0.0-6.0-1.1","524","","","","","clear_screen","null","null","","","critical","t","c","d","240","164","164","240","237.1485","162.6685","trueblood","0.02","w","240","164","164","240","237.1485","162.6685","39360","39360","38576.5967","td","null","null","null","null","null","null","[1,3]","509.74382705584253","465.5141913199305","503.13098742403486"
"","canvas-keyboard-response","15","106373","0.0-6.0-2.1","524","","","","","rectangles no change","null","null","","","critical","t","c","d","240","164","164","240","237.1485","162.6685","trueblood","0.02","w","240","164","164","240","237.1485","162.6685","39360","39360","38576.5967","td","null","null","null","null","null","null","[1,3]","509.74382705584253","465.5141913199305","503.13098742403486"
"","canvas-keyboard-response","16","107710","0.0-6.0-3.1","524","","","","","rectangles with change","null","null","","","critical","t","c","d","240","164","164","240","237.1485","162.6685","trueblood","0.02","w","240","164","164","240","237.1485","162.6685","39360","39360","38576.5967","td","null","null","null","null","null","null","[1,3]","509.74382705584253","465.5141913199305","503.13098742403486"
"","canvas-keyboard-response","17","107730","0.0-6.0-4.1","524","","","","","clear_screen","null","null","","","critical","t","c","d","240","164","164","240","237.1485","162.6685","trueblood","0.02","w","240","164","164","240","237.1485","162.6685","39360","39360","38576.5967","td","null","null","null","null","null","null","[1,3]","509.74382705584253","465.5141913199305","503.13098742403486"
"","canvas-keyboard-response","18","108941","0.0-6.0-5.1","524","","","","","make choice","1202","1","","","critical","t","c","d","240","164","164","240","237.1485","162.6685","trueblood","0.02","w","240","164","164","240","237.1485","162.6685","39360","39360","38576.5967","td","null","null","null","null","null","null","[1,3]","","",""
"","canvas-keyboard-response","19","108962","0.0-6.0-6.1","524","","","","","clear_screen","null","null","","","critical","t","c","d","240","164","164","240","237.1485","162.6685","trueblood","0.02","w","240","164","164","240","237.1485","162.6685","39360","39360","38576.5967","td","null","null","null","null","null","null","[1,3]","","",""
"","canvas-keyboard-response","20","109162","0.0-6.0-0.2","524","","","","","pre trial waiting period","null","null","","","critical","d","t","c","232.8713","160.6713","240","164","164","240","trueblood","0.05","w","240","164","164","240","232.8713","160.6713","39360","39360","37415.7294","td","null","null","null","null","null","null","[2,1]","493.23347595279097","469.7286208690822","448.9968508299306"
"","canvas-keyboard-response","21","109186","0.0-6.0-1.2","524","","","","","clear_screen","null","null","","","critical","d","t","c","232.8713","160.6713","240","164","164","240","trueblood","0.05","w","240","164","164","240","232.8713","160.6713","39360","39360","37415.7294","td","null","null","null","null","null","null","[2,1]","493.23347595279097","469.7286208690822","448.9968508299306"
"","canvas-keyboard-response","22","109694","0.0-6.0-2.2","524","","","","","rectangles no change","null","null","","","critical","d","t","c","232.8713","160.6713","240","164","164","240","trueblood","0.05","w","240","164","164","240","232.8713","160.6713","39360","39360","37415.7294","td","null","null","null","null","null","null","[2,1]","493.23347595279097","469.7286208690822","448.9968508299306"
"","canvas-keyboard-response","23","111033","0.0-6.0-3.2","524","","","","","rectangles with change","null","null","","","critical","d","t","c","232.8713","160.6713","240","164","164","240","trueblood","0.05","w","240","164","164","240","232.8713","160.6713","39360","39360","37415.7294","td","null","null","null","null","null","null","[2,1]","493.23347595279097","469.7286208690822","448.9968508299306"
"","canvas-keyboard-response","24","111053","0.0-6.0-4.2","524","","","","","clear_screen","null","null","","","critical","d","t","c","232.8713","160.6713","240","164","164","240","trueblood","0.05","w","240","164","164","240","232.8713","160.6713","39360","39360","37415.7294","td","null","null","null","null","null","null","[2,1]","493.23347595279097","469.7286208690822","448.9968508299306"
"","canvas-keyboard-response","25","112366","0.0-6.0-5.2","524","","","","","make choice","1305","2","","","critical","d","t","c","232.8713","160.6713","240","164","164","240","trueblood","0.05","w","240","164","164","240","232.8713","160.6713","39360","39360","37415.7294","td","null","null","null","null","null","null","[2,1]","","",""
"","canvas-keyboard-response","26","112383","0.0-6.0-6.2","524","","","","","clear_screen","null","null","","","critical","d","t","c","232.8713","160.6713","240","164","164","240","trueblood","0.05","w","240","164","164","240","232.8713","160.6713","39360","39360","37415.7294","td","null","null","null","null","null","null","[2,1]","","",""
"","canvas-keyboard-response","27","112584","0.0-6.0-0.3","524","","","","","pre trial waiting period","null","null","","","catch","l","sh","sw","285","217","205","142","144","223","spektor","null","null","null","null","null","null","null","null","null","null","null","","180","200","260","200","36000","52000","[1,2]","492.6880126632977","186.2374486707905","502.4138427177029"
"","canvas-keyboard-response","28","112607","0.0-6.0-1.3","524","","","","","clear_screen","null","null","","","catch","l","sh","sw","285","217","205","142","144","223","spektor","null","null","null","null","null","null","null","null","null","null","null","","180","200","260","200","36000","52000","[1,2]","492.6880126632977","186.2374486707905","502.4138427177029"
"","canvas-keyboard-response","29","113115","0.0-6.0-2.3","524","","","","","rectangles no change","null","null","","","catch","l","sh","sw","285","217","205","142","144","223","spektor","null","null","null","null","null","null","null","null","null","null","null","","180","200","260","200","36000","52000","[1,2]","492.6880126632977","186.2374486707905","502.4138427177029"
"","canvas-keyboard-response","30","114451","0.0-6.0-3.3","524","","","","","rectangles with change","null","null","","","catch","l","sh","sw","285","217","205","142","144","223","spektor","null","null","null","null","null","null","null","null","null","null","null","","180","200","260","200","36000","52000","[1,2]","492.6880126632977","186.2374486707905","502.4138427177029"
"","canvas-keyboard-response","31","114474","0.0-6.0-4.3","524","","","","","clear_screen","null","null","","","catch","l","sh","sw","285","217","205","142","144","223","spektor","null","null","null","null","null","null","null","null","null","null","null","","180","200","260","200","36000","52000","[1,2]","492.6880126632977","186.2374486707905","502.4138427177029"
"","canvas-keyboard-response","32","114726","0.0-6.0-5.3","524","","","","","make choice","246","1","","","catch","l","sh","sw","285","217","205","142","144","223","spektor","null","null","null","null","null","null","null","null","null","null","null","","180","200","260","200","36000","52000","[1,2]","","",""
"","canvas-keyboard-response","33","114744","0.0-6.0-6.3","524","","","","","clear_screen","null","null","","","catch","l","sh","sw","285","217","205","142","144","223","spektor","null","null","null","null","null","null","null","null","null","null","null","","180","200","260","200","36000","52000","[1,2]","","",""
"","canvas-keyboard-response","34","114945","0.0-6.0-0.4","524","","","","","pre trial waiting period","null","null","","","catch","sh","sw","l","217","156","176","173","188","244","spektor","null","null","null","null","null","null","null","null","null","null","null","","180","200","260","200","36000","52000","[2,3]","518.1157229109463","192.2508615310051","485.28407363282923"
"","canvas-keyboard-response","35","114964","0.0-6.0-1.4","524","","","","","clear_screen","null","null","","","catch","sh","sw","l","217","156","176","173","188","244","spektor","null","null","null","null","null","null","null","null","null","null","null","","180","200","260","200","36000","52000","[2,3]","518.1157229109463","192.2508615310051","485.28407363282923"
"","canvas-keyboard-response","36","115471","0.0-6.0-2.4","524","","","","","rectangles no change","null","null","","","catch","sh","sw","l","217","156","176","173","188","244","spektor","null","null","null","null","null","null","null","null","null","null","null","","180","200","260","200","36000","52000","[2,3]","518.1157229109463","192.2508615310051","485.28407363282923"
"","canvas-keyboard-response","37","116808","0.0-6.0-3.4","524","","","","","rectangles with change","null","null","","","catch","sh","sw","l","217","156","176","173","188","244","spektor","null","null","null","null","null","null","null","null","null","null","null","","180","200","260","200","36000","52000","[2,3]","518.1157229109463","192.2508615310051","485.28407363282923"
"","canvas-keyboard-response","38","116827","0.0-6.0-4.4","524","","","","","clear_screen","null","null","","","catch","sh","sw","l","217","156","176","173","188","244","spektor","null","null","null","null","null","null","null","null","null","null","null","","180","200","260","200","36000","52000","[2,3]","518.1157229109463","192.2508615310051","485.28407363282923"
"","canvas-keyboard-response","39","118054","0.0-6.0-5.4","524","","","","","make choice","1221","3","","","catch","sh","sw","l","217","156","176","173","188","244","spektor","null","null","null","null","null","null","null","null","null","null","null","","180","200","260","200","36000","52000","[2,3]","","",""
"","canvas-keyboard-response","40","118074","0.0-6.0-6.4","524","","","","","clear_screen","null","null","","","catch","sh","sw","l","217","156","176","173","188","244","spektor","null","null","null","null","null","null","null","null","null","null","null","","180","200","260","200","36000","52000","[2,3]","","",""
"","canvas-keyboard-response","41","118275","0.0-6.0-0.5","524","","","","","pre trial waiting period","null","null","","","critical","c","t","d","164","240","240","164","232.8713","160.6713","spektor","0.05","w","240","164","164","240","232.8713","160.6713","39360","39360","37415.7294","td","null","null","null","null","null","null","[2,3]","471.0255172433747","205.53733615398036","502.4473531004694"
"","canvas-keyboard-response","42","118300","0.0-6.0-1.5","524","","","","","clear_screen","null","null","","","critical","c","t","d","164","240","240","164","232.8713","160.6713","spektor","0.05","w","240","164","164","240","232.8713","160.6713","39360","39360","37415.7294","td","null","null","null","null","null","null","[2,3]","471.0255172433747","205.53733615398036","502.4473531004694"
"","canvas-keyboard-response","43","118811","0.0-6.0-2.5","524","","","","","rectangles no change","null","null","","","critical","c","t","d","164","240","240","164","232.8713","160.6713","spektor","0.05","w","240","164","164","240","232.8713","160.6713","39360","39360","37415.7294","td","null","null","null","null","null","null","[2,3]","471.0255172433747","205.53733615398036","502.4473531004694"
"","canvas-keyboard-response","44","120145","0.0-6.0-3.5","524","","","","","rectangles with change","null","null","","","critical","c","t","d","164","240","240","164","232.8713","160.6713","spektor","0.05","w","240","164","164","240","232.8713","160.6713","39360","39360","37415.7294","td","null","null","null","null","null","null","[2,3]","471.0255172433747","205.53733615398036","502.4473531004694"
"","canvas-keyboard-response","45","120168","0.0-6.0-4.5","524","","","","","clear_screen","null","null","","","critical","c","t","d","164","240","240","164","232.8713","160.6713","spektor","0.05","w","240","164","164","240","232.8713","160.6713","39360","39360","37415.7294","td","null","null","null","null","null","null","[2,3]","471.0255172433747","205.53733615398036","502.4473531004694"
"","canvas-keyboard-response","46","120798","0.0-6.0-5.5","524","","","","","make choice","624","3","","","critical","c","t","d","164","240","240","164","232.8713","160.6713","spektor","0.05","w","240","164","164","240","232.8713","160.6713","39360","39360","37415.7294","td","null","null","null","null","null","null","[2,3]","","",""
"","canvas-keyboard-response","47","120820","0.0-6.0-6.5","524","","","","","clear_screen","null","null","","","critical","c","t","d","164","240","240","164","232.8713","160.6713","spektor","0.05","w","240","164","164","240","232.8713","160.6713","39360","39360","37415.7294","td","null","null","null","null","null","null","[2,3]","","",""
"","canvas-keyboard-response","48","121022","0.0-6.0-0.6","524","","","","","pre trial waiting period","null","null","","","critical","d","c","t","164","240","240","164","164","240","spektor","0","h","164","240","240","164","164","240","39360","39360","39360","dc","null","null","null","null","null","null","[1,2]","494.22690625796866","154.77415753316237","476.0744538656462"
"","canvas-keyboard-response","49","121043","0.0-6.0-1.6","524","","","","","clear_screen","null","null","","","critical","d","c","t","164","240","240","164","164","240","spektor","0","h","164","240","240","164","164","240","39360","39360","39360","dc","null","null","null","null","null","null","[1,2]","494.22690625796866","154.77415753316237","476.0744538656462"
"","canvas-keyboard-response","50","121550","0.0-6.0-2.6","524","","","","","rectangles no change","null","null","","","critical","d","c","t","164","240","240","164","164","240","spektor","0","h","164","240","240","164","164","240","39360","39360","39360","dc","null","null","null","null","null","null","[1,2]","494.22690625796866","154.77415753316237","476.0744538656462"
"","canvas-keyboard-response","51","122889","0.0-6.0-3.6","524","","","","","rectangles with change","null","null","","","critical","d","c","t","164","240","240","164","164","240","spektor","0","h","164","240","240","164","164","240","39360","39360","39360","dc","null","null","null","null","null","null","[1,2]","494.22690625796866","154.77415753316237","476.0744538656462"
"","canvas-keyboard-response","52","122910","0.0-6.0-4.6","524","","","","","clear_screen","null","null","","","critical","d","c","t","164","240","240","164","164","240","spektor","0","h","164","240","240","164","164","240","39360","39360","39360","dc","null","null","null","null","null","null","[1,2]","494.22690625796866","154.77415753316237","476.0744538656462"
"","canvas-keyboard-response","53","123214","0.0-6.0-5.6","524","","","","","make choice","297","2","","","critical","d","c","t","164","240","240","164","164","240","spektor","0","h","164","240","240","164","164","240","39360","39360","39360","dc","null","null","null","null","null","null","[1,2]","","",""
"","canvas-keyboard-response","54","123235","0.0-6.0-6.6","524","","","","","clear_screen","null","null","","","critical","d","c","t","164","240","240","164","164","240","spektor","0","h","164","240","240","164","164","240","39360","39360","39360","dc","null","null","null","null","null","null","[1,2]","","",""
"","canvas-keyboard-response","55","123435","0.0-6.0-0.7","524","","","","","pre trial waiting period","null","null","","","catch","sw","l","sh","180","200","257","182","175","187","trueblood","null","null","null","null","null","null","null","null","null","null","null","","180","200","260","200","36000","52000","[2,3]","462.60369015918536","504.3746690112776","473.62598431216014"
"","canvas-keyboard-response","56","123454","0.0-6.0-1.7","524","","","","","clear_screen","null","null","","","catch","sw","l","sh","180","200","257","182","175","187","trueblood","null","null","null","null","null","null","null","null","null","null","null","","180","200","260","200","36000","52000","[2,3]","462.60369015918536","504.3746690112776","473.62598431216014"
"","canvas-keyboard-response","57","123961","0.0-6.0-2.7","524","","","","","rectangles no change","null","null","","","catch","sw","l","sh","180","200","257","182","175","187","trueblood","null","null","null","null","null","null","null","null","null","null","null","","180","200","260","200","36000","52000","[2,3]","462.60369015918536","504.3746690112776","473.62598431216014"
"","canvas-keyboard-response","58","125295","0.0-6.0-3.7","524","","","","","rectangles with change","null","null","","","catch","sw","l","sh","180","200","257","182","175","187","trueblood","null","null","null","null","null","null","null","null","null","null","null","","180","200","260","200","36000","52000","[2,3]","462.60369015918536","504.3746690112776","473.62598431216014"
"","canvas-keyboard-response","59","125317","0.0-6.0-4.7","524","","","","","clear_screen","null","null","","","catch","sw","l","sh","180","200","257","182","175","187","trueblood","null","null","null","null","null","null","null","null","null","null","null","","180","200","260","200","36000","52000","[2,3]","462.60369015918536","504.3746690112776","473.62598431216014"
"","canvas-keyboard-response","60","125565","0.0-6.0-5.7","524","","","","","make choice","244","2","","","catch","sw","l","sh","180","200","257","182","175","187","trueblood","null","null","null","null","null","null","null","null","null","null","null","","180","200","260","200","36000","52000","[2,3]","","",""
"","canvas-keyboard-response","61","125586","0.0-6.0-6.7","524","","","","","clear_screen","null","null","","","catch","sw","l","sh","180","200","257","182","175","187","trueblood","null","null","null","null","null","null","null","null","null","null","null","","180","200","260","200","36000","52000","[2,3]","","",""
"","canvas-keyboard-response","62","125787","0.0-6.0-0.8","524","","","","","pre trial waiting period","null","null","","","critical","d","t","c","232.8713","160.6713","240","164","164","240","trueblood","0.05","w","240","164","164","240","232.8713","160.6713","39360","39360","37415.7294","dc","null","null","null","null","null","null","[1,3]","497.22753221075965","468.7455802673302","459.3079362421495"
"","canvas-keyboard-response","63","125807","0.0-6.0-1.8","524","","","","","clear_screen","null","null","","","critical","d","t","c","232.8713","160.6713","240","164","164","240","trueblood","0.05","w","240","164","164","240","232.8713","160.6713","39360","39360","37415.7294","dc","null","null","null","null","null","null","[1,3]","497.22753221075965","468.7455802673302","459.3079362421495"
"","canvas-keyboard-response","64","126313","0.0-6.0-2.8","524","","","","","rectangles no change","null","null","","","critical","d","t","c","232.8713","160.6713","240","164","164","240","trueblood","0.05","w","240","164","164","240","232.8713","160.6713","39360","39360","37415.7294","dc","null","null","null","null","null","null","[1,3]","497.22753221075965","468.7455802673302","459.3079362421495"
"","canvas-keyboard-response","65","127651","0.0-6.0-3.8","524","","","","","rectangles with change","null","null","","","critical","d","t","c","232.8713","160.6713","240","164","164","240","trueblood","0.05","w","240","164","164","240","232.8713","160.6713","39360","39360","37415.7294","dc","null","null","null","null","null","null","[1,3]","497.22753221075965","468.7455802673302","459.3079362421495"
"","canvas-keyboard-response","66","127671","0.0-6.0-4.8","524","","","","","clear_screen","null","null","","","critical","d","t","c","232.8713","160.6713","240","164","164","240","trueblood","0.05","w","240","164","164","240","232.8713","160.6713","39360","39360","37415.7294","dc","null","null","null","null","null","null","[1,3]","497.22753221075965","468.7455802673302","459.3079362421495"
"","canvas-keyboard-response","67","128198","0.0-6.0-5.8","524","","","","","make choice","518","3","","","critical","d","t","c","232.8713","160.6713","240","164","164","240","trueblood","0.05","w","240","164","164","240","232.8713","160.6713","39360","39360","37415.7294","dc","null","null","null","null","null","null","[1,3]","","",""
"","canvas-keyboard-response","68","128216","0.0-6.0-6.8","524","","","","","clear_screen","null","null","","","critical","d","t","c","232.8713","160.6713","240","164","164","240","trueblood","0.05","w","240","164","164","240","232.8713","160.6713","39360","39360","37415.7294","dc","null","null","null","null","null","null","[1,3]","","",""
"","canvas-keyboard-response","69","128417","0.0-6.0-0.9","524","","","","","pre trial waiting period","null","null","","","catch","sw","l","sh","180","200","228","201","227","163","trueblood","null","null","null","null","null","null","null","null","null","null","null","","180","200","260","200","36000","52000","[1,2]","466.13422644585773","446.648293057569","489.86709341315645"
"","canvas-keyboard-response","70","128435","0.0-6.0-1.9","524","","","","","clear_screen","null","null","","","catch","sw","l","sh","180","200","228","201","227","163","trueblood","null","null","null","null","null","null","null","null","null","null","null","","180","200","260","200","36000","52000","[1,2]","466.13422644585773","446.648293057569","489.86709341315645"
"","canvas-keyboard-response","71","128942","0.0-6.0-2.9","524","","","","","rectangles no change","null","null","","","catch","sw","l","sh","180","200","228","201","227","163","trueblood","null","null","null","null","null","null","null","null","null","null","null","","180","200","260","200","36000","52000","[1,2]","466.13422644585773","446.648293057569","489.86709341315645"
"","canvas-keyboard-response","72","130278","0.0-6.0-3.9","524","","","","","rectangles with change","null","null","","","catch","sw","l","sh","180","200","228","201","227","163","trueblood","null","null","null","null","null","null","null","null","null","null","null","","180","200","260","200","36000","52000","[1,2]","466.13422644585773","446.648293057569","489.86709341315645"
"","canvas-keyboard-response","73","130298","0.0-6.0-4.9","524","","","","","clear_screen","null","null","","","catch","sw","l","sh","180","200","228","201","227","163","trueblood","null","null","null","null","null","null","null","null","null","null","null","","180","200","260","200","36000","52000","[1,2]","466.13422644585773","446.648293057569","489.86709341315645"
"","canvas-keyboard-response","74","130549","0.0-6.0-5.9","524","","","","","make choice","246","2","","","catch","sw","l","sh","180","200","228","201","227","163","trueblood","null","null","null","null","null","null","null","null","null","null","null","","180","200","260","200","36000","52000","[1,2]","","",""
"","canvas-keyboard-response","75","130568","0.0-6.0-6.9","524","","","","","clear_screen","null","null","","","catch","sw","l","sh","180","200","228","201","227","163","trueblood","null","null","null","null","null","null","null","null","null","null","null","","180","200","260","200","36000","52000","[1,2]","","",""
"","canvas-keyboard-response","76","130769","0.0-6.0-0.10","524","","","","","pre trial waiting period","null","null","","","catch","sw","sh","l","180","200","200","194","175","295","spektor","null","null","null","null","null","null","null","null","null","null","null","","180","200","260","200","36000","52000","[1,3]","520.7397073142712","153.5681772061569","446.03710644735656"
"","canvas-keyboard-response","77","130788","0.0-6.0-1.10","524","","","","","clear_screen","null","null","","","catch","sw","sh","l","180","200","200","194","175","295","spektor","null","null","null","null","null","null","null","null","null","null","null","","180","200","260","200","36000","52000","[1,3]","520.7397073142712","153.5681772061569","446.03710644735656"
"","canvas-keyboard-response","78","131297","0.0-6.0-2.10","524","","","","","rectangles no change","null","null","","","catch","sw","sh","l","180","200","200","194","175","295","spektor","null","null","null","null","null","null","null","null","null","null","null","","180","200","260","200","36000","52000","[1,3]","520.7397073142712","153.5681772061569","446.03710644735656"
"","canvas-keyboard-response","79","132633","0.0-6.0-3.10","524","","","","","rectangles with change","null","null","","","catch","sw","sh","l","180","200","200","194","175","295","spektor","null","null","null","null","null","null","null","null","null","null","null","","180","200","260","200","36000","52000","[1,3]","520.7397073142712","153.5681772061569","446.03710644735656"
"","canvas-keyboard-response","80","132654","0.0-6.0-4.10","524","","","","","clear_screen","null","null","","","catch","sw","sh","l","180","200","200","194","175","295","spektor","null","null","null","null","null","null","null","null","null","null","null","","180","200","260","200","36000","52000","[1,3]","520.7397073142712","153.5681772061569","446.03710644735656"
"","canvas-keyboard-response","81","133030","0.0-6.0-5.10","524","","","","","make choice","369","3","","","catch","sw","sh","l","180","200","200","194","175","295","spektor","null","null","null","null","null","null","null","null","null","null","null","","180","200","260","200","36000","52000","[1,3]","","",""
"","canvas-keyboard-response","82","133049","0.0-6.0-6.10","524","","","","","clear_screen","null","null","","","catch","sw","sh","l","180","200","200","194","175","295","spektor","null","null","null","null","null","null","null","null","null","null","null","","180","200","260","200","36000","52000","[1,3]","","",""
"","canvas-keyboard-response","83","133251","0.0-6.0-0.11","524","","","","","pre trial waiting period","null","null","","","catch","sw","l","sh","180","200","273","201","205","187","trueblood","null","null","null","null","null","null","null","null","null","null","null","","180","200","260","200","36000","52000","[1,2]","483.69653798708106","453.06545676325146","457.99110645565037"
"","canvas-keyboard-response","84","133270","0.0-6.0-1.11","524","","","","","clear_screen","null","null","","","catch","sw","l","sh","180","200","273","201","205","187","trueblood","null","null","null","null","null","null","null","null","null","null","null","","180","200","260","200","36000","52000","[1,2]","483.69653798708106","453.06545676325146","457.99110645565037"
"","canvas-keyboard-response","85","133778","0.0-6.0-2.11","524","","","","","rectangles no change","null","null","","","catch","sw","l","sh","180","200","273","201","205","187","trueblood","null","null","null","null","null","null","null","null","null","null","null","","180","200","260","200","36000","52000","[1,2]","483.69653798708106","453.06545676325146","457.99110645565037"
"","canvas-keyboard-response","86","135117","0.0-6.0-3.11","524","","","","","rectangles with change","null","null","","","catch","sw","l","sh","180","200","273","201","205","187","trueblood","null","null","null","null","null","null","null","null","null","null","null","","180","200","260","200","36000","52000","[1,2]","483.69653798708106","453.06545676325146","457.99110645565037"
"","canvas-keyboard-response","87","135136","0.0-6.0-4.11","524","","","","","clear_screen","null","null","","","catch","sw","l","sh","180","200","273","201","205","187","trueblood","null","null","null","null","null","null","null","null","null","null","null","","180","200","260","200","36000","52000","[1,2]","483.69653798708106","453.06545676325146","457.99110645565037"
"","canvas-keyboard-response","88","135438","0.0-6.0-5.11","524","","","","","make choice","295","2","","","catch","sw","l","sh","180","200","273","201","205","187","trueblood","null","null","null","null","null","null","null","null","null","null","null","","180","200","260","200","36000","52000","[1,2]","","",""
"","canvas-keyboard-response","89","135457","0.0-6.0-6.11","524","","","","","clear_screen","null","null","","","catch","sw","l","sh","180","200","273","201","205","187","trueblood","null","null","null","null","null","null","null","null","null","null","null","","180","200","260","200","36000","52000","[1,2]","","",""
"","canvas-keyboard-response","90","135659","0.0-6.0-0.12","524","","","","","pre trial waiting period","null","null","","","critical","c","t","d","164","240","240","164","220.0396","154.6796","spektor","0.14","w","240","164","164","240","220.0396","154.6796","39360","39360","34035.6388","tc","null","null","null","null","null","null","[2,1]","468.72656710649466","215.67811892173788","527.649590147238"
"","canvas-keyboard-response","91","135681","0.0-6.0-1.12","524","","","","","clear_screen","null","null","","","critical","c","t","d","164","240","240","164","220.0396","154.6796","spektor","0.14","w","240","164","164","240","220.0396","154.6796","39360","39360","34035.6388","tc","null","null","null","null","null","null","[2,1]","468.72656710649466","215.67811892173788","527.649590147238"
"","canvas-keyboard-response","92","136193","0.0-6.0-2.12","524","","","","","rectangles no change","null","null","","","critical","c","t","d","164","240","240","164","220.0396","154.6796","spektor","0.14","w","240","164","164","240","220.0396","154.6796","39360","39360","34035.6388","tc","null","null","null","null","null","null","[2,1]","468.72656710649466","215.67811892173788","527.649590147238"
"","canvas-keyboard-response","93","137533","0.0-6.0-3.12","524","","","","","rectangles with change","null","null","","","critical","c","t","d","164","240","240","164","220.0396","154.6796","spektor","0.14","w","240","164","164","240","220.0396","154.6796","39360","39360","34035.6388","tc","null","null","null","null","null","null","[2,1]","468.72656710649466","215.67811892173788","527.649590147238"
"","canvas-keyboard-response","94","137552","0.0-6.0-4.12","524","","","","","clear_screen","null","null","","","critical","c","t","d","164","240","240","164","220.0396","154.6796","spektor","0.14","w","240","164","164","240","220.0396","154.6796","39360","39360","34035.6388","tc","null","null","null","null","null","null","[2,1]","468.72656710649466","215.67811892173788","527.649590147238"
"","canvas-keyboard-response","95","137886","0.0-6.0-5.12","524","","","","","make choice","327","1","","","critical","c","t","d","164","240","240","164","220.0396","154.6796","spektor","0.14","w","240","164","164","240","220.0396","154.6796","39360","39360","34035.6388","tc","null","null","null","null","null","null","[2,1]","","",""
"","canvas-keyboard-response","96","137903","0.0-6.0-6.12","524","","","","","clear_screen","null","null","","","critical","c","t","d","164","240","240","164","220.0396","154.6796","spektor","0.14","w","240","164","164","240","220.0396","154.6796","39360","39360","34035.6388","tc","null","null","null","null","null","null","[2,1]","","",""
"","canvas-keyboard-response","97","138105","0.0-6.0-0.13","524","","","","","pre trial waiting period","null","null","","","critical","c","t","d","240","164","164","240","154.6796","220.0396","spektor","0.14","h","164","240","240","164","154.6796","220.0396","39360","39360","34035.6388","td","null","null","null","null","null","null","[2,3]","537.511582567559","139.28554055802243","474.10813501720065"
"","canvas-keyboard-response","98","138127","0.0-6.0-1.13","524","","","","","clear_screen","null","null","","","critical","c","t","d","240","164","164","240","154.6796","220.0396","spektor","0.14","h","164","240","240","164","154.6796","220.0396","39360","39360","34035.6388","td","null","null","null","null","null","null","[2,3]","537.511582567559","139.28554055802243","474.10813501720065"
"","canvas-keyboard-response","99","138631","0.0-6.0-2.13","524","","","","","rectangles no change","null","null","","","critical","c","t","d","240","164","164","240","154.6796","220.0396","spektor","0.14","h","164","240","240","164","154.6796","220.0396","39360","39360","34035.6388","td","null","null","null","null","null","null","[2,3]","537.511582567559","139.28554055802243","474.10813501720065"
"","canvas-keyboard-response","100","139970","0.0-6.0-3.13","524","","","","","rectangles with change","null","null","","","critical","c","t","d","240","164","164","240","154.6796","220.0396","spektor","0.14","h","164","240","240","164","154.6796","220.0396","39360","39360","34035.6388","td","null","null","null","null","null","null","[2,3]","537.511582567559","139.28554055802243","474.10813501720065"
"","canvas-keyboard-response","101","139991","0.0-6.0-4.13","524","","","","","clear_screen","null","null","","","critical","c","t","d","240","164","164","240","154.6796","220.0396","spektor","0.14","h","164","240","240","164","154.6796","220.0396","39360","39360","34035.6388","td","null","null","null","null","null","null","[2,3]","537.511582567559","139.28554055802243","474.10813501720065"
"","canvas-keyboard-response","102","141109","0.0-6.0-5.13","524","","","","","make choice","1113","2","","","critical","c","t","d","240","164","164","240","154.6796","220.0396","spektor","0.14","h","164","240","240","164","154.6796","220.0396","39360","39360","34035.6388","td","null","null","null","null","null","null","[2,3]","","",""
"","canvas-keyboard-response","103","141128","0.0-6.0-6.13","524","","","","","clear_screen","null","null","","","critical","c","t","d","240","164","164","240","154.6796","220.0396","spektor","0.14","h","164","240","240","164","154.6796","220.0396","39360","39360","34035.6388","td","null","null","null","null","null","null","[2,3]","","",""
"","canvas-keyboard-response","104","141329","0.0-6.0-0.14","524","","","","","pre trial waiting period","null","null","","","critical","t","d","c","240","164","240","164","164","240","spektor","0","w","240","164","164","240","240","164","39360","39360","39360","dc","null","null","null","null","null","null","[2,3]","519.6328253249172","184.10328901442085","500.1212856345659"
"","canvas-keyboard-response","105","141348","0.0-6.0-1.14","524","","","","","clear_screen","null","null","","","critical","t","d","c","240","164","240","164","164","240","spektor","0","w","240","164","164","240","240","164","39360","39360","39360","dc","null","null","null","null","null","null","[2,3]","519.6328253249172","184.10328901442085","500.1212856345659"
"","canvas-keyboard-response","106","141856","0.0-6.0-2.14","524","","","","","rectangles no change","null","null","","","critical","t","d","c","240","164","240","164","164","240","spektor","0","w","240","164","164","240","240","164","39360","39360","39360","dc","null","null","null","null","null","null","[2,3]","519.6328253249172","184.10328901442085","500.1212856345659"
"","canvas-keyboard-response","107","143194","0.0-6.0-3.14","524","","","","","rectangles with change","null","null","","","critical","t","d","c","240","164","240","164","164","240","spektor","0","w","240","164","164","240","240","164","39360","39360","39360","dc","null","null","null","null","null","null","[2,3]","519.6328253249172","184.10328901442085","500.1212856345659"
"","canvas-keyboard-response","108","143211","0.0-6.0-4.14","524","","","","","clear_screen","null","null","","","critical","t","d","c","240","164","240","164","164","240","spektor","0","w","240","164","164","240","240","164","39360","39360","39360","dc","null","null","null","null","null","null","[2,3]","519.6328253249172","184.10328901442085","500.1212856345659"
"","canvas-keyboard-response","109","143766","0.0-6.0-5.14","524","","","","","make choice","549","2","","","critical","t","d","c","240","164","240","164","164","240","spektor","0","w","240","164","164","240","240","164","39360","39360","39360","dc","null","null","null","null","null","null","[2,3]","","",""
"","canvas-keyboard-response","110","143785","0.0-6.0-6.14","524","","","","","clear_screen","null","null","","","critical","t","d","c","240","164","240","164","164","240","spektor","0","w","240","164","164","240","240","164","39360","39360","39360","dc","null","null","null","null","null","null","[2,3]","","",""
"","canvas-keyboard-response","111","143987","0.0-6.0-0.15","524","","","","","pre trial waiting period","null","null","","","catch","l","sw","sh","264","172","185","198","207","188","spektor","null","null","null","null","null","null","null","null","null","null","null","","180","200","260","200","36000","52000","[1,2]","513.7207065176015","153.91221267258473","485.6186079752076"
"","canvas-keyboard-response","112","144005","0.0-6.0-1.15","524","","","","","clear_screen","null","null","","","catch","l","sw","sh","264","172","185","198","207","188","spektor","null","null","null","null","null","null","null","null","null","null","null","","180","200","260","200","36000","52000","[1,2]","513.7207065176015","153.91221267258473","485.6186079752076"
"","canvas-keyboard-response","113","144513","0.0-6.0-2.15","524","","","","","rectangles no change","null","null","","","catch","l","sw","sh","264","172","185","198","207","188","spektor","null","null","null","null","null","null","null","null","null","null","null","","180","200","260","200","36000","52000","[1,2]","513.7207065176015","153.91221267258473","485.6186079752076"
"","canvas-keyboard-response","114","145848","0.0-6.0-3.15","524","","","","","rectangles with change","null","null","","","catch","l","sw","sh","264","172","185","198","207","188","spektor","null","null","null","null","null","null","null","null","null","null","null","","180","200","260","200","36000","52000","[1,2]","513.7207065176015","153.91221267258473","485.6186079752076"
"","canvas-keyboard-response","115","145871","0.0-6.0-4.15","524","","","","","clear_screen","null","null","","","catch","l","sw","sh","264","172","185","198","207","188","spektor","null","null","null","null","null","null","null","null","null","null","null","","180","200","260","200","36000","52000","[1,2]","513.7207065176015","153.91221267258473","485.6186079752076"
"","canvas-keyboard-response","116","146141","0.0-6.0-5.15","524","","","","","make choice","262","1","","","catch","l","sw","sh","264","172","185","198","207","188","spektor","null","null","null","null","null","null","null","null","null","null","null","","180","200","260","200","36000","52000","[1,2]","","",""
"","canvas-keyboard-response","117","146162","0.0-6.0-6.15","524","","","","","clear_screen","null","null","","","catch","l","sw","sh","264","172","185","198","207","188","spektor","null","null","null","null","null","null","null","null","null","null","null","","180","200","260","200","36000","52000","[1,2]","","",""
"","canvas-keyboard-response","118","146363","0.0-6.0-0.16","524","","","","","pre trial waiting period","null","null","","","catch","l","sw","sh","185","258","178","233","175","167","spektor","null","null","null","null","null","null","null","null","null","null","null","","180","200","260","200","36000","52000","[1,3]","458.83942918071585","115.05461498107104","520.0272276199937"
"","canvas-keyboard-response","119","146382","0.0-6.0-1.16","524","","","","","clear_screen","null","null","","","catch","l","sw","sh","185","258","178","233","175","167","spektor","null","null","null","null","null","null","null","null","null","null","null","","180","200","260","200","36000","52000","[1,3]","458.83942918071585","115.05461498107104","520.0272276199937"
"","canvas-keyboard-response","120","146891","0.0-6.0-2.16","524","","","","","rectangles no change","null","null","","","catch","l","sw","sh","185","258","178","233","175","167","spektor","null","null","null","null","null","null","null","null","null","null","null","","180","200","260","200","36000","52000","[1,3]","458.83942918071585","115.05461498107104","520.0272276199937"
"","canvas-keyboard-response","121","148227","0.0-6.0-3.16","524","","","","","rectangles with change","null","null","","","catch","l","sw","sh","185","258","178","233","175","167","spektor","null","null","null","null","null","null","null","null","null","null","null","","180","200","260","200","36000","52000","[1,3]","458.83942918071585","115.05461498107104","520.0272276199937"
"","canvas-keyboard-response","122","148249","0.0-6.0-4.16","524","","","","","clear_screen","null","null","","","catch","l","sw","sh","185","258","178","233","175","167","spektor","null","null","null","null","null","null","null","null","null","null","null","","180","200","260","200","36000","52000","[1,3]","458.83942918071585","115.05461498107104","520.0272276199937"
"","canvas-keyboard-response","123","148510","0.0-6.0-5.16","524","","","","","make choice","254","1","","","catch","l","sw","sh","185","258","178","233","175","167","spektor","null","null","null","null","null","null","null","null","null","null","null","","180","200","260","200","36000","52000","[1,3]","","",""
"","canvas-keyboard-response","124","148529","0.0-6.0-6.16","524","","","","","clear_screen","null","null","","","catch","l","sw","sh","185","258","178","233","175","167","spektor","null","null","null","null","null","null","null","null","null","null","null","","180","200","260","200","36000","52000","[1,3]","","",""
"","canvas-keyboard-response","125","148730","0.0-6.0-0.17","524","","","","","pre trial waiting period","null","null","","","critical","c","d","t","240","164","158.0083","227.1683","164","240","trueblood","0.09","h","164","240","240","164","158.0083","227.1683","39360","39360","35894.4834","td","null","null","null","null","null","null","[3,2]","502.92314502871","447.6231452488063","440.41133098283314"
"","canvas-keyboard-response","126","148753","0.0-6.0-1.17","524","","","","","clear_screen","null","null","","","critical","c","d","t","240","164","158.0083","227.1683","164","240","trueblood","0.09","h","164","240","240","164","158.0083","227.1683","39360","39360","35894.4834","td","null","null","null","null","null","null","[3,2]","502.92314502871","447.6231452488063","440.41133098283314"
"","canvas-keyboard-response","127","149261","0.0-6.0-2.17","524","","","","","rectangles no change","null","null","","","critical","c","d","t","240","164","158.0083","227.1683","164","240","trueblood","0.09","h","164","240","240","164","158.0083","227.1683","39360","39360","35894.4834","td","null","null","null","null","null","null","[3,2]","502.92314502871","447.6231452488063","440.41133098283314"
"","canvas-keyboard-response","128","150597","0.0-6.0-3.17","524","","","","","rectangles with change","null","null","","","critical","c","d","t","240","164","158.0083","227.1683","164","240","trueblood","0.09","h","164","240","240","164","158.0083","227.1683","39360","39360","35894.4834","td","null","null","null","null","null","null","[3,2]","502.92314502871","447.6231452488063","440.41133098283314"
"","canvas-keyboard-response","129","150615","0.0-6.0-4.17","524","","","","","clear_screen","null","null","","","critical","c","d","t","240","164","158.0083","227.1683","164","240","trueblood","0.09","h","164","240","240","164","158.0083","227.1683","39360","39360","35894.4834","td","null","null","null","null","null","null","[3,2]","502.92314502871","447.6231452488063","440.41133098283314"
"","canvas-keyboard-response","130","150957","0.0-6.0-5.17","524","","","","","make choice","336","3","","","critical","c","d","t","240","164","158.0083","227.1683","164","240","trueblood","0.09","h","164","240","240","164","158.0083","227.1683","39360","39360","35894.4834","td","null","null","null","null","null","null","[3,2]","","",""
"","canvas-keyboard-response","131","150978","0.0-6.0-6.17","524","","","","","clear_screen","null","null","","","critical","c","d","t","240","164","158.0083","227.1683","164","240","trueblood","0.09","h","164","240","240","164","158.0083","227.1683","39360","39360","35894.4834","td","null","null","null","null","null","null","[3,2]","","",""
"","canvas-keyboard-response","132","151179","0.0-6.0-0.18","524","","","","","pre trial waiting period","null","null","","","critical","c","t","d","240","164","164","240","164","240","spektor","0","h","164","240","240","164","164","240","39360","39360","39360","tc","null","null","null","null","null","null","[2,1]","527.2056181988704","118.01587616679019","480.66151974453163"
"","canvas-keyboard-response","133","151202","0.0-6.0-1.18","524","","","","","clear_screen","null","null","","","critical","c","t","d","240","164","164","240","164","240","spektor","0","h","164","240","240","164","164","240","39360","39360","39360","tc","null","null","null","null","null","null","[2,1]","527.2056181988704","118.01587616679019","480.66151974453163"
"","canvas-keyboard-response","134","151709","0.0-6.0-2.18","524","","","","","rectangles no change","null","null","","","critical","c","t","d","240","164","164","240","164","240","spektor","0","h","164","240","240","164","164","240","39360","39360","39360","tc","null","null","null","null","null","null","[2,1]","527.2056181988704","118.01587616679019","480.66151974453163"
"","canvas-keyboard-response","135","153049","0.0-6.0-3.18","524","","","","","rectangles with change","null","null","","","critical","c","t","d","240","164","164","240","164","240","spektor","0","h","164","240","240","164","164","240","39360","39360","39360","tc","null","null","null","null","null","null","[2,1]","527.2056181988704","118.01587616679019","480.66151974453163"
"","canvas-keyboard-response","136","153070","0.0-6.0-4.18","524","","","","","clear_screen","null","null","","","critical","c","t","d","240","164","164","240","164","240","spektor","0","h","164","240","240","164","164","240","39360","39360","39360","tc","null","null","null","null","null","null","[2,1]","527.2056181988704","118.01587616679019","480.66151974453163"
"","canvas-keyboard-response","137","153413","0.0-6.0-5.18","524","","","","","make choice","338","1","","","critical","c","t","d","240","164","164","240","164","240","spektor","0","h","164","240","240","164","164","240","39360","39360","39360","tc","null","null","null","null","null","null","[2,1]","","",""
"","canvas-keyboard-response","138","153433","0.0-6.0-6.18","524","","","","","clear_screen","null","null","","","critical","c","t","d","240","164","164","240","164","240","spektor","0","h","164","240","240","164","164","240","39360","39360","39360","tc","null","null","null","null","null","null","[2,1]","","",""
"","canvas-keyboard-response","139","153635","0.0-6.0-0.19","524","","","","","pre trial waiting period","null","null","","","critical","c","t","d","164","240","240","164","232.8713","160.6713","trueblood","0.05","w","240","164","164","240","232.8713","160.6713","39360","39360","37415.7294","tc","null","null","null","null","null","null","[2,1]","434.85153593642775","516.8252930310783","507.93939468801136"
"","canvas-keyboard-response","140","153658","0.0-6.0-1.19","524","","","","","clear_screen","null","null","","","critical","c","t","d","164","240","240","164","232.8713","160.6713","trueblood","0.05","w","240","164","164","240","232.8713","160.6713","39360","39360","37415.7294","tc","null","null","null","null","null","null","[2,1]","434.85153593642775","516.8252930310783","507.93939468801136"
"","canvas-keyboard-response","141","154167","0.0-6.0-2.19","524","","","","","rectangles no change","null","null","","","critical","c","t","d","164","240","240","164","232.8713","160.6713","trueblood","0.05","w","240","164","164","240","232.8713","160.6713","39360","39360","37415.7294","tc","null","null","null","null","null","null","[2,1]","434.85153593642775","516.8252930310783","507.93939468801136"
"","canvas-keyboard-response","142","155502","0.0-6.0-3.19","524","","","","","rectangles with change","null","null","","","critical","c","t","d","164","240","240","164","232.8713","160.6713","trueblood","0.05","w","240","164","164","240","232.8713","160.6713","39360","39360","37415.7294","tc","null","null","null","null","null","null","[2,1]","434.85153593642775","516.8252930310783","507.93939468801136"
"","canvas-keyboard-response","143","155522","0.0-6.0-4.19","524","","","","","clear_screen","null","null","","","critical","c","t","d","164","240","240","164","232.8713","160.6713","trueblood","0.05","w","240","164","164","240","232.8713","160.6713","39360","39360","37415.7294","tc","null","null","null","null","null","null","[2,1]","434.85153593642775","516.8252930310783","507.93939468801136"
"","canvas-keyboard-response","144","155814","0.0-6.0-5.19","524","","","","","make choice","286","2","","","critical","c","t","d","164","240","240","164","232.8713","160.6713","trueblood","0.05","w","240","164","164","240","232.8713","160.6713","39360","39360","37415.7294","tc","null","null","null","null","null","null","[2,1]","","",""
"","canvas-keyboard-response","145","155834","0.0-6.0-6.19","524","","","","","clear_screen","null","null","","","critical","c","t","d","164","240","240","164","232.8713","160.6713","trueblood","0.05","w","240","164","164","240","232.8713","160.6713","39360","39360","37415.7294","tc","null","null","null","null","null","null","[2,1]","","",""
"","canvas-keyboard-response","146","156034","0.0-6.0-0.20","524","","","","","pre trial waiting period","null","null","","","critical","t","c","d","164","240","240","164","160.6713","232.8713","trueblood","0.05","h","164","240","240","164","160.6713","232.8713","39360","39360","37415.7294","dc","null","null","null","null","null","null","[3,2]","422.43860956050474","471.0872958620656","470.2539349775044"
"","canvas-keyboard-response","147","156053","0.0-6.0-1.20","524","","","","","clear_screen","null","null","","","critical","t","c","d","164","240","240","164","160.6713","232.8713","trueblood","0.05","h","164","240","240","164","160.6713","232.8713","39360","39360","37415.7294","dc","null","null","null","null","null","null","[3,2]","422.43860956050474","471.0872958620656","470.2539349775044"
"","canvas-keyboard-response","148","156561","0.0-6.0-2.20","524","","","","","rectangles no change","null","null","","","critical","t","c","d","164","240","240","164","160.6713","232.8713","trueblood","0.05","h","164","240","240","164","160.6713","232.8713","39360","39360","37415.7294","dc","null","null","null","null","null","null","[3,2]","422.43860956050474","471.0872958620656","470.2539349775044"
"","canvas-keyboard-response","149","157895","0.0-6.0-3.20","524","","","","","rectangles with change","null","null","","","critical","t","c","d","164","240","240","164","160.6713","232.8713","trueblood","0.05","h","164","240","240","164","160.6713","232.8713","39360","39360","37415.7294","dc","null","null","null","null","null","null","[3,2]","422.43860956050474","471.0872958620656","470.2539349775044"
"","canvas-keyboard-response","150","157915","0.0-6.0-4.20","524","","","","","clear_screen","null","null","","","critical","t","c","d","164","240","240","164","160.6713","232.8713","trueblood","0.05","h","164","240","240","164","160.6713","232.8713","39360","39360","37415.7294","dc","null","null","null","null","null","null","[3,2]","422.43860956050474","471.0872958620656","470.2539349775044"
"","canvas-keyboard-response","151","158462","0.0-6.0-5.20","524","","","","","make choice","542","2","","","critical","t","c","d","164","240","240","164","160.6713","232.8713","trueblood","0.05","h","164","240","240","164","160.6713","232.8713","39360","39360","37415.7294","dc","null","null","null","null","null","null","[3,2]","","",""
"","canvas-keyboard-response","152","158479","0.0-6.0-6.20","524","","","","","clear_screen","null","null","","","critical","t","c","d","164","240","240","164","160.6713","232.8713","trueblood","0.05","h","164","240","240","164","160.6713","232.8713","39360","39360","37415.7294","dc","null","null","null","null","null","null","[3,2]","","",""
"","canvas-keyboard-response","153","158680","0.0-6.0-0.21","524","","","","","pre trial waiting period","null","null","","","critical","c","d","t","164","240","240","164","240","164","trueblood","0","w","240","164","164","240","240","164","39360","39360","39360","dc","null","null","null","null","null","null","[2,1]","432.8532974223719","473.91716573686847","494.7041181935541"
"","canvas-keyboard-response","154","158699","0.0-6.0-1.21","524","","","","","clear_screen","null","null","","","critical","c","d","t","164","240","240","164","240","164","trueblood","0","w","240","164","164","240","240","164","39360","39360","39360","dc","null","null","null","null","null","null","[2,1]","432.8532974223719","473.91716573686847","494.7041181935541"
"","canvas-keyboard-response","155","159206","0.0-6.0-2.21","524","","","","","rectangles no change","null","null","","","critical","c","d","t","164","240","240","164","240","164","trueblood","0","w","240","164","164","240","240","164","39360","39360","39360","dc","null","null","null","null","null","null","[2,1]","432.8532974223719","473.91716573686847","494.7041181935541"
"","canvas-keyboard-response","156","160542","0.0-6.0-3.21","524","","","","","rectangles with change","null","null","","","critical","c","d","t","164","240","240","164","240","164","trueblood","0","w","240","164","164","240","240","164","39360","39360","39360","dc","null","null","null","null","null","null","[2,1]","432.8532974223719","473.91716573686847","494.7041181935541"
"","canvas-keyboard-response","157","160564","0.0-6.0-4.21","524","","","","","clear_screen","null","null","","","critical","c","d","t","164","240","240","164","240","164","trueblood","0","w","240","164","164","240","240","164","39360","39360","39360","dc","null","null","null","null","null","null","[2,1]","432.8532974223719","473.91716573686847","494.7041181935541"
"","canvas-keyboard-response","158","160918","0.0-6.0-5.21","524","","","","","make choice","349","2","","","critical","c","d","t","164","240","240","164","240","164","trueblood","0","w","240","164","164","240","240","164","39360","39360","39360","dc","null","null","null","null","null","null","[2,1]","","",""
"","canvas-keyboard-response","159","160937","0.0-6.0-6.21","524","","","","","clear_screen","null","null","","","critical","c","d","t","164","240","240","164","240","164","trueblood","0","w","240","164","164","240","240","164","39360","39360","39360","dc","null","null","null","null","null","null","[2,1]","","",""
"","canvas-keyboard-response","160","161138","0.0-6.0-0.22","524","","","","","pre trial waiting period","null","null","","","critical","c","d","t","240","164","162.6685","237.1485","164","240","spektor","0.02","h","164","240","240","164","162.6685","237.1485","39360","39360","38576.5967","td","null","null","null","null","null","null","[3,2]","496.9322642944359","126.02106260501363","458.3937221076457"
"","canvas-keyboard-response","161","161161","0.0-6.0-1.22","524","","","","","clear_screen","null","null","","","critical","c","d","t","240","164","162.6685","237.1485","164","240","spektor","0.02","h","164","240","240","164","162.6685","237.1485","39360","39360","38576.5967","td","null","null","null","null","null","null","[3,2]","496.9322642944359","126.02106260501363","458.3937221076457"
"","canvas-keyboard-response","162","161668","0.0-6.0-2.22","524","","","","","rectangles no change","null","null","","","critical","c","d","t","240","164","162.6685","237.1485","164","240","spektor","0.02","h","164","240","240","164","162.6685","237.1485","39360","39360","38576.5967","td","null","null","null","null","null","null","[3,2]","496.9322642944359","126.02106260501363","458.3937221076457"
"","canvas-keyboard-response","163","163003","0.0-6.0-3.22","524","","","","","rectangles with change","null","null","","","critical","c","d","t","240","164","162.6685","237.1485","164","240","spektor","0.02","h","164","240","240","164","162.6685","237.1485","39360","39360","38576.5967","td","null","null","null","null","null","null","[3,2]","496.9322642944359","126.02106260501363","458.3937221076457"
"","canvas-keyboard-response","164","163026","0.0-6.0-4.22","524","","","","","clear_screen","null","null","","","critical","c","d","t","240","164","162.6685","237.1485","164","240","spektor","0.02","h","164","240","240","164","162.6685","237.1485","39360","39360","38576.5967","td","null","null","null","null","null","null","[3,2]","496.9322642944359","126.02106260501363","458.3937221076457"
"","canvas-keyboard-response","165","163381","0.0-6.0-5.22","524","","","","","make choice","347","3","","","critical","c","d","t","240","164","162.6685","237.1485","164","240","spektor","0.02","h","164","240","240","164","162.6685","237.1485","39360","39360","38576.5967","td","null","null","null","null","null","null","[3,2]","","",""
"","canvas-keyboard-response","166","163399","0.0-6.0-6.22","524","","","","","clear_screen","null","null","","","critical","c","d","t","240","164","162.6685","237.1485","164","240","spektor","0.02","h","164","240","240","164","162.6685","237.1485","39360","39360","38576.5967","td","null","null","null","null","null","null","[3,2]","","",""
"","canvas-keyboard-response","167","163600","0.0-6.0-0.23","524","","","","","pre trial waiting period","null","null","","","catch","l","sw","sh","172","262","176","211","189","159","trueblood","null","null","null","null","null","null","null","null","null","null","null","","180","200","260","200","36000","52000","[1,2]","446.7441313719808","469.00236602267574","506.11300206213366"
"","canvas-keyboard-response","168","163621","0.0-6.0-1.23","524","","","","","clear_screen","null","null","","","catch","l","sw","sh","172","262","176","211","189","159","trueblood","null","null","null","null","null","null","null","null","null","null","null","","180","200","260","200","36000","52000","[1,2]","446.7441313719808","469.00236602267574","506.11300206213366"
"","canvas-keyboard-response","169","164125","0.0-6.0-2.23","524","","","","","rectangles no change","null","null","","","catch","l","sw","sh","172","262","176","211","189","159","trueblood","null","null","null","null","null","null","null","null","null","null","null","","180","200","260","200","36000","52000","[1,2]","446.7441313719808","469.00236602267574","506.11300206213366"
"","canvas-keyboard-response","170","165465","0.0-6.0-3.23","524","","","","","rectangles with change","null","null","","","catch","l","sw","sh","172","262","176","211","189","159","trueblood","null","null","null","null","null","null","null","null","null","null","null","","180","200","260","200","36000","52000","[1,2]","446.7441313719808","469.00236602267574","506.11300206213366"
"","canvas-keyboard-response","171","165484","0.0-6.0-4.23","524","","","","","clear_screen","null","null","","","catch","l","sw","sh","172","262","176","211","189","159","trueblood","null","null","null","null","null","null","null","null","null","null","null","","180","200","260","200","36000","52000","[1,2]","446.7441313719808","469.00236602267574","506.11300206213366"
"","canvas-keyboard-response","172","165766","0.0-6.0-5.23","524","","","","","make choice","276","1","","","catch","l","sw","sh","172","262","176","211","189","159","trueblood","null","null","null","null","null","null","null","null","null","null","null","","180","200","260","200","36000","52000","[1,2]","","",""
"","canvas-keyboard-response","173","165785","0.0-6.0-6.23","524","","","","","clear_screen","null","null","","","catch","l","sw","sh","172","262","176","211","189","159","trueblood","null","null","null","null","null","null","null","null","null","null","null","","180","200","260","200","36000","52000","[1,2]","","",""
"","canvas-keyboard-response","174","165987","0.0-6.0-0.24","524","","","","","pre trial waiting period","null","null","","","catch","sh","sw","l","187","173","143","203","229","181","trueblood","null","null","null","null","null","null","null","null","null","null","null","","180","200","260","200","36000","52000","[2,3]","488.58463068845185","446.70090146763323","498.7903604699296"
"","canvas-keyboard-response","175","166010","0.0-6.0-1.24","524","","","","","clear_screen","null","null","","","catch","sh","sw","l","187","173","143","203","229","181","trueblood","null","null","null","null","null","null","null","null","null","null","null","","180","200","260","200","36000","52000","[2,3]","488.58463068845185","446.70090146763323","498.7903604699296"
"","canvas-keyboard-response","176","166517","0.0-6.0-2.24","524","","","","","rectangles no change","null","null","","","catch","sh","sw","l","187","173","143","203","229","181","trueblood","null","null","null","null","null","null","null","null","null","null","null","","180","200","260","200","36000","52000","[2,3]","488.58463068845185","446.70090146763323","498.7903604699296"
"","canvas-keyboard-response","177","167853","0.0-6.0-3.24","524","","","","","rectangles with change","null","null","","","catch","sh","sw","l","187","173","143","203","229","181","trueblood","null","null","null","null","null","null","null","null","null","null","null","","180","200","260","200","36000","52000","[2,3]","488.58463068845185","446.70090146763323","498.7903604699296"
"","canvas-keyboard-response","178","167869","0.0-6.0-4.24","524","","","","","clear_screen","null","null","","","catch","sh","sw","l","187","173","143","203","229","181","trueblood","null","null","null","null","null","null","null","null","null","null","null","","180","200","260","200","36000","52000","[2,3]","488.58463068845185","446.70090146763323","498.7903604699296"
"","canvas-keyboard-response","179","168214","0.0-6.0-5.24","524","","","","","make choice","337","3","","","catch","sh","sw","l","187","173","143","203","229","181","trueblood","null","null","null","null","null","null","null","null","null","null","null","","180","200","260","200","36000","52000","[2,3]","","",""
"","canvas-keyboard-response","180","168233","0.0-6.0-6.24","524","","","","","clear_screen","null","null","","","catch","sh","sw","l","187","173","143","203","229","181","trueblood","null","null","null","null","null","null","null","null","null","null","null","","180","200","260","200","36000","52000","[2,3]","","",""
"","canvas-keyboard-response","181","168434","0.0-6.0-0.25","524","","","","","pre trial waiting period","null","null","","","critical","d","c","t","164","240","240","164","164","240","trueblood","0","h","164","240","240","164","164","240","39360","39360","39360","td","null","null","null","null","null","null","[3,1]","422.8015410611958","480.3372272584342","448.3099256754552"
"","canvas-keyboard-response","182","168458","0.0-6.0-1.25","524","","","","","clear_screen","null","null","","","critical","d","c","t","164","240","240","164","164","240","trueblood","0","h","164","240","240","164","164","240","39360","39360","39360","td","null","null","null","null","null","null","[3,1]","422.8015410611958","480.3372272584342","448.3099256754552"
"","canvas-keyboard-response","183","168966","0.0-6.0-2.25","524","","","","","rectangles no change","null","null","","","critical","d","c","t","164","240","240","164","164","240","trueblood","0","h","164","240","240","164","164","240","39360","39360","39360","td","null","null","null","null","null","null","[3,1]","422.8015410611958","480.3372272584342","448.3099256754552"
"","canvas-keyboard-response","184","170305","0.0-6.0-3.25","524","","","","","rectangles with change","null","null","","","critical","d","c","t","164","240","240","164","164","240","trueblood","0","h","164","240","240","164","164","240","39360","39360","39360","td","null","null","null","null","null","null","[3,1]","422.8015410611958","480.3372272584342","448.3099256754552"
"","canvas-keyboard-response","185","170327","0.0-6.0-4.25","524","","","","","clear_screen","null","null","","","critical","d","c","t","164","240","240","164","164","240","trueblood","0","h","164","240","240","164","164","240","39360","39360","39360","td","null","null","null","null","null","null","[3,1]","422.8015410611958","480.3372272584342","448.3099256754552"
"","canvas-keyboard-response","186","170646","0.0-6.0-5.25","524","","","","","make choice","312","1","","","critical","d","c","t","164","240","240","164","164","240","trueblood","0","h","164","240","240","164","164","240","39360","39360","39360","td","null","null","null","null","null","null","[3,1]","","",""
"","canvas-keyboard-response","187","170663","0.0-6.0-6.25","524","","","","","clear_screen","null","null","","","critical","d","c","t","164","240","240","164","164","240","trueblood","0","h","164","240","240","164","164","240","39360","39360","39360","td","null","null","null","null","null","null","[3,1]","","",""
"","canvas-keyboard-response","188","170865","0.0-6.0-0.26","524","","","","","pre trial waiting period","null","null","","","critical","d","c","t","220.0396","154.6796","164","240","240","164","trueblood","0.14","w","240","164","164","240","220.0396","154.6796","39360","39360","34035.6388","tc","null","null","null","null","null","null","[3,2]","515.6943318830087","443.32542473053826","506.4181578038903"
"","canvas-keyboard-response","189","170889","0.0-6.0-1.26","524","","","","","clear_screen","null","null","","","critical","d","c","t","220.0396","154.6796","164","240","240","164","trueblood","0.14","w","240","164","164","240","220.0396","154.6796","39360","39360","34035.6388","tc","null","null","null","null","null","null","[3,2]","515.6943318830087","443.32542473053826","506.4181578038903"
"","canvas-keyboard-response","190","171397","0.0-6.0-2.26","524","","","","","rectangles no change","null","null","","","critical","d","c","t","220.0396","154.6796","164","240","240","164","trueblood","0.14","w","240","164","164","240","220.0396","154.6796","39360","39360","34035.6388","tc","null","null","null","null","null","null","[3,2]","515.6943318830087","443.32542473053826","506.4181578038903"
"","canvas-keyboard-response","191","172734","0.0-6.0-3.26","524","","","","","rectangles with change","null","null","","","critical","d","c","t","220.0396","154.6796","164","240","240","164","trueblood","0.14","w","240","164","164","240","220.0396","154.6796","39360","39360","34035.6388","tc","null","null","null","null","null","null","[3,2]","515.6943318830087","443.32542473053826","506.4181578038903"
"","canvas-keyboard-response","192","172753","0.0-6.0-4.26","524","","","","","clear_screen","null","null","","","critical","d","c","t","220.0396","154.6796","164","240","240","164","trueblood","0.14","w","240","164","164","240","220.0396","154.6796","39360","39360","34035.6388","tc","null","null","null","null","null","null","[3,2]","515.6943318830087","443.32542473053826","506.4181578038903"
"","canvas-keyboard-response","193","173190","0.0-6.0-5.26","524","","","","","make choice","432","2","","","critical","d","c","t","220.0396","154.6796","164","240","240","164","trueblood","0.14","w","240","164","164","240","220.0396","154.6796","39360","39360","34035.6388","tc","null","null","null","null","null","null","[3,2]","","",""
"","canvas-keyboard-response","194","173210","0.0-6.0-6.26","524","","","","","clear_screen","null","null","","","critical","d","c","t","220.0396","154.6796","164","240","240","164","trueblood","0.14","w","240","164","164","240","220.0396","154.6796","39360","39360","34035.6388","tc","null","null","null","null","null","null","[3,2]","","",""
"","canvas-keyboard-response","195","173411","0.0-6.0-0.27","524","","","","","pre trial waiting period","null","null","","","critical","t","c","d","164","240","240","164","160.6713","232.8713","trueblood","0.05","h","164","240","240","164","160.6713","232.8713","39360","39360","37415.7294","td","null","null","null","null","null","null","[1,3]","419.71359757188566","514.216244863908","455.0825286540022"
"","canvas-keyboard-response","196","173432","0.0-6.0-1.27","524","","","","","clear_screen","null","null","","","critical","t","c","d","164","240","240","164","160.6713","232.8713","trueblood","0.05","h","164","240","240","164","160.6713","232.8713","39360","39360","37415.7294","td","null","null","null","null","null","null","[1,3]","419.71359757188566","514.216244863908","455.0825286540022"
"","canvas-keyboard-response","197","173939","0.0-6.0-2.27","524","","","","","rectangles no change","null","null","","","critical","t","c","d","164","240","240","164","160.6713","232.8713","trueblood","0.05","h","164","240","240","164","160.6713","232.8713","39360","39360","37415.7294","td","null","null","null","null","null","null","[1,3]","419.71359757188566","514.216244863908","455.0825286540022"
"","canvas-keyboard-response","198","175275","0.0-6.0-3.27","524","","","","","rectangles with change","null","null","","","critical","t","c","d","164","240","240","164","160.6713","232.8713","trueblood","0.05","h","164","240","240","164","160.6713","232.8713","39360","39360","37415.7294","td","null","null","null","null","null","null","[1,3]","419.71359757188566","514.216244863908","455.0825286540022"
"","canvas-keyboard-response","199","175297","0.0-6.0-4.27","524","","","","","clear_screen","null","null","","","critical","t","c","d","164","240","240","164","160.6713","232.8713","trueblood","0.05","h","164","240","240","164","160.6713","232.8713","39360","39360","37415.7294","td","null","null","null","null","null","null","[1,3]","419.71359757188566","514.216244863908","455.0825286540022"
"","canvas-keyboard-response","200","175630","0.0-6.0-5.27","524","","","","","make choice","327","1","","","critical","t","c","d","164","240","240","164","160.6713","232.8713","trueblood","0.05","h","164","240","240","164","160.6713","232.8713","39360","39360","37415.7294","td","null","null","null","null","null","null","[1,3]","","",""
"","canvas-keyboard-response","201","175650","0.0-6.0-6.27","524","","","","","clear_screen","null","null","","","critical","t","c","d","164","240","240","164","160.6713","232.8713","trueblood","0.05","h","164","240","240","164","160.6713","232.8713","39360","39360","37415.7294","td","null","null","null","null","null","null","[1,3]","","",""
"","canvas-keyboard-response","202","175851","0.0-6.0-0.28","524","","","","","pre trial waiting period","null","null","","","critical","c","d","t","164","240","227.1683","158.0083","240","164","spektor","0.09","w","240","164","164","240","227.1683","158.0083","39360","39360","35894.4834","tc","null","null","null","null","null","null","[3,1]","499.3128913731312","197.81823524862028","528.7001385128636"
"","canvas-keyboard-response","203","175875","0.0-6.0-1.28","524","","","","","clear_screen","null","null","","","critical","c","d","t","164","240","227.1683","158.0083","240","164","spektor","0.09","w","240","164","164","240","227.1683","158.0083","39360","39360","35894.4834","tc","null","null","null","null","null","null","[3,1]","499.3128913731312","197.81823524862028","528.7001385128636"
"","canvas-keyboard-response","204","176386","0.0-6.0-2.28","524","","","","","rectangles no change","null","null","","","critical","c","d","t","164","240","227.1683","158.0083","240","164","spektor","0.09","w","240","164","164","240","227.1683","158.0083","39360","39360","35894.4834","tc","null","null","null","null","null","null","[3,1]","499.3128913731312","197.81823524862028","528.7001385128636"
"","canvas-keyboard-response","205","177722","0.0-6.0-3.28","524","","","","","rectangles with change","null","null","","","critical","c","d","t","164","240","227.1683","158.0083","240","164","spektor","0.09","w","240","164","164","240","227.1683","158.0083","39360","39360","35894.4834","tc","null","null","null","null","null","null","[3,1]","499.3128913731312","197.81823524862028","528.7001385128636"
"","canvas-keyboard-response","206","177746","0.0-6.0-4.28","524","","","","","clear_screen","null","null","","","critical","c","d","t","164","240","227.1683","158.0083","240","164","spektor","0.09","w","240","164","164","240","227.1683","158.0083","39360","39360","35894.4834","tc","null","null","null","null","null","null","[3,1]","499.3128913731312","197.81823524862028","528.7001385128636"
"","canvas-keyboard-response","207","177959","0.0-6.0-5.28","524","","","","","make choice","207","3","","","critical","c","d","t","164","240","227.1683","158.0083","240","164","spektor","0.09","w","240","164","164","240","227.1683","158.0083","39360","39360","35894.4834","tc","null","null","null","null","null","null","[3,1]","","",""
"","canvas-keyboard-response","208","177977","0.0-6.0-6.28","524","","","","","clear_screen","null","null","","","critical","c","d","t","164","240","227.1683","158.0083","240","164","spektor","0.09","w","240","164","164","240","227.1683","158.0083","39360","39360","35894.4834","tc","null","null","null","null","null","null","[3,1]","","",""
"","canvas-keyboard-response","209","178179","0.0-6.0-0.29","524","","","","","pre trial waiting period","null","null","","","critical","c","d","t","240","164","162.6685","237.1485","164","240","trueblood","0.02","h","164","240","240","164","162.6685","237.1485","39360","39360","38576.5967","dc","null","null","null","null","null","null","[2,1]","481.1091099518612","458.85741106710793","424.63829966823346"
"","canvas-keyboard-response","210","178198","0.0-6.0-1.29","524","","","","","clear_screen","null","null","","","critical","c","d","t","240","164","162.6685","237.1485","164","240","trueblood","0.02","h","164","240","240","164","162.6685","237.1485","39360","39360","38576.5967","dc","null","null","null","null","null","null","[2,1]","481.1091099518612","458.85741106710793","424.63829966823346"
"","canvas-keyboard-response","211","178704","0.0-6.0-2.29","524","","","","","rectangles no change","null","null","","","critical","c","d","t","240","164","162.6685","237.1485","164","240","trueblood","0.02","h","164","240","240","164","162.6685","237.1485","39360","39360","38576.5967","dc","null","null","null","null","null","null","[2,1]","481.1091099518612","458.85741106710793","424.63829966823346"
"","canvas-keyboard-response","212","180040","0.0-6.0-3.29","524","","","","","rectangles with change","null","null","","","critical","c","d","t","240","164","162.6685","237.1485","164","240","trueblood","0.02","h","164","240","240","164","162.6685","237.1485","39360","39360","38576.5967","dc","null","null","null","null","null","null","[2,1]","481.1091099518612","458.85741106710793","424.63829966823346"
"","canvas-keyboard-response","213","180060","0.0-6.0-4.29","524","","","","","clear_screen","null","null","","","critical","c","d","t","240","164","162.6685","237.1485","164","240","trueblood","0.02","h","164","240","240","164","162.6685","237.1485","39360","39360","38576.5967","dc","null","null","null","null","null","null","[2,1]","481.1091099518612","458.85741106710793","424.63829966823346"
"","canvas-keyboard-response","214","181558","0.0-6.0-5.29","524","","","","","make choice","1493","2","","","critical","c","d","t","240","164","162.6685","237.1485","164","240","trueblood","0.02","h","164","240","240","164","162.6685","237.1485","39360","39360","38576.5967","dc","null","null","null","null","null","null","[2,1]","","",""
"","canvas-keyboard-response","215","181578","0.0-6.0-6.29","524","","","","","clear_screen","null","null","","","critical","c","d","t","240","164","162.6685","237.1485","164","240","trueblood","0.02","h","164","240","240","164","162.6685","237.1485","39360","39360","38576.5967","dc","null","null","null","null","null","null","[2,1]","","",""
"","canvas-keyboard-response","216","181778","0.0-6.0-0.30","524","","","","","pre trial waiting period","null","null","","","critical","c","d","t","240","164","154.6796","220.0396","164","240","spektor","0.14","h","164","240","240","164","154.6796","220.0396","39360","39360","34035.6388","dc","null","null","null","null","null","null","[2,1]","539.5909649606265","115.40511989974775","481.0718785329584"
"","canvas-keyboard-response","217","181802","0.0-6.0-1.30","524","","","","","clear_screen","null","null","","","critical","c","d","t","240","164","154.6796","220.0396","164","240","spektor","0.14","h","164","240","240","164","154.6796","220.0396","39360","39360","34035.6388","dc","null","null","null","null","null","null","[2,1]","539.5909649606265","115.40511989974775","481.0718785329584"
"","canvas-keyboard-response","218","182308","0.0-6.0-2.30","524","","","","","rectangles no change","null","null","","","critical","c","d","t","240","164","154.6796","220.0396","164","240","spektor","0.14","h","164","240","240","164","154.6796","220.0396","39360","39360","34035.6388","dc","null","null","null","null","null","null","[2,1]","539.5909649606265","115.40511989974775","481.0718785329584"
"","canvas-keyboard-response","219","183649","0.0-6.0-3.30","524","","","","","rectangles with change","null","null","","","critical","c","d","t","240","164","154.6796","220.0396","164","240","spektor","0.14","h","164","240","240","164","154.6796","220.0396","39360","39360","34035.6388","dc","null","null","null","null","null","null","[2,1]","539.5909649606265","115.40511989974775","481.0718785329584"
"","canvas-keyboard-response","220","183669","0.0-6.0-4.30","524","","","","","clear_screen","null","null","","","critical","c","d","t","240","164","154.6796","220.0396","164","240","spektor","0.14","h","164","240","240","164","154.6796","220.0396","39360","39360","34035.6388","dc","null","null","null","null","null","null","[2,1]","539.5909649606265","115.40511989974775","481.0718785329584"
"","canvas-keyboard-response","221","183910","0.0-6.0-5.30","524","","","","","make choice","234","1","","","critical","c","d","t","240","164","154.6796","220.0396","164","240","spektor","0.14","h","164","240","240","164","154.6796","220.0396","39360","39360","34035.6388","dc","null","null","null","null","null","null","[2,1]","","",""
"","canvas-keyboard-response","222","183930","0.0-6.0-6.30","524","","","","","clear_screen","null","null","","","critical","c","d","t","240","164","154.6796","220.0396","164","240","spektor","0.14","h","164","240","240","164","154.6796","220.0396","39360","39360","34035.6388","dc","null","null","null","null","null","null","[2,1]","","",""
"","canvas-keyboard-response","223","184131","0.0-6.0-0.31","524","","","","","pre trial waiting period","null","null","","","catch","sw","sh","l","180","200","201","162","216","248","spektor","null","null","null","null","null","null","null","null","null","null","null","","180","200","260","200","36000","52000","[2,3]","501.698426497246","162.83658599462146","489.39137584823925"
"","canvas-keyboard-response","224","184154","0.0-6.0-1.31","524","","","","","clear_screen","null","null","","","catch","sw","sh","l","180","200","201","162","216","248","spektor","null","null","null","null","null","null","null","null","null","null","null","","180","200","260","200","36000","52000","[2,3]","501.698426497246","162.83658599462146","489.39137584823925"
"","canvas-keyboard-response","225","184660","0.0-6.0-2.31","524","","","","","rectangles no change","null","null","","","catch","sw","sh","l","180","200","201","162","216","248","spektor","null","null","null","null","null","null","null","null","null","null","null","","180","200","260","200","36000","52000","[2,3]","501.698426497246","162.83658599462146","489.39137584823925"
"","canvas-keyboard-response","226","185993","0.0-6.0-3.31","524","","","","","rectangles with change","null","null","","","catch","sw","sh","l","180","200","201","162","216","248","spektor","null","null","null","null","null","null","null","null","null","null","null","","180","200","260","200","36000","52000","[2,3]","501.698426497246","162.83658599462146","489.39137584823925"
"","canvas-keyboard-response","227","186013","0.0-6.0-4.31","524","","","","","clear_screen","null","null","","","catch","sw","sh","l","180","200","201","162","216","248","spektor","null","null","null","null","null","null","null","null","null","null","null","","180","200","260","200","36000","52000","[2,3]","501.698426497246","162.83658599462146","489.39137584823925"
"","canvas-keyboard-response","228","186270","0.0-6.0-5.31","524","","","","","make choice","247","3","","","catch","sw","sh","l","180","200","201","162","216","248","spektor","null","null","null","null","null","null","null","null","null","null","null","","180","200","260","200","36000","52000","[2,3]","","",""
"","canvas-keyboard-response","229","186291","0.0-6.0-6.31","524","","","","","clear_screen","null","null","","","catch","sw","sh","l","180","200","201","162","216","248","spektor","null","null","null","null","null","null","null","null","null","null","null","","180","200","260","200","36000","52000","[2,3]","","",""
"","canvas-keyboard-response","230","186491","0.0-6.0-0.32","524","","","","","pre trial waiting period","null","null","","","critical","c","t","d","240","164","164","240","154.6796","220.0396","trueblood","0.14","h","164","240","240","164","154.6796","220.0396","39360","39360","34035.6388","tc","null","null","null","null","null","null","[2,1]","481.32567236536676","419.65254249832657","449.4028153640612"
"","canvas-keyboard-response","231","186514","0.0-6.0-1.32","524","","","","","clear_screen","null","null","","","critical","c","t","d","240","164","164","240","154.6796","220.0396","trueblood","0.14","h","164","240","240","164","154.6796","220.0396","39360","39360","34035.6388","tc","null","null","null","null","null","null","[2,1]","481.32567236536676","419.65254249832657","449.4028153640612"
"","canvas-keyboard-response","232","187020","0.0-6.0-2.32","524","","","","","rectangles no change","null","null","","","critical","c","t","d","240","164","164","240","154.6796","220.0396","trueblood","0.14","h","164","240","240","164","154.6796","220.0396","39360","39360","34035.6388","tc","null","null","null","null","null","null","[2,1]","481.32567236536676","419.65254249832657","449.4028153640612"
"","canvas-keyboard-response","233","188359","0.0-6.0-3.32","524","","","","","rectangles with change","null","null","","","critical","c","t","d","240","164","164","240","154.6796","220.0396","trueblood","0.14","h","164","240","240","164","154.6796","220.0396","39360","39360","34035.6388","tc","null","null","null","null","null","null","[2,1]","481.32567236536676","419.65254249832657","449.4028153640612"
"","canvas-keyboard-response","234","188382","0.0-6.0-4.32","524","","","","","clear_screen","null","null","","","critical","c","t","d","240","164","164","240","154.6796","220.0396","trueblood","0.14","h","164","240","240","164","154.6796","220.0396","39360","39360","34035.6388","tc","null","null","null","null","null","null","[2,1]","481.32567236536676","419.65254249832657","449.4028153640612"
"","canvas-keyboard-response","235","188814","0.0-6.0-5.32","524","","","","","make choice","426","1","","","critical","c","t","d","240","164","164","240","154.6796","220.0396","trueblood","0.14","h","164","240","240","164","154.6796","220.0396","39360","39360","34035.6388","tc","null","null","null","null","null","null","[2,1]","","",""
"","canvas-keyboard-response","236","188834","0.0-6.0-6.32","524","","","","","clear_screen","null","null","","","critical","c","t","d","240","164","164","240","154.6796","220.0396","trueblood","0.14","h","164","240","240","164","154.6796","220.0396","39360","39360","34035.6388","tc","null","null","null","null","null","null","[2,1]","","",""
"","canvas-keyboard-response","237","189034","0.0-6.0-0.33","524","","","","","pre trial waiting period","null","null","","","catch","sh","l","sw","164","161","196","276","195","173","trueblood","null","null","null","null","null","null","null","null","null","null","null","","180","200","260","200","36000","52000","[1,2]","518.5490853782525","412.63734150635315","510.494614647466"
"","canvas-keyboard-response","238","189054","0.0-6.0-1.33","524","","","","","clear_screen","null","null","","","catch","sh","l","sw","164","161","196","276","195","173","trueblood","null","null","null","null","null","null","null","null","null","null","null","","180","200","260","200","36000","52000","[1,2]","518.5490853782525","412.63734150635315","510.494614647466"
"","canvas-keyboard-response","239","189561","0.0-6.0-2.33","524","","","","","rectangles no change","null","null","","","catch","sh","l","sw","164","161","196","276","195","173","trueblood","null","null","null","null","null","null","null","null","null","null","null","","180","200","260","200","36000","52000","[1,2]","518.5490853782525","412.63734150635315","510.494614647466"
"","canvas-keyboard-response","240","190901","0.0-6.0-3.33","524","","","","","rectangles with change","null","null","","","catch","sh","l","sw","164","161","196","276","195","173","trueblood","null","null","null","null","null","null","null","null","null","null","null","","180","200","260","200","36000","52000","[1,2]","518.5490853782525","412.63734150635315","510.494614647466"
"","canvas-keyboard-response","241","190922","0.0-6.0-4.33","524","","","","","clear_screen","null","null","","","catch","sh","l","sw","164","161","196","276","195","173","trueblood","null","null","null","null","null","null","null","null","null","null","null","","180","200","260","200","36000","52000","[1,2]","518.5490853782525","412.63734150635315","510.494614647466"
"","canvas-keyboard-response","242","191205","0.0-6.0-5.33","524","","","","","make choice","279","2","","","catch","sh","l","sw","164","161","196","276","195","173","trueblood","null","null","null","null","null","null","null","null","null","null","null","","180","200","260","200","36000","52000","[1,2]","","",""
"","canvas-keyboard-response","243","191224","0.0-6.0-6.33","524","","","","","clear_screen","null","null","","","catch","sh","l","sw","164","161","196","276","195","173","trueblood","null","null","null","null","null","null","null","null","null","null","null","","180","200","260","200","36000","52000","[1,2]","","",""
"","canvas-keyboard-response","244","191425","0.0-6.0-0.34","524","","","","","pre trial waiting period","null","null","","","critical","t","c","d","240","164","164","240","232.8713","160.6713","spektor","0.05","w","240","164","164","240","232.8713","160.6713","39360","39360","37415.7294","dc","null","null","null","null","null","null","[3,2]","525.6393802011955","117.54919805276458","531.646365963665"
"","canvas-keyboard-response","245","191445","0.0-6.0-1.34","524","","","","","clear_screen","null","null","","","critical","t","c","d","240","164","164","240","232.8713","160.6713","spektor","0.05","w","240","164","164","240","232.8713","160.6713","39360","39360","37415.7294","dc","null","null","null","null","null","null","[3,2]","525.6393802011955","117.54919805276458","531.646365963665"
"","canvas-keyboard-response","246","191951","0.0-6.0-2.34","524","","","","","rectangles no change","null","null","","","critical","t","c","d","240","164","164","240","232.8713","160.6713","spektor","0.05","w","240","164","164","240","232.8713","160.6713","39360","39360","37415.7294","dc","null","null","null","null","null","null","[3,2]","525.6393802011955","117.54919805276458","531.646365963665"
"","canvas-keyboard-response","247","193289","0.0-6.0-3.34","524","","","","","rectangles with change","null","null","","","critical","t","c","d","240","164","164","240","232.8713","160.6713","spektor","0.05","w","240","164","164","240","232.8713","160.6713","39360","39360","37415.7294","dc","null","null","null","null","null","null","[3,2]","525.6393802011955","117.54919805276458","531.646365963665"
"","canvas-keyboard-response","248","193308","0.0-6.0-4.34","524","","","","","clear_screen","null","null","","","critical","t","c","d","240","164","164","240","232.8713","160.6713","spektor","0.05","w","240","164","164","240","232.8713","160.6713","39360","39360","37415.7294","dc","null","null","null","null","null","null","[3,2]","525.6393802011955","117.54919805276458","531.646365963665"
"","canvas-keyboard-response","249","193597","0.0-6.0-5.34","524","","","","","make choice","281","3","","","critical","t","c","d","240","164","164","240","232.8713","160.6713","spektor","0.05","w","240","164","164","240","232.8713","160.6713","39360","39360","37415.7294","dc","null","null","null","null","null","null","[3,2]","","",""
"","canvas-keyboard-response","250","193617","0.0-6.0-6.34","524","","","","","clear_screen","null","null","","","critical","t","c","d","240","164","164","240","232.8713","160.6713","spektor","0.05","w","240","164","164","240","232.8713","160.6713","39360","39360","37415.7294","dc","null","null","null","null","null","null","[3,2]","","",""
"","canvas-keyboard-response","251","193817","0.0-6.0-0.35","524","","","","","pre trial waiting period","null","null","","","critical","c","t","d","240","164","164","240","158.0083","227.1683","spektor","0.09","h","164","240","240","164","158.0083","227.1683","39360","39360","35894.4834","td","null","null","null","null","null","null","[2,3]","529.5724137593241","107.52195578139566","472.0518907904878"
"","canvas-keyboard-response","252","193836","0.0-6.0-1.35","524","","","","","clear_screen","null","null","","","critical","c","t","d","240","164","164","240","158.0083","227.1683","spektor","0.09","h","164","240","240","164","158.0083","227.1683","39360","39360","35894.4834","td","null","null","null","null","null","null","[2,3]","529.5724137593241","107.52195578139566","472.0518907904878"
"","canvas-keyboard-response","253","194346","0.0-6.0-2.35","524","","","","","rectangles no change","null","null","","","critical","c","t","d","240","164","164","240","158.0083","227.1683","spektor","0.09","h","164","240","240","164","158.0083","227.1683","39360","39360","35894.4834","td","null","null","null","null","null","null","[2,3]","529.5724137593241","107.52195578139566","472.0518907904878"
"","canvas-keyboard-response","254","195684","0.0-6.0-3.35","524","","","","","rectangles with change","null","null","","","critical","c","t","d","240","164","164","240","158.0083","227.1683","spektor","0.09","h","164","240","240","164","158.0083","227.1683","39360","39360","35894.4834","td","null","null","null","null","null","null","[2,3]","529.5724137593241","107.52195578139566","472.0518907904878"
"","canvas-keyboard-response","255","195705","0.0-6.0-4.35","524","","","","","clear_screen","null","null","","","critical","c","t","d","240","164","164","240","158.0083","227.1683","spektor","0.09","h","164","240","240","164","158.0083","227.1683","39360","39360","35894.4834","td","null","null","null","null","null","null","[2,3]","529.5724137593241","107.52195578139566","472.0518907904878"
"","canvas-keyboard-response","256","196053","0.0-6.0-5.35","524","","","","","make choice","343","3","","","critical","c","t","d","240","164","164","240","158.0083","227.1683","spektor","0.09","h","164","240","240","164","158.0083","227.1683","39360","39360","35894.4834","td","null","null","null","null","null","null","[2,3]","","",""
"","canvas-keyboard-response","257","196074","0.0-6.0-6.35","524","","","","","clear_screen","null","null","","","critical","c","t","d","240","164","164","240","158.0083","227.1683","spektor","0.09","h","164","240","240","164","158.0083","227.1683","39360","39360","35894.4834","td","null","null","null","null","null","null","[2,3]","","",""
"","canvas-keyboard-response","258","196275","0.0-6.0-0.36","524","","","","","pre trial waiting period","null","null","","","critical","t","c","d","164","240","240","164","162.6685","237.1485","spektor","0.02","h","164","240","240","164","162.6685","237.1485","39360","39360","38576.5967","dc","null","null","null","null","null","null","[3,2]","496.2046566504327","158.77571678614643","486.12271039626376"
"","canvas-keyboard-response","259","196297","0.0-6.0-1.36","524","","","","","clear_screen","null","null","","","critical","t","c","d","164","240","240","164","162.6685","237.1485","spektor","0.02","h","164","240","240","164","162.6685","237.1485","39360","39360","38576.5967","dc","null","null","null","null","null","null","[3,2]","496.2046566504327","158.77571678614643","486.12271039626376"
"","canvas-keyboard-response","260","196805","0.0-6.0-2.36","524","","","","","rectangles no change","null","null","","","critical","t","c","d","164","240","240","164","162.6685","237.1485","spektor","0.02","h","164","240","240","164","162.6685","237.1485","39360","39360","38576.5967","dc","null","null","null","null","null","null","[3,2]","496.2046566504327","158.77571678614643","486.12271039626376"
"","canvas-keyboard-response","261","198145","0.0-6.0-3.36","524","","","","","rectangles with change","null","null","","","critical","t","c","d","164","240","240","164","162.6685","237.1485","spektor","0.02","h","164","240","240","164","162.6685","237.1485","39360","39360","38576.5967","dc","null","null","null","null","null","null","[3,2]","496.2046566504327","158.77571678614643","486.12271039626376"
"","canvas-keyboard-response","262","198166","0.0-6.0-4.36","524","","","","","clear_screen","null","null","","","critical","t","c","d","164","240","240","164","162.6685","237.1485","spektor","0.02","h","164","240","240","164","162.6685","237.1485","39360","39360","38576.5967","dc","null","null","null","null","null","null","[3,2]","496.2046566504327","158.77571678614643","486.12271039626376"
"","canvas-keyboard-response","263","199118","0.0-6.0-5.36","524","","","","","make choice","946","2","","","critical","t","c","d","164","240","240","164","162.6685","237.1485","spektor","0.02","h","164","240","240","164","162.6685","237.1485","39360","39360","38576.5967","dc","null","null","null","null","null","null","[3,2]","","",""
"","canvas-keyboard-response","264","199138","0.0-6.0-6.36","524","","","","","clear_screen","null","null","","","critical","t","c","d","164","240","240","164","162.6685","237.1485","spektor","0.02","h","164","240","240","164","162.6685","237.1485","39360","39360","38576.5967","dc","null","null","null","null","null","null","[3,2]","","",""
"","canvas-keyboard-response","265","199339","0.0-6.0-0.37","524","","","","","pre trial waiting period","null","null","","","critical","t","c","d","240","164","164","240","240","164","spektor","0","w","240","164","164","240","240","164","39360","39360","39360","td","null","null","null","null","null","null","[1,3]","511.46355017136955","113.8131770457527","503.2495167816069"
"","canvas-keyboard-response","266","199357","0.0-6.0-1.37","524","","","","","clear_screen","null","null","","","critical","t","c","d","240","164","164","240","240","164","spektor","0","w","240","164","164","240","240","164","39360","39360","39360","td","null","null","null","null","null","null","[1,3]","511.46355017136955","113.8131770457527","503.2495167816069"
