"success","trial_type","trial_index","time_elapsed","internal_node_id","sub_n","timeout","failed_images","failed_audio","failed_video","screen_id","rt","response","stimulus","view_history","trial","r1","r2","r3","w1","h1","w2","h2","w3","h3","display","tdd","tdo","tw","th","cw","ch","dw","dh","ta","ca","da","probe","csls","csss","clls","clss","sa","la","probe_rects","r1yloc","r2yloc","r3yloc"
"true","fullscreen","0","2514","0.0-0.0","581","","","","","","","","","","","","","","","","","","","","","","","","","","","","","","","","","","","","","","","","","",""
"true","preload","1","2541","0.0-1.0","581","false","[]","[]","[]","img preload","","","","","","","","","","","","","","","","","","","","","","","","","","","","","","","","","","","","",""
"","survey-html-form","2","5270","0.0-2.0","581","","","","","enter-sub-number","2703","{""response"":""581""}","","","","","","","","","","","","","","","","","","","","","","","","","","","","","","","","","","",""
"","image-button-response","3","25857","0.0-3.0","581","","","","","","20480","0","consent.png","","","","","","","","","","","","","","","","","","","","","","","","","","","","","","","","","",""
"","html-button-response","4","29961","0.0-4.0","581","","","","","intro mssg","4099","0","<div style= ""font-size:25px;"" <p> <strong> Welcome! </strong><br> <p style=""color:#8B0000; font-size:25px;""><strong> Please do NOT exit full screen until you are done with the experiment. </strong> </p><p style=""font-size:25px;color:#8B0000;""> <strong> Your data will be lost <br> if you try to go back or refresh the page after the experiment starts. Feel free to click ""previous"" during the instructions, however.</strong> </p><br><p> <strong> Thanks in advance for your contribution to our research! </strong></p>","","","","","","","","","","","","","","","","","","","","","","","","","","","","","","","","","",""
"","instructions","5","90033","0.0-5.0","581","","","","","instructions","60067","","","[{""page_index"":0,""viewing_time"":15707},{""page_index"":1,""viewing_time"":9601},{""page_index"":2,""viewing_time"":3791},{""page_index"":3,""viewing_time"":18072},{""page_index"":4,""viewing_time"":6975},{""page_index"":5,""viewing_time"":2337},{""page_index"":6,""viewing_time"":2224},{""page_index"":7,""viewing_time"":1360}]","","","","","","","","","","","","","","","","","","","","","","","","","","","","","","","","",""
"","canvas-keyboard-response","6","90239","0.0-6.0-0.0","581","","","","","pre trial waiting period","null","null","","","catch","sh","l","sw","235","200","263","183","142","176","spektor","null","null","null","null","null","null","null","null","null","null","null","","180","200","260","200","36000","52000","[1,2]","501.91000623528976","202.6339313390554","523.674922393786"
"","canvas-keyboard-response","7","90266","0.0-6.0-1.0","581","","","","","clear_screen","null","null","","","catch","sh","l","sw","235","200","263","183","142","176","spektor","null","null","null","null","null","null","null","null","null","null","null","","180","200","260","200","36000","52000","[1,2]","501.91000623528976","202.6339313390554","523.674922393786"
"","canvas-keyboard-response","8","90786","0.0-6.0-2.0","581","","","","","rectangles no change","null","null","","","catch","sh","l","sw","235","200","263","183","142","176","spektor","null","null","null","null","null","null","null","null","null","null","null","","180","200","260","200","36000","52000","[1,2]","501.91000623528976","202.6339313390554","523.674922393786"
"","canvas-keyboard-response","9","92123","0.0-6.0-3.0","581","","","","","rectangles with change","null","null","","","catch","sh","l","sw","235","200","263","183","142","176","spektor","null","null","null","null","null","null","null","null","null","null","null","","180","200","260","200","36000","52000","[1,2]","501.91000623528976","202.6339313390554","523.674922393786"
"","canvas-keyboard-response","10","92143","0.0-6.0-4.0","581","","","","","clear_screen","null","null","","","catch","sh","l","sw","235","200","263","183","142","176","spektor","null","null","null","null","null","null","null","null","null","null","null","","180","200","260","200","36000","52000","[1,2]","501.91000623528976","202.6339313390554","523.674922393786"
"","canvas-keyboard-response","11","92767","0.0-6.0-5.0","581","","","","","make choice","611","2","","","catch","sh","l","sw","235","200","263","183","142","176","spektor","null","null","null","null","null","null","null","null","null","null","null","","180","200","260","200","36000","52000","[1,2]","","",""
"","canvas-keyboard-response","12","92786","0.0-6.0-6.0","581","","","","","clear_screen","null","null","","","catch","sh","l","sw","235","200","263","183","142","176","spektor","null","null","null","null","null","null","null","null","null","null","null","","180","200","260","200","36000","52000","[1,2]","","",""
"","canvas-keyboard-response","13","92987","0.0-6.0-0.1","581","","","","","pre trial waiting period","null","null","","","critical","t","c","d","240","164","164","240","220.0396","154.6796","trueblood","0.14","w","240","164","164","240","220.0396","154.6796","39360","39360","34035.6388","td","null","null","null","null","null","null","[1,3]","498.2279350312203","422.2872956303444","487.92459225211144"
"","canvas-keyboard-response","14","93007","0.0-6.0-1.1","581","","","","","clear_screen","null","null","","","critical","t","c","d","240","164","164","240","220.0396","154.6796","trueblood","0.14","w","240","164","164","240","220.0396","154.6796","39360","39360","34035.6388","td","null","null","null","null","null","null","[1,3]","498.2279350312203","422.2872956303444","487.92459225211144"
"","canvas-keyboard-response","15","93517","0.0-6.0-2.1","581","","","","","rectangles no change","null","null","","","critical","t","c","d","240","164","164","240","220.0396","154.6796","trueblood","0.14","w","240","164","164","240","220.0396","154.6796","39360","39360","34035.6388","td","null","null","null","null","null","null","[1,3]","498.2279350312203","422.2872956303444","487.92459225211144"
"","canvas-keyboard-response","16","94852","0.0-6.0-3.1","581","","","","","rectangles with change","null","null","","","critical","t","c","d","240","164","164","240","220.0396","154.6796","trueblood","0.14","w","240","164","164","240","220.0396","154.6796","39360","39360","34035.6388","td","null","null","null","null","null","null","[1,3]","498.2279350312203","422.2872956303444","487.92459225211144"
"","canvas-keyboard-response","17","94874","0.0-6.0-4.1","581","","","","","clear_screen","null","null","","","critical","t","c","d","240","164","164","240","220.0396","154.6796","trueblood","0.14","w","240","164","164","240","220.0396","154.6796","39360","39360","34035.6388","td","null","null","null","null","null","null","[1,3]","498.2279350312203","422.2872956303444","487.92459225211144"
"","canvas-keyboard-response","18","95406","0.0-6.0-5.1","581","","","","","make choice","516","1","","","critical","t","c","d","240","164","164","240","220.0396","154.6796","trueblood","0.14","w","240","164","164","240","220.0396","154.6796","39360","39360","34035.6388","td","null","null","null","null","null","null","[1,3]","","",""
"","canvas-keyboard-response","19","95425","0.0-6.0-6.1","581","","","","","clear_screen","null","null","","","critical","t","c","d","240","164","164","240","220.0396","154.6796","trueblood","0.14","w","240","164","164","240","220.0396","154.6796","39360","39360","34035.6388","td","null","null","null","null","null","null","[1,3]","","",""
"","canvas-keyboard-response","20","95626","0.0-6.0-0.2","581","","","","","pre trial waiting period","null","null","","","catch","sw","sh","l","180","200","207","170","214","267","trueblood","null","null","null","null","null","null","null","null","null","null","null","","180","200","260","200","36000","52000","[2,3]","483.15793122191207","467.3795481569038","417.2020138194085"
"","canvas-keyboard-response","21","95647","0.0-6.0-1.2","581","","","","","clear_screen","null","null","","","catch","sw","sh","l","180","200","207","170","214","267","trueblood","null","null","null","null","null","null","null","null","null","null","null","","180","200","260","200","36000","52000","[2,3]","483.15793122191207","467.3795481569038","417.2020138194085"
"","canvas-keyboard-response","22","96158","0.0-6.0-2.2","581","","","","","rectangles no change","null","null","","","catch","sw","sh","l","180","200","207","170","214","267","trueblood","null","null","null","null","null","null","null","null","null","null","null","","180","200","260","200","36000","52000","[2,3]","483.15793122191207","467.3795481569038","417.2020138194085"
"","canvas-keyboard-response","23","97493","0.0-6.0-3.2","581","","","","","rectangles with change","null","null","","","catch","sw","sh","l","180","200","207","170","214","267","trueblood","null","null","null","null","null","null","null","null","null","null","null","","180","200","260","200","36000","52000","[2,3]","483.15793122191207","467.3795481569038","417.2020138194085"
"","canvas-keyboard-response","24","97512","0.0-6.0-4.2","581","","","","","clear_screen","null","null","","","catch","sw","sh","l","180","200","207","170","214","267","trueblood","null","null","null","null","null","null","null","null","null","null","null","","180","200","260","200","36000","52000","[2,3]","483.15793122191207","467.3795481569038","417.2020138194085"
"","canvas-keyboard-response","25","98414","0.0-6.0-5.2","581","","","","","make choice","893","3","","","catch","sw","sh","l","180","200","207","170","214","267","trueblood","null","null","null","null","null","null","null","null","null","null","null","","180","200","260","200","36000","52000","[2,3]","","",""
"","canvas-keyboard-response","26","98433","0.0-6.0-6.2","581","","","","","clear_screen","null","null","","","catch","sw","sh","l","180","200","207","170","214","267","trueblood","null","null","null","null","null","null","null","null","null","null","null","","180","200","260","200","36000","52000","[2,3]","","",""
"","canvas-keyboard-response","27","98634","0.0-6.0-0.3","581","","","","","pre trial waiting period","null","null","","","critical","c","t","d","164","240","240","164","232.8713","160.6713","spektor","0.05","w","240","164","164","240","232.8713","160.6713","39360","39360","37415.7294","td","null","null","null","null","null","null","[2,3]","500.22151230487987","189.4438758521077","520.4113186847968"
"","canvas-keyboard-response","28","98655","0.0-6.0-1.3","581","","","","","clear_screen","null","null","","","critical","c","t","d","164","240","240","164","232.8713","160.6713","spektor","0.05","w","240","164","164","240","232.8713","160.6713","39360","39360","37415.7294","td","null","null","null","null","null","null","[2,3]","500.22151230487987","189.4438758521077","520.4113186847968"
"","canvas-keyboard-response","29","99166","0.0-6.0-2.3","581","","","","","rectangles no change","null","null","","","critical","c","t","d","164","240","240","164","232.8713","160.6713","spektor","0.05","w","240","164","164","240","232.8713","160.6713","39360","39360","37415.7294","td","null","null","null","null","null","null","[2,3]","500.22151230487987","189.4438758521077","520.4113186847968"
"","canvas-keyboard-response","30","100501","0.0-6.0-3.3","581","","","","","rectangles with change","null","null","","","critical","c","t","d","164","240","240","164","232.8713","160.6713","spektor","0.05","w","240","164","164","240","232.8713","160.6713","39360","39360","37415.7294","td","null","null","null","null","null","null","[2,3]","500.22151230487987","189.4438758521077","520.4113186847968"
"","canvas-keyboard-response","31","100520","0.0-6.0-4.3","581","","","","","clear_screen","null","null","","","critical","c","t","d","164","240","240","164","232.8713","160.6713","spektor","0.05","w","240","164","164","240","232.8713","160.6713","39360","39360","37415.7294","td","null","null","null","null","null","null","[2,3]","500.22151230487987","189.4438758521077","520.4113186847968"
"","canvas-keyboard-response","32","101190","0.0-6.0-5.3","581","","","","","make choice","661","3","","","critical","c","t","d","164","240","240","164","232.8713","160.6713","spektor","0.05","w","240","164","164","240","232.8713","160.6713","39360","39360","37415.7294","td","null","null","null","null","null","null","[2,3]","","",""
"","canvas-keyboard-response","33","101208","0.0-6.0-6.3","581","","","","","clear_screen","null","null","","","critical","c","t","d","164","240","240","164","232.8713","160.6713","spektor","0.05","w","240","164","164","240","232.8713","160.6713","39360","39360","37415.7294","td","null","null","null","null","null","null","[2,3]","","",""
"","canvas-keyboard-response","34","101409","0.0-6.0-0.4","581","","","","","pre trial waiting period","null","null","","","catch","sh","l","sw","207","208","175","297","176","211","trueblood","null","null","null","null","null","null","null","null","null","null","null","","180","200","260","200","36000","52000","[2,3]","481.5384655205067","429.7568342203229","478.6494789133709"
"","canvas-keyboard-response","35","101430","0.0-6.0-1.4","581","","","","","clear_screen","null","null","","","catch","sh","l","sw","207","208","175","297","176","211","trueblood","null","null","null","null","null","null","null","null","null","null","null","","180","200","260","200","36000","52000","[2,3]","481.5384655205067","429.7568342203229","478.6494789133709"
"","canvas-keyboard-response","36","101941","0.0-6.0-2.4","581","","","","","rectangles no change","null","null","","","catch","sh","l","sw","207","208","175","297","176","211","trueblood","null","null","null","null","null","null","null","null","null","null","null","","180","200","260","200","36000","52000","[2,3]","481.5384655205067","429.7568342203229","478.6494789133709"
"","canvas-keyboard-response","37","103275","0.0-6.0-3.4","581","","","","","rectangles with change","null","null","","","catch","sh","l","sw","207","208","175","297","176","211","trueblood","null","null","null","null","null","null","null","null","null","null","null","","180","200","260","200","36000","52000","[2,3]","481.5384655205067","429.7568342203229","478.6494789133709"
"","canvas-keyboard-response","38","103294","0.0-6.0-4.4","581","","","","","clear_screen","null","null","","","catch","sh","l","sw","207","208","175","297","176","211","trueblood","null","null","null","null","null","null","null","null","null","null","null","","180","200","260","200","36000","52000","[2,3]","481.5384655205067","429.7568342203229","478.6494789133709"
"","canvas-keyboard-response","39","103838","0.0-6.0-5.4","581","","","","","make choice","536","2","","","catch","sh","l","sw","207","208","175","297","176","211","trueblood","null","null","null","null","null","null","null","null","null","null","null","","180","200","260","200","36000","52000","[2,3]","","",""
"","canvas-keyboard-response","40","103857","0.0-6.0-6.4","581","","","","","clear_screen","null","null","","","catch","sh","l","sw","207","208","175","297","176","211","trueblood","null","null","null","null","null","null","null","null","null","null","null","","180","200","260","200","36000","52000","[2,3]","","",""
"","canvas-keyboard-response","41","104059","0.0-6.0-0.5","581","","","","","pre trial waiting period","null","null","","","critical","t","c","d","164","240","240","164","162.6685","237.1485","spektor","0.02","h","164","240","240","164","162.6685","237.1485","39360","39360","38576.5967","tc","null","null","null","null","null","null","[1,2]","503.7568697723235","173.73917222130777","466.21980351104975"
"","canvas-keyboard-response","42","104078","0.0-6.0-1.5","581","","","","","clear_screen","null","null","","","critical","t","c","d","164","240","240","164","162.6685","237.1485","spektor","0.02","h","164","240","240","164","162.6685","237.1485","39360","39360","38576.5967","tc","null","null","null","null","null","null","[1,2]","503.7568697723235","173.73917222130777","466.21980351104975"
"","canvas-keyboard-response","43","104594","0.0-6.0-2.5","581","","","","","rectangles no change","null","null","","","critical","t","c","d","164","240","240","164","162.6685","237.1485","spektor","0.02","h","164","240","240","164","162.6685","237.1485","39360","39360","38576.5967","tc","null","null","null","null","null","null","[1,2]","503.7568697723235","173.73917222130777","466.21980351104975"
"","canvas-keyboard-response","44","105930","0.0-6.0-3.5","581","","","","","rectangles with change","null","null","","","critical","t","c","d","164","240","240","164","162.6685","237.1485","spektor","0.02","h","164","240","240","164","162.6685","237.1485","39360","39360","38576.5967","tc","null","null","null","null","null","null","[1,2]","503.7568697723235","173.73917222130777","466.21980351104975"
"","canvas-keyboard-response","45","105948","0.0-6.0-4.5","581","","","","","clear_screen","null","null","","","critical","t","c","d","164","240","240","164","162.6685","237.1485","spektor","0.02","h","164","240","240","164","162.6685","237.1485","39360","39360","38576.5967","tc","null","null","null","null","null","null","[1,2]","503.7568697723235","173.73917222130777","466.21980351104975"
"","canvas-keyboard-response","46","106279","0.0-6.0-5.5","581","","","","","make choice","324","2","","","critical","t","c","d","164","240","240","164","162.6685","237.1485","spektor","0.02","h","164","240","240","164","162.6685","237.1485","39360","39360","38576.5967","tc","null","null","null","null","null","null","[1,2]","","",""
"","canvas-keyboard-response","47","106297","0.0-6.0-6.5","581","","","","","clear_screen","null","null","","","critical","t","c","d","164","240","240","164","162.6685","237.1485","spektor","0.02","h","164","240","240","164","162.6685","237.1485","39360","39360","38576.5967","tc","null","null","null","null","null","null","[1,2]","","",""
"","canvas-keyboard-response","48","106499","0.0-6.0-0.6","581","","","","","pre trial waiting period","null","null","","","critical","d","c","t","162.6685","237.1485","240","164","164","240","trueblood","0.02","h","164","240","240","164","162.6685","237.1485","39360","39360","38576.5967","tc","null","null","null","null","null","null","[3,2]","441.2048644788323","510.6575278544306","455.354747587713"
"","canvas-keyboard-response","49","106517","0.0-6.0-1.6","581","","","","","clear_screen","null","null","","","critical","d","c","t","162.6685","237.1485","240","164","164","240","trueblood","0.02","h","164","240","240","164","162.6685","237.1485","39360","39360","38576.5967","tc","null","null","null","null","null","null","[3,2]","441.2048644788323","510.6575278544306","455.354747587713"
"","canvas-keyboard-response","50","107028","0.0-6.0-2.6","581","","","","","rectangles no change","null","null","","","critical","d","c","t","162.6685","237.1485","240","164","164","240","trueblood","0.02","h","164","240","240","164","162.6685","237.1485","39360","39360","38576.5967","tc","null","null","null","null","null","null","[3,2]","441.2048644788323","510.6575278544306","455.354747587713"
"","canvas-keyboard-response","51","108363","0.0-6.0-3.6","581","","","","","rectangles with change","null","null","","","critical","d","c","t","162.6685","237.1485","240","164","164","240","trueblood","0.02","h","164","240","240","164","162.6685","237.1485","39360","39360","38576.5967","tc","null","null","null","null","null","null","[3,2]","441.2048644788323","510.6575278544306","455.354747587713"
"","canvas-keyboard-response","52","108382","0.0-6.0-4.6","581","","","","","clear_screen","null","null","","","critical","d","c","t","162.6685","237.1485","240","164","164","240","trueblood","0.02","h","164","240","240","164","162.6685","237.1485","39360","39360","38576.5967","tc","null","null","null","null","null","null","[3,2]","441.2048644788323","510.6575278544306","455.354747587713"
"","canvas-keyboard-response","53","108663","0.0-6.0-5.6","581","","","","","make choice","273","2","","","critical","d","c","t","162.6685","237.1485","240","164","164","240","trueblood","0.02","h","164","240","240","164","162.6685","237.1485","39360","39360","38576.5967","tc","null","null","null","null","null","null","[3,2]","","",""
"","canvas-keyboard-response","54","108681","0.0-6.0-6.6","581","","","","","clear_screen","null","null","","","critical","d","c","t","162.6685","237.1485","240","164","164","240","trueblood","0.02","h","164","240","240","164","162.6685","237.1485","39360","39360","38576.5967","tc","null","null","null","null","null","null","[3,2]","","",""
"","canvas-keyboard-response","55","108882","0.0-6.0-0.7","581","","","","","pre trial waiting period","null","null","","","critical","c","t","d","240","164","164","240","158.0083","227.1683","trueblood","0.09","h","164","240","240","164","158.0083","227.1683","39360","39360","35894.4834","dc","null","null","null","null","null","null","[3,1]","478.25573696236876","427.633661854306","451.4972676807174"
"","canvas-keyboard-response","56","108902","0.0-6.0-1.7","581","","","","","clear_screen","null","null","","","critical","c","t","d","240","164","164","240","158.0083","227.1683","trueblood","0.09","h","164","240","240","164","158.0083","227.1683","39360","39360","35894.4834","dc","null","null","null","null","null","null","[3,1]","478.25573696236876","427.633661854306","451.4972676807174"
"","canvas-keyboard-response","57","109416","0.0-6.0-2.7","581","","","","","rectangles no change","null","null","","","critical","c","t","d","240","164","164","240","158.0083","227.1683","trueblood","0.09","h","164","240","240","164","158.0083","227.1683","39360","39360","35894.4834","dc","null","null","null","null","null","null","[3,1]","478.25573696236876","427.633661854306","451.4972676807174"
"","canvas-keyboard-response","58","110751","0.0-6.0-3.7","581","","","","","rectangles with change","null","null","","","critical","c","t","d","240","164","164","240","158.0083","227.1683","trueblood","0.09","h","164","240","240","164","158.0083","227.1683","39360","39360","35894.4834","dc","null","null","null","null","null","null","[3,1]","478.25573696236876","427.633661854306","451.4972676807174"
"","canvas-keyboard-response","59","110769","0.0-6.0-4.7","581","","","","","clear_screen","null","null","","","critical","c","t","d","240","164","164","240","158.0083","227.1683","trueblood","0.09","h","164","240","240","164","158.0083","227.1683","39360","39360","35894.4834","dc","null","null","null","null","null","null","[3,1]","478.25573696236876","427.633661854306","451.4972676807174"
"","canvas-keyboard-response","60","111086","0.0-6.0-5.7","581","","","","","make choice","311","1","","","critical","c","t","d","240","164","164","240","158.0083","227.1683","trueblood","0.09","h","164","240","240","164","158.0083","227.1683","39360","39360","35894.4834","dc","null","null","null","null","null","null","[3,1]","","",""
"","canvas-keyboard-response","61","111105","0.0-6.0-6.7","581","","","","","clear_screen","null","null","","","critical","c","t","d","240","164","164","240","158.0083","227.1683","trueblood","0.09","h","164","240","240","164","158.0083","227.1683","39360","39360","35894.4834","dc","null","null","null","null","null","null","[3,1]","","",""
"","canvas-keyboard-response","62","111306","0.0-6.0-0.8","581","","","","","pre trial waiting period","null","null","","","catch","sw","sh","l","180","200","187","151","276","170","spektor","null","null","null","null","null","null","null","null","null","null","null","","180","200","260","200","36000","52000","[1,3]","507.0726245273073","196.33609699330157","531.2908967546282"
"","canvas-keyboard-response","63","111325","0.0-6.0-1.8","581","","","","","clear_screen","null","null","","","catch","sw","sh","l","180","200","187","151","276","170","spektor","null","null","null","null","null","null","null","null","null","null","null","","180","200","260","200","36000","52000","[1,3]","507.0726245273073","196.33609699330157","531.2908967546282"
"","canvas-keyboard-response","64","111840","0.0-6.0-2.8","581","","","","","rectangles no change","null","null","","","catch","sw","sh","l","180","200","187","151","276","170","spektor","null","null","null","null","null","null","null","null","null","null","null","","180","200","260","200","36000","52000","[1,3]","507.0726245273073","196.33609699330157","531.2908967546282"
"","canvas-keyboard-response","65","113176","0.0-6.0-3.8","581","","","","","rectangles with change","null","null","","","catch","sw","sh","l","180","200","187","151","276","170","spektor","null","null","null","null","null","null","null","null","null","null","null","","180","200","260","200","36000","52000","[1,3]","507.0726245273073","196.33609699330157","531.2908967546282"
"","canvas-keyboard-response","66","113196","0.0-6.0-4.8","581","","","","","clear_screen","null","null","","","catch","sw","sh","l","180","200","187","151","276","170","spektor","null","null","null","null","null","null","null","null","null","null","null","","180","200","260","200","36000","52000","[1,3]","507.0726245273073","196.33609699330157","531.2908967546282"
"","canvas-keyboard-response","67","113222","0.0-6.0-5.8","581","","","","","make choice","15","3","","","catch","sw","sh","l","180","200","187","151","276","170","spektor","null","null","null","null","null","null","null","null","null","null","null","","180","200","260","200","36000","52000","[1,3]","","",""
"","canvas-keyboard-response","68","113243","0.0-6.0-6.8","581","","","","","clear_screen","null","null","","","catch","sw","sh","l","180","200","187","151","276","170","spektor","null","null","null","null","null","null","null","null","null","null","null","","180","200","260","200","36000","52000","[1,3]","","",""
"","canvas-keyboard-response","69","113444","0.0-6.0-0.9","581","","","","","pre trial waiting period","null","null","","","critical","c","d","t","240","164","160.6713","232.8713","164","240","trueblood","0.05","h","164","240","240","164","160.6713","232.8713","39360","39360","37415.7294","dc","null","null","null","null","null","null","[2,1]","482.88092710908353","449.48783688594114","442.0070905935551"
"","canvas-keyboard-response","70","113463","0.0-6.0-1.9","581","","","","","clear_screen","null","null","","","critical","c","d","t","240","164","160.6713","232.8713","164","240","trueblood","0.05","h","164","240","240","164","160.6713","232.8713","39360","39360","37415.7294","dc","null","null","null","null","null","null","[2,1]","482.88092710908353","449.48783688594114","442.0070905935551"
"","canvas-keyboard-response","71","113974","0.0-6.0-2.9","581","","","","","rectangles no change","null","null","","","critical","c","d","t","240","164","160.6713","232.8713","164","240","trueblood","0.05","h","164","240","240","164","160.6713","232.8713","39360","39360","37415.7294","dc","null","null","null","null","null","null","[2,1]","482.88092710908353","449.48783688594114","442.0070905935551"
"","canvas-keyboard-response","72","115310","0.0-6.0-3.9","581","","","","","rectangles with change","null","null","","","critical","c","d","t","240","164","160.6713","232.8713","164","240","trueblood","0.05","h","164","240","240","164","160.6713","232.8713","39360","39360","37415.7294","dc","null","null","null","null","null","null","[2,1]","482.88092710908353","449.48783688594114","442.0070905935551"
"","canvas-keyboard-response","73","115329","0.0-6.0-4.9","581","","","","","clear_screen","null","null","","","critical","c","d","t","240","164","160.6713","232.8713","164","240","trueblood","0.05","h","164","240","240","164","160.6713","232.8713","39360","39360","37415.7294","dc","null","null","null","null","null","null","[2,1]","482.88092710908353","449.48783688594114","442.0070905935551"
"","canvas-keyboard-response","74","115622","0.0-6.0-5.9","581","","","","","make choice","286","1","","","critical","c","d","t","240","164","160.6713","232.8713","164","240","trueblood","0.05","h","164","240","240","164","160.6713","232.8713","39360","39360","37415.7294","dc","null","null","null","null","null","null","[2,1]","","",""
"","canvas-keyboard-response","75","115640","0.0-6.0-6.9","581","","","","","clear_screen","null","null","","","critical","c","d","t","240","164","160.6713","232.8713","164","240","trueblood","0.05","h","164","240","240","164","160.6713","232.8713","39360","39360","37415.7294","dc","null","null","null","null","null","null","[2,1]","","",""
"","canvas-keyboard-response","76","115842","0.0-6.0-0.10","581","","","","","pre trial waiting period","null","null","","","critical","t","d","c","164","240","162.6685","237.1485","240","164","trueblood","0.02","h","164","240","240","164","162.6685","237.1485","39360","39360","38576.5967","dc","null","null","null","null","null","null","[2,3]","430.9802571933127","443.92714086184986","502.96030591302787"
"","canvas-keyboard-response","77","115863","0.0-6.0-1.10","581","","","","","clear_screen","null","null","","","critical","t","d","c","164","240","162.6685","237.1485","240","164","trueblood","0.02","h","164","240","240","164","162.6685","237.1485","39360","39360","38576.5967","dc","null","null","null","null","null","null","[2,3]","430.9802571933127","443.92714086184986","502.96030591302787"
"","canvas-keyboard-response","78","116374","0.0-6.0-2.10","581","","","","","rectangles no change","null","null","","","critical","t","d","c","164","240","162.6685","237.1485","240","164","trueblood","0.02","h","164","240","240","164","162.6685","237.1485","39360","39360","38576.5967","dc","null","null","null","null","null","null","[2,3]","430.9802571933127","443.92714086184986","502.96030591302787"
"","canvas-keyboard-response","79","117710","0.0-6.0-3.10","581","","","","","rectangles with change","null","null","","","critical","t","d","c","164","240","162.6685","237.1485","240","164","trueblood","0.02","h","164","240","240","164","162.6685","237.1485","39360","39360","38576.5967","dc","null","null","null","null","null","null","[2,3]","430.9802571933127","443.92714086184986","502.96030591302787"
"","canvas-keyboard-response","80","117728","0.0-6.0-4.10","581","","","","","clear_screen","null","null","","","critical","t","d","c","164","240","162.6685","237.1485","240","164","trueblood","0.02","h","164","240","240","164","162.6685","237.1485","39360","39360","38576.5967","dc","null","null","null","null","null","null","[2,3]","430.9802571933127","443.92714086184986","502.96030591302787"
"","canvas-keyboard-response","81","118326","0.0-6.0-5.10","581","","","","","make choice","589","3","","","critical","t","d","c","164","240","162.6685","237.1485","240","164","trueblood","0.02","h","164","240","240","164","162.6685","237.1485","39360","39360","38576.5967","dc","null","null","null","null","null","null","[2,3]","","",""
"","canvas-keyboard-response","82","118346","0.0-6.0-6.10","581","","","","","clear_screen","null","null","","","critical","t","d","c","164","240","162.6685","237.1485","240","164","trueblood","0.02","h","164","240","240","164","162.6685","237.1485","39360","39360","38576.5967","dc","null","null","null","null","null","null","[2,3]","","",""
"","canvas-keyboard-response","83","118547","0.0-6.0-0.11","581","","","","","pre trial waiting period","null","null","","","critical","c","t","d","240","164","164","240","154.6796","220.0396","spektor","0.14","h","164","240","240","164","154.6796","220.0396","39360","39360","34035.6388","dc","null","null","null","null","null","null","[3,1]","532.2053708595189","104.63829310258166","510.6050227055029"
"","canvas-keyboard-response","84","118566","0.0-6.0-1.11","581","","","","","clear_screen","null","null","","","critical","c","t","d","240","164","164","240","154.6796","220.0396","spektor","0.14","h","164","240","240","164","154.6796","220.0396","39360","39360","34035.6388","dc","null","null","null","null","null","null","[3,1]","532.2053708595189","104.63829310258166","510.6050227055029"
"","canvas-keyboard-response","85","119077","0.0-6.0-2.11","581","","","","","rectangles no change","null","null","","","critical","c","t","d","240","164","164","240","154.6796","220.0396","spektor","0.14","h","164","240","240","164","154.6796","220.0396","39360","39360","34035.6388","dc","null","null","null","null","null","null","[3,1]","532.2053708595189","104.63829310258166","510.6050227055029"
"","canvas-keyboard-response","86","120413","0.0-6.0-3.11","581","","","","","rectangles with change","null","null","","","critical","c","t","d","240","164","164","240","154.6796","220.0396","spektor","0.14","h","164","240","240","164","154.6796","220.0396","39360","39360","34035.6388","dc","null","null","null","null","null","null","[3,1]","532.2053708595189","104.63829310258166","510.6050227055029"
"","canvas-keyboard-response","87","120431","0.0-6.0-4.11","581","","","","","clear_screen","null","null","","","critical","c","t","d","240","164","164","240","154.6796","220.0396","spektor","0.14","h","164","240","240","164","154.6796","220.0396","39360","39360","34035.6388","dc","null","null","null","null","null","null","[3,1]","532.2053708595189","104.63829310258166","510.6050227055029"
"","canvas-keyboard-response","88","121175","0.0-6.0-5.11","581","","","","","make choice","736","3","","","critical","c","t","d","240","164","164","240","154.6796","220.0396","spektor","0.14","h","164","240","240","164","154.6796","220.0396","39360","39360","34035.6388","dc","null","null","null","null","null","null","[3,1]","","",""
"","canvas-keyboard-response","89","121193","0.0-6.0-6.11","581","","","","","clear_screen","null","null","","","critical","c","t","d","240","164","164","240","154.6796","220.0396","spektor","0.14","h","164","240","240","164","154.6796","220.0396","39360","39360","34035.6388","dc","null","null","null","null","null","null","[3,1]","","",""
"","canvas-keyboard-response","90","121394","0.0-6.0-0.12","581","","","","","pre trial waiting period","null","null","","","critical","c","d","t","240","164","154.6796","220.0396","164","240","trueblood","0.14","h","164","240","240","164","154.6796","220.0396","39360","39360","34035.6388","td","null","null","null","null","null","null","[3,2]","515.2369496956794","436.13215603964665","425.3241872458452"
"","canvas-keyboard-response","91","121413","0.0-6.0-1.12","581","","","","","clear_screen","null","null","","","critical","c","d","t","240","164","154.6796","220.0396","164","240","trueblood","0.14","h","164","240","240","164","154.6796","220.0396","39360","39360","34035.6388","td","null","null","null","null","null","null","[3,2]","515.2369496956794","436.13215603964665","425.3241872458452"
"","canvas-keyboard-response","92","121929","0.0-6.0-2.12","581","","","","","rectangles no change","null","null","","","critical","c","d","t","240","164","154.6796","220.0396","164","240","trueblood","0.14","h","164","240","240","164","154.6796","220.0396","39360","39360","34035.6388","td","null","null","null","null","null","null","[3,2]","515.2369496956794","436.13215603964665","425.3241872458452"
"","canvas-keyboard-response","93","123264","0.0-6.0-3.12","581","","","","","rectangles with change","null","null","","","critical","c","d","t","240","164","154.6796","220.0396","164","240","trueblood","0.14","h","164","240","240","164","154.6796","220.0396","39360","39360","34035.6388","td","null","null","null","null","null","null","[3,2]","515.2369496956794","436.13215603964665","425.3241872458452"
"","canvas-keyboard-response","94","123282","0.0-6.0-4.12","581","","","","","clear_screen","null","null","","","critical","c","d","t","240","164","154.6796","220.0396","164","240","trueblood","0.14","h","164","240","240","164","154.6796","220.0396","39360","39360","34035.6388","td","null","null","null","null","null","null","[3,2]","515.2369496956794","436.13215603964665","425.3241872458452"
"","canvas-keyboard-response","95","123862","0.0-6.0-5.12","581","","","","","make choice","572","3","","","critical","c","d","t","240","164","154.6796","220.0396","164","240","trueblood","0.14","h","164","240","240","164","154.6796","220.0396","39360","39360","34035.6388","td","null","null","null","null","null","null","[3,2]","","",""
"","canvas-keyboard-response","96","123880","0.0-6.0-6.12","581","","","","","clear_screen","null","null","","","critical","c","d","t","240","164","154.6796","220.0396","164","240","trueblood","0.14","h","164","240","240","164","154.6796","220.0396","39360","39360","34035.6388","td","null","null","null","null","null","null","[3,2]","","",""
"","canvas-keyboard-response","97","124081","0.0-6.0-0.13","581","","","","","pre trial waiting period","null","null","","","critical","d","t","c","240","164","240","164","164","240","spektor","0","w","240","164","164","240","240","164","39360","39360","39360","td","null","null","null","null","null","null","[2,1]","493.4535724405499","182.16465885430216","491.630260269372"
"","canvas-keyboard-response","98","124100","0.0-6.0-1.13","581","","","","","clear_screen","null","null","","","critical","d","t","c","240","164","240","164","164","240","spektor","0","w","240","164","164","240","240","164","39360","39360","39360","td","null","null","null","null","null","null","[2,1]","493.4535724405499","182.16465885430216","491.630260269372"
"","canvas-keyboard-response","99","124611","0.0-6.0-2.13","581","","","","","rectangles no change","null","null","","","critical","d","t","c","240","164","240","164","164","240","spektor","0","w","240","164","164","240","240","164","39360","39360","39360","td","null","null","null","null","null","null","[2,1]","493.4535724405499","182.16465885430216","491.630260269372"
"","canvas-keyboard-response","100","125947","0.0-6.0-3.13","581","","","","","rectangles with change","null","null","","","critical","d","t","c","240","164","240","164","164","240","spektor","0","w","240","164","164","240","240","164","39360","39360","39360","td","null","null","null","null","null","null","[2,1]","493.4535724405499","182.16465885430216","491.630260269372"
"","canvas-keyboard-response","101","125966","0.0-6.0-4.13","581","","","","","clear_screen","null","null","","","critical","d","t","c","240","164","240","164","164","240","spektor","0","w","240","164","164","240","240","164","39360","39360","39360","td","null","null","null","null","null","null","[2,1]","493.4535724405499","182.16465885430216","491.630260269372"
"","canvas-keyboard-response","102","126535","0.0-6.0-5.13","581","","","","","make choice","559","1","","","critical","d","t","c","240","164","240","164","164","240","spektor","0","w","240","164","164","240","240","164","39360","39360","39360","td","null","null","null","null","null","null","[2,1]","","",""
"","canvas-keyboard-response","103","126552","0.0-6.0-6.13","581","","","","","clear_screen","null","null","","","critical","d","t","c","240","164","240","164","164","240","spektor","0","w","240","164","164","240","240","164","39360","39360","39360","td","null","null","null","null","null","null","[2,1]","","",""
"","canvas-keyboard-response","104","126753","0.0-6.0-0.14","581","","","","","pre trial waiting period","null","null","","","critical","c","t","d","240","164","164","240","162.6685","237.1485","spektor","0.02","h","164","240","240","164","162.6685","237.1485","39360","39360","38576.5967","td","null","null","null","null","null","null","[2,3]","500.4570409884044","139.22292576730504","488.5380295992"
"","canvas-keyboard-response","105","126773","0.0-6.0-1.14","581","","","","","clear_screen","null","null","","","critical","c","t","d","240","164","164","240","162.6685","237.1485","spektor","0.02","h","164","240","240","164","162.6685","237.1485","39360","39360","38576.5967","td","null","null","null","null","null","null","[2,3]","500.4570409884044","139.22292576730504","488.5380295992"
"","canvas-keyboard-response","106","127287","0.0-6.0-2.14","581","","","","","rectangles no change","null","null","","","critical","c","t","d","240","164","164","240","162.6685","237.1485","spektor","0.02","h","164","240","240","164","162.6685","237.1485","39360","39360","38576.5967","td","null","null","null","null","null","null","[2,3]","500.4570409884044","139.22292576730504","488.5380295992"
"","canvas-keyboard-response","107","128623","0.0-6.0-3.14","581","","","","","rectangles with change","null","null","","","critical","c","t","d","240","164","164","240","162.6685","237.1485","spektor","0.02","h","164","240","240","164","162.6685","237.1485","39360","39360","38576.5967","td","null","null","null","null","null","null","[2,3]","500.4570409884044","139.22292576730504","488.5380295992"
"","canvas-keyboard-response","108","128641","0.0-6.0-4.14","581","","","","","clear_screen","null","null","","","critical","c","t","d","240","164","164","240","162.6685","237.1485","spektor","0.02","h","164","240","240","164","162.6685","237.1485","39360","39360","38576.5967","td","null","null","null","null","null","null","[2,3]","500.4570409884044","139.22292576730504","488.5380295992"
"","canvas-keyboard-response","109","129230","0.0-6.0-5.14","581","","","","","make choice","579","2","","","critical","c","t","d","240","164","164","240","162.6685","237.1485","spektor","0.02","h","164","240","240","164","162.6685","237.1485","39360","39360","38576.5967","td","null","null","null","null","null","null","[2,3]","","",""
"","canvas-keyboard-response","110","129248","0.0-6.0-6.14","581","","","","","clear_screen","null","null","","","critical","c","t","d","240","164","164","240","162.6685","237.1485","spektor","0.02","h","164","240","240","164","162.6685","237.1485","39360","39360","38576.5967","td","null","null","null","null","null","null","[2,3]","","",""
"","canvas-keyboard-response","111","129449","0.0-6.0-0.15","581","","","","","pre trial waiting period","null","null","","","catch","sh","sw","l","229","185","192","207","279","208","spektor","null","null","null","null","null","null","null","null","null","null","null","","180","200","260","200","36000","52000","[2,3]","511.3449504309411","154.65541011938447","496.1782975324009"
"","canvas-keyboard-response","112","129469","0.0-6.0-1.15","581","","","","","clear_screen","null","null","","","catch","sh","sw","l","229","185","192","207","279","208","spektor","null","null","null","null","null","null","null","null","null","null","null","","180","200","260","200","36000","52000","[2,3]","511.3449504309411","154.65541011938447","496.1782975324009"
"","canvas-keyboard-response","113","129981","0.0-6.0-2.15","581","","","","","rectangles no change","null","null","","","catch","sh","sw","l","229","185","192","207","279","208","spektor","null","null","null","null","null","null","null","null","null","null","null","","180","200","260","200","36000","52000","[2,3]","511.3449504309411","154.65541011938447","496.1782975324009"
"","canvas-keyboard-response","114","131318","0.0-6.0-3.15","581","","","","","rectangles with change","null","null","","","catch","sh","sw","l","229","185","192","207","279","208","spektor","null","null","null","null","null","null","null","null","null","null","null","","180","200","260","200","36000","52000","[2,3]","511.3449504309411","154.65541011938447","496.1782975324009"
"","canvas-keyboard-response","115","131340","0.0-6.0-4.15","581","","","","","clear_screen","null","null","","","catch","sh","sw","l","229","185","192","207","279","208","spektor","null","null","null","null","null","null","null","null","null","null","null","","180","200","260","200","36000","52000","[2,3]","511.3449504309411","154.65541011938447","496.1782975324009"
"","canvas-keyboard-response","116","131670","0.0-6.0-5.15","581","","","","","make choice","321","3","","","catch","sh","sw","l","229","185","192","207","279","208","spektor","null","null","null","null","null","null","null","null","null","null","null","","180","200","260","200","36000","52000","[2,3]","","",""
"","canvas-keyboard-response","117","131688","0.0-6.0-6.15","581","","","","","clear_screen","null","null","","","catch","sh","sw","l","229","185","192","207","279","208","spektor","null","null","null","null","null","null","null","null","null","null","null","","180","200","260","200","36000","52000","[2,3]","","",""
"","canvas-keyboard-response","118","131889","0.0-6.0-0.16","581","","","","","pre trial waiting period","null","null","","","critical","t","c","d","240","164","164","240","227.1683","158.0083","trueblood","0.09","w","240","164","164","240","227.1683","158.0083","39360","39360","35894.4834","td","null","null","null","null","null","null","[1,3]","503.78882983566467","435.4693477846487","485.3360198437268"
"","canvas-keyboard-response","119","131908","0.0-6.0-1.16","581","","","","","clear_screen","null","null","","","critical","t","c","d","240","164","164","240","227.1683","158.0083","trueblood","0.09","w","240","164","164","240","227.1683","158.0083","39360","39360","35894.4834","td","null","null","null","null","null","null","[1,3]","503.78882983566467","435.4693477846487","485.3360198437268"
"","canvas-keyboard-response","120","132423","0.0-6.0-2.16","581","","","","","rectangles no change","null","null","","","critical","t","c","d","240","164","164","240","227.1683","158.0083","trueblood","0.09","w","240","164","164","240","227.1683","158.0083","39360","39360","35894.4834","td","null","null","null","null","null","null","[1,3]","503.78882983566467","435.4693477846487","485.3360198437268"
"","canvas-keyboard-response","121","133758","0.0-6.0-3.16","581","","","","","rectangles with change","null","null","","","critical","t","c","d","240","164","164","240","227.1683","158.0083","trueblood","0.09","w","240","164","164","240","227.1683","158.0083","39360","39360","35894.4834","td","null","null","null","null","null","null","[1,3]","503.78882983566467","435.4693477846487","485.3360198437268"
"","canvas-keyboard-response","122","133776","0.0-6.0-4.16","581","","","","","clear_screen","null","null","","","critical","t","c","d","240","164","164","240","227.1683","158.0083","trueblood","0.09","w","240","164","164","240","227.1683","158.0083","39360","39360","35894.4834","td","null","null","null","null","null","null","[1,3]","503.78882983566467","435.4693477846487","485.3360198437268"
"","canvas-keyboard-response","123","134110","0.0-6.0-5.16","581","","","","","make choice","326","1","","","critical","t","c","d","240","164","164","240","227.1683","158.0083","trueblood","0.09","w","240","164","164","240","227.1683","158.0083","39360","39360","35894.4834","td","null","null","null","null","null","null","[1,3]","","",""
"","canvas-keyboard-response","124","134130","0.0-6.0-6.16","581","","","","","clear_screen","null","null","","","critical","t","c","d","240","164","164","240","227.1683","158.0083","trueblood","0.09","w","240","164","164","240","227.1683","158.0083","39360","39360","35894.4834","td","null","null","null","null","null","null","[1,3]","","",""
"","canvas-keyboard-response","125","134331","0.0-6.0-0.17","581","","","","","pre trial waiting period","null","null","","","critical","c","t","d","164","240","240","164","232.8713","160.6713","trueblood","0.05","w","240","164","164","240","232.8713","160.6713","39360","39360","37415.7294","dc","null","null","null","null","null","null","[3,1]","440.18031496519706","482.3574326570881","473.06022604500197"
"","canvas-keyboard-response","126","134350","0.0-6.0-1.17","581","","","","","clear_screen","null","null","","","critical","c","t","d","164","240","240","164","232.8713","160.6713","trueblood","0.05","w","240","164","164","240","232.8713","160.6713","39360","39360","37415.7294","dc","null","null","null","null","null","null","[3,1]","440.18031496519706","482.3574326570881","473.06022604500197"
"","canvas-keyboard-response","127","134860","0.0-6.0-2.17","581","","","","","rectangles no change","null","null","","","critical","c","t","d","164","240","240","164","232.8713","160.6713","trueblood","0.05","w","240","164","164","240","232.8713","160.6713","39360","39360","37415.7294","dc","null","null","null","null","null","null","[3,1]","440.18031496519706","482.3574326570881","473.06022604500197"
"","canvas-keyboard-response","128","136197","0.0-6.0-3.17","581","","","","","rectangles with change","null","null","","","critical","c","t","d","164","240","240","164","232.8713","160.6713","trueblood","0.05","w","240","164","164","240","232.8713","160.6713","39360","39360","37415.7294","dc","null","null","null","null","null","null","[3,1]","440.18031496519706","482.3574326570881","473.06022604500197"
"","canvas-keyboard-response","129","136218","0.0-6.0-4.17","581","","","","","clear_screen","null","null","","","critical","c","t","d","164","240","240","164","232.8713","160.6713","trueblood","0.05","w","240","164","164","240","232.8713","160.6713","39360","39360","37415.7294","dc","null","null","null","null","null","null","[3,1]","440.18031496519706","482.3574326570881","473.06022604500197"
"","canvas-keyboard-response","130","136654","0.0-6.0-5.17","581","","","","","make choice","428","3","","","critical","c","t","d","164","240","240","164","232.8713","160.6713","trueblood","0.05","w","240","164","164","240","232.8713","160.6713","39360","39360","37415.7294","dc","null","null","null","null","null","null","[3,1]","","",""
"","canvas-keyboard-response","131","136673","0.0-6.0-6.17","581","","","","","clear_screen","null","null","","","critical","c","t","d","164","240","240","164","232.8713","160.6713","trueblood","0.05","w","240","164","164","240","232.8713","160.6713","39360","39360","37415.7294","dc","null","null","null","null","null","null","[3,1]","","",""
"","canvas-keyboard-response","132","136875","0.0-6.0-0.18","581","","","","","pre trial waiting period","null","null","","","catch","sh","sw","l","209","205","161","215","259","177","trueblood","null","null","null","null","null","null","null","null","null","null","null","","180","200","260","200","36000","52000","[1,3]","473.13596607551847","437.53431220738236","508.9469187658798"
"","canvas-keyboard-response","133","136897","0.0-6.0-1.18","581","","","","","clear_screen","null","null","","","catch","sh","sw","l","209","205","161","215","259","177","trueblood","null","null","null","null","null","null","null","null","null","null","null","","180","200","260","200","36000","52000","[1,3]","473.13596607551847","437.53431220738236","508.9469187658798"
"","canvas-keyboard-response","134","137409","0.0-6.0-2.18","581","","","","","rectangles no change","null","null","","","catch","sh","sw","l","209","205","161","215","259","177","trueblood","null","null","null","null","null","null","null","null","null","null","null","","180","200","260","200","36000","52000","[1,3]","473.13596607551847","437.53431220738236","508.9469187658798"
"","canvas-keyboard-response","135","138745","0.0-6.0-3.18","581","","","","","rectangles with change","null","null","","","catch","sh","sw","l","209","205","161","215","259","177","trueblood","null","null","null","null","null","null","null","null","null","null","null","","180","200","260","200","36000","52000","[1,3]","473.13596607551847","437.53431220738236","508.9469187658798"
"","canvas-keyboard-response","136","138766","0.0-6.0-4.18","581","","","","","clear_screen","null","null","","","catch","sh","sw","l","209","205","161","215","259","177","trueblood","null","null","null","null","null","null","null","null","null","null","null","","180","200","260","200","36000","52000","[1,3]","473.13596607551847","437.53431220738236","508.9469187658798"
"","canvas-keyboard-response","137","139478","0.0-6.0-5.18","581","","","","","make choice","704","3","","","catch","sh","sw","l","209","205","161","215","259","177","trueblood","null","null","null","null","null","null","null","null","null","null","null","","180","200","260","200","36000","52000","[1,3]","","",""
"","canvas-keyboard-response","138","139497","0.0-6.0-6.18","581","","","","","clear_screen","null","null","","","catch","sh","sw","l","209","205","161","215","259","177","trueblood","null","null","null","null","null","null","null","null","null","null","null","","180","200","260","200","36000","52000","[1,3]","","",""
"","canvas-keyboard-response","139","139699","0.0-6.0-0.19","581","","","","","pre trial waiting period","null","null","","","critical","t","c","d","164","240","240","164","164","240","spektor","0","h","164","240","240","164","164","240","39360","39360","39360","td","null","null","null","null","null","null","[1,3]","498.7944545702135","176.2084076783392","495.2465053560993"
"","canvas-keyboard-response","140","139720","0.0-6.0-1.19","581","","","","","clear_screen","null","null","","","critical","t","c","d","164","240","240","164","164","240","spektor","0","h","164","240","240","164","164","240","39360","39360","39360","td","null","null","null","null","null","null","[1,3]","498.7944545702135","176.2084076783392","495.2465053560993"
"","canvas-keyboard-response","141","140234","0.0-6.0-2.19","581","","","","","rectangles no change","null","null","","","critical","t","c","d","164","240","240","164","164","240","spektor","0","h","164","240","240","164","164","240","39360","39360","39360","td","null","null","null","null","null","null","[1,3]","498.7944545702135","176.2084076783392","495.2465053560993"
"","canvas-keyboard-response","142","141571","0.0-6.0-3.19","581","","","","","rectangles with change","null","null","","","critical","t","c","d","164","240","240","164","164","240","spektor","0","h","164","240","240","164","164","240","39360","39360","39360","td","null","null","null","null","null","null","[1,3]","498.7944545702135","176.2084076783392","495.2465053560993"
"","canvas-keyboard-response","143","141590","0.0-6.0-4.19","581","","","","","clear_screen","null","null","","","critical","t","c","d","164","240","240","164","164","240","spektor","0","h","164","240","240","164","164","240","39360","39360","39360","td","null","null","null","null","null","null","[1,3]","498.7944545702135","176.2084076783392","495.2465053560993"
"","canvas-keyboard-response","144","142063","0.0-6.0-5.19","581","","","","","make choice","465","3","","","critical","t","c","d","164","240","240","164","164","240","spektor","0","h","164","240","240","164","164","240","39360","39360","39360","td","null","null","null","null","null","null","[1,3]","","",""
"","canvas-keyboard-response","145","142081","0.0-6.0-6.19","581","","","","","clear_screen","null","null","","","critical","t","c","d","164","240","240","164","164","240","spektor","0","h","164","240","240","164","164","240","39360","39360","39360","td","null","null","null","null","null","null","[1,3]","","",""
"","canvas-keyboard-response","146","142283","0.0-6.0-0.20","581","","","","","pre trial waiting period","null","null","","","catch","sh","sw","l","223","152","213","187","238","273","trueblood","null","null","null","null","null","null","null","null","null","null","null","","180","200","260","200","36000","52000","[2,3]","520.7107618730792","458.187027075406","411.4417818917551"
"","canvas-keyboard-response","147","142303","0.0-6.0-1.20","581","","","","","clear_screen","null","null","","","catch","sh","sw","l","223","152","213","187","238","273","trueblood","null","null","null","null","null","null","null","null","null","null","null","","180","200","260","200","36000","52000","[2,3]","520.7107618730792","458.187027075406","411.4417818917551"
"","canvas-keyboard-response","148","142815","0.0-6.0-2.20","581","","","","","rectangles no change","null","null","","","catch","sh","sw","l","223","152","213","187","238","273","trueblood","null","null","null","null","null","null","null","null","null","null","null","","180","200","260","200","36000","52000","[2,3]","520.7107618730792","458.187027075406","411.4417818917551"
"","canvas-keyboard-response","149","144150","0.0-6.0-3.20","581","","","","","rectangles with change","null","null","","","catch","sh","sw","l","223","152","213","187","238","273","trueblood","null","null","null","null","null","null","null","null","null","null","null","","180","200","260","200","36000","52000","[2,3]","520.7107618730792","458.187027075406","411.4417818917551"
"","canvas-keyboard-response","150","144169","0.0-6.0-4.20","581","","","","","clear_screen","null","null","","","catch","sh","sw","l","223","152","213","187","238","273","trueblood","null","null","null","null","null","null","null","null","null","null","null","","180","200","260","200","36000","52000","[2,3]","520.7107618730792","458.187027075406","411.4417818917551"
"","canvas-keyboard-response","151","144510","0.0-6.0-5.20","581","","","","","make choice","332","3","","","catch","sh","sw","l","223","152","213","187","238","273","trueblood","null","null","null","null","null","null","null","null","null","null","null","","180","200","260","200","36000","52000","[2,3]","","",""
"","canvas-keyboard-response","152","144530","0.0-6.0-6.20","581","","","","","clear_screen","null","null","","","catch","sh","sw","l","223","152","213","187","238","273","trueblood","null","null","null","null","null","null","null","null","null","null","null","","180","200","260","200","36000","52000","[2,3]","","",""
"","canvas-keyboard-response","153","144731","0.0-6.0-0.21","581","","","","","pre trial waiting period","null","null","","","catch","l","sw","sh","281","213","192","189","183","218","spektor","null","null","null","null","null","null","null","null","null","null","null","","180","200","260","200","36000","52000","[1,3]","502.2128095631467","144.76348699058153","473.06936724580476"
"","canvas-keyboard-response","154","144751","0.0-6.0-1.21","581","","","","","clear_screen","null","null","","","catch","l","sw","sh","281","213","192","189","183","218","spektor","null","null","null","null","null","null","null","null","null","null","null","","180","200","260","200","36000","52000","[1,3]","502.2128095631467","144.76348699058153","473.06936724580476"
"","canvas-keyboard-response","155","145261","0.0-6.0-2.21","581","","","","","rectangles no change","null","null","","","catch","l","sw","sh","281","213","192","189","183","218","spektor","null","null","null","null","null","null","null","null","null","null","null","","180","200","260","200","36000","52000","[1,3]","502.2128095631467","144.76348699058153","473.06936724580476"
"","canvas-keyboard-response","156","146597","0.0-6.0-3.21","581","","","","","rectangles with change","null","null","","","catch","l","sw","sh","281","213","192","189","183","218","spektor","null","null","null","null","null","null","null","null","null","null","null","","180","200","260","200","36000","52000","[1,3]","502.2128095631467","144.76348699058153","473.06936724580476"
"","canvas-keyboard-response","157","146616","0.0-6.0-4.21","581","","","","","clear_screen","null","null","","","catch","l","sw","sh","281","213","192","189","183","218","spektor","null","null","null","null","null","null","null","null","null","null","null","","180","200","260","200","36000","52000","[1,3]","502.2128095631467","144.76348699058153","473.06936724580476"
"","canvas-keyboard-response","158","147014","0.0-6.0-5.21","581","","","","","make choice","392","1","","","catch","l","sw","sh","281","213","192","189","183","218","spektor","null","null","null","null","null","null","null","null","null","null","null","","180","200","260","200","36000","52000","[1,3]","","",""
"","canvas-keyboard-response","159","147032","0.0-6.0-6.21","581","","","","","clear_screen","null","null","","","catch","l","sw","sh","281","213","192","189","183","218","spektor","null","null","null","null","null","null","null","null","null","null","null","","180","200","260","200","36000","52000","[1,3]","","",""
"","canvas-keyboard-response","160","147233","0.0-6.0-0.22","581","","","","","pre trial waiting period","null","null","","","critical","d","t","c","158.0083","227.1683","164","240","240","164","spektor","0.09","h","164","240","240","164","158.0083","227.1683","39360","39360","35894.4834","tc","null","null","null","null","null","null","[2,3]","491.4274684506479","114.01462717135976","502.97006497696174"
"","canvas-keyboard-response","161","147252","0.0-6.0-1.22","581","","","","","clear_screen","null","null","","","critical","d","t","c","158.0083","227.1683","164","240","240","164","spektor","0.09","h","164","240","240","164","158.0083","227.1683","39360","39360","35894.4834","tc","null","null","null","null","null","null","[2,3]","491.4274684506479","114.01462717135976","502.97006497696174"
"","canvas-keyboard-response","162","147762","0.0-6.0-2.22","581","","","","","rectangles no change","null","null","","","critical","d","t","c","158.0083","227.1683","164","240","240","164","spektor","0.09","h","164","240","240","164","158.0083","227.1683","39360","39360","35894.4834","tc","null","null","null","null","null","null","[2,3]","491.4274684506479","114.01462717135976","502.97006497696174"
"","canvas-keyboard-response","163","149098","0.0-6.0-3.22","581","","","","","rectangles with change","null","null","","","critical","d","t","c","158.0083","227.1683","164","240","240","164","spektor","0.09","h","164","240","240","164","158.0083","227.1683","39360","39360","35894.4834","tc","null","null","null","null","null","null","[2,3]","491.4274684506479","114.01462717135976","502.97006497696174"
"","canvas-keyboard-response","164","149120","0.0-6.0-4.22","581","","","","","clear_screen","null","null","","","critical","d","t","c","158.0083","227.1683","164","240","240","164","spektor","0.09","h","164","240","240","164","158.0083","227.1683","39360","39360","35894.4834","tc","null","null","null","null","null","null","[2,3]","491.4274684506479","114.01462717135976","502.97006497696174"
"","canvas-keyboard-response","165","149655","0.0-6.0-5.22","581","","","","","make choice","528","3","","","critical","d","t","c","158.0083","227.1683","164","240","240","164","spektor","0.09","h","164","240","240","164","158.0083","227.1683","39360","39360","35894.4834","tc","null","null","null","null","null","null","[2,3]","","",""
"","canvas-keyboard-response","166","149673","0.0-6.0-6.22","581","","","","","clear_screen","null","null","","","critical","d","t","c","158.0083","227.1683","164","240","240","164","spektor","0.09","h","164","240","240","164","158.0083","227.1683","39360","39360","35894.4834","tc","null","null","null","null","null","null","[2,3]","","",""
"","canvas-keyboard-response","167","149874","0.0-6.0-0.23","581","","","","","pre trial waiting period","null","null","","","catch","sw","sh","l","180","200","205","158","193","234","trueblood","null","null","null","null","null","null","null","null","null","null","null","","180","200","260","200","36000","52000","[2,3]","462.5667286253254","504.5300084507994","448.7398523015259"
"","canvas-keyboard-response","168","149892","0.0-6.0-1.23","581","","","","","clear_screen","null","null","","","catch","sw","sh","l","180","200","205","158","193","234","trueblood","null","null","null","null","null","null","null","null","null","null","null","","180","200","260","200","36000","52000","[2,3]","462.5667286253254","504.5300084507994","448.7398523015259"
"","canvas-keyboard-response","169","150406","0.0-6.0-2.23","581","","","","","rectangles no change","null","null","","","catch","sw","sh","l","180","200","205","158","193","234","trueblood","null","null","null","null","null","null","null","null","null","null","null","","180","200","260","200","36000","52000","[2,3]","462.5667286253254","504.5300084507994","448.7398523015259"
"","canvas-keyboard-response","170","151740","0.0-6.0-3.23","581","","","","","rectangles with change","null","null","","","catch","sw","sh","l","180","200","205","158","193","234","trueblood","null","null","null","null","null","null","null","null","null","null","null","","180","200","260","200","36000","52000","[2,3]","462.5667286253254","504.5300084507994","448.7398523015259"
"","canvas-keyboard-response","171","151758","0.0-6.0-4.23","581","","","","","clear_screen","null","null","","","catch","sw","sh","l","180","200","205","158","193","234","trueblood","null","null","null","null","null","null","null","null","null","null","null","","180","200","260","200","36000","52000","[2,3]","462.5667286253254","504.5300084507994","448.7398523015259"
"","canvas-keyboard-response","172","152533","0.0-6.0-5.23","581","","","","","make choice","766","3","","","catch","sw","sh","l","180","200","205","158","193","234","trueblood","null","null","null","null","null","null","null","null","null","null","null","","180","200","260","200","36000","52000","[2,3]","","",""
"","canvas-keyboard-response","173","152552","0.0-6.0-6.23","581","","","","","clear_screen","null","null","","","catch","sw","sh","l","180","200","205","158","193","234","trueblood","null","null","null","null","null","null","null","null","null","null","null","","180","200","260","200","36000","52000","[2,3]","","",""
"","canvas-keyboard-response","174","152753","0.0-6.0-0.24","581","","","","","pre trial waiting period","null","null","","","critical","d","t","c","237.1485","162.6685","240","164","164","240","spektor","0.02","w","240","164","164","240","237.1485","162.6685","39360","39360","38576.5967","dc","null","null","null","null","null","null","[1,3]","534.920446255189","192.68529423467706","461.16674309654763"
"","canvas-keyboard-response","175","152772","0.0-6.0-1.24","581","","","","","clear_screen","null","null","","","critical","d","t","c","237.1485","162.6685","240","164","164","240","spektor","0.02","w","240","164","164","240","237.1485","162.6685","39360","39360","38576.5967","dc","null","null","null","null","null","null","[1,3]","534.920446255189","192.68529423467706","461.16674309654763"
"","canvas-keyboard-response","176","153284","0.0-6.0-2.24","581","","","","","rectangles no change","null","null","","","critical","d","t","c","237.1485","162.6685","240","164","164","240","spektor","0.02","w","240","164","164","240","237.1485","162.6685","39360","39360","38576.5967","dc","null","null","null","null","null","null","[1,3]","534.920446255189","192.68529423467706","461.16674309654763"
"","canvas-keyboard-response","177","154619","0.0-6.0-3.24","581","","","","","rectangles with change","null","null","","","critical","d","t","c","237.1485","162.6685","240","164","164","240","spektor","0.02","w","240","164","164","240","237.1485","162.6685","39360","39360","38576.5967","dc","null","null","null","null","null","null","[1,3]","534.920446255189","192.68529423467706","461.16674309654763"
"","canvas-keyboard-response","178","154638","0.0-6.0-4.24","581","","","","","clear_screen","null","null","","","critical","d","t","c","237.1485","162.6685","240","164","164","240","spektor","0.02","w","240","164","164","240","237.1485","162.6685","39360","39360","38576.5967","dc","null","null","null","null","null","null","[1,3]","534.920446255189","192.68529423467706","461.16674309654763"
"","canvas-keyboard-response","179","155006","0.0-6.0-5.24","581","","","","","make choice","360","1","","","critical","d","t","c","237.1485","162.6685","240","164","164","240","spektor","0.02","w","240","164","164","240","237.1485","162.6685","39360","39360","38576.5967","dc","null","null","null","null","null","null","[1,3]","","",""
"","canvas-keyboard-response","180","155024","0.0-6.0-6.24","581","","","","","clear_screen","null","null","","","critical","d","t","c","237.1485","162.6685","240","164","164","240","spektor","0.02","w","240","164","164","240","237.1485","162.6685","39360","39360","38576.5967","dc","null","null","null","null","null","null","[1,3]","","",""
"","canvas-keyboard-response","181","155226","0.0-6.0-0.25","581","","","","","pre trial waiting period","null","null","","","critical","t","d","c","164","240","164","240","240","164","trueblood","0","h","164","240","240","164","164","240","39360","39360","39360","tc","null","null","null","null","null","null","[1,3]","420.5640799406284","467.1304936157464","517.0019286862442"
"","canvas-keyboard-response","182","155246","0.0-6.0-1.25","581","","","","","clear_screen","null","null","","","critical","t","d","c","164","240","164","240","240","164","trueblood","0","h","164","240","240","164","164","240","39360","39360","39360","tc","null","null","null","null","null","null","[1,3]","420.5640799406284","467.1304936157464","517.0019286862442"
"","canvas-keyboard-response","183","155756","0.0-6.0-2.25","581","","","","","rectangles no change","null","null","","","critical","t","d","c","164","240","164","240","240","164","trueblood","0","h","164","240","240","164","164","240","39360","39360","39360","tc","null","null","null","null","null","null","[1,3]","420.5640799406284","467.1304936157464","517.0019286862442"
"","canvas-keyboard-response","184","157091","0.0-6.0-3.25","581","","","","","rectangles with change","null","null","","","critical","t","d","c","164","240","164","240","240","164","trueblood","0","h","164","240","240","164","164","240","39360","39360","39360","tc","null","null","null","null","null","null","[1,3]","420.5640799406284","467.1304936157464","517.0019286862442"
"","canvas-keyboard-response","185","157110","0.0-6.0-4.25","581","","","","","clear_screen","null","null","","","critical","t","d","c","164","240","164","240","240","164","trueblood","0","h","164","240","240","164","164","240","39360","39360","39360","tc","null","null","null","null","null","null","[1,3]","420.5640799406284","467.1304936157464","517.0019286862442"
"","canvas-keyboard-response","186","157494","0.0-6.0-5.25","581","","","","","make choice","375","3","","","critical","t","d","c","164","240","164","240","240","164","trueblood","0","h","164","240","240","164","164","240","39360","39360","39360","tc","null","null","null","null","null","null","[1,3]","","",""
"","canvas-keyboard-response","187","157513","0.0-6.0-6.25","581","","","","","clear_screen","null","null","","","critical","t","d","c","164","240","164","240","240","164","trueblood","0","h","164","240","240","164","164","240","39360","39360","39360","tc","null","null","null","null","null","null","[1,3]","","",""
"","canvas-keyboard-response","188","157714","0.0-6.0-0.26","581","","","","","pre trial waiting period","null","null","","","critical","d","t","c","164","240","164","240","240","164","trueblood","0","h","164","240","240","164","164","240","39360","39360","39360","td","null","null","null","null","null","null","[2,1]","428.03450571311697","440.44084657259987","497.25369976648096"
"","canvas-keyboard-response","189","157734","0.0-6.0-1.26","581","","","","","clear_screen","null","null","","","critical","d","t","c","164","240","164","240","240","164","trueblood","0","h","164","240","240","164","164","240","39360","39360","39360","td","null","null","null","null","null","null","[2,1]","428.03450571311697","440.44084657259987","497.25369976648096"
"","canvas-keyboard-response","190","158243","0.0-6.0-2.26","581","","","","","rectangles no change","null","null","","","critical","d","t","c","164","240","164","240","240","164","trueblood","0","h","164","240","240","164","164","240","39360","39360","39360","td","null","null","null","null","null","null","[2,1]","428.03450571311697","440.44084657259987","497.25369976648096"
"","canvas-keyboard-response","191","159578","0.0-6.0-3.26","581","","","","","rectangles with change","null","null","","","critical","d","t","c","164","240","164","240","240","164","trueblood","0","h","164","240","240","164","164","240","39360","39360","39360","td","null","null","null","null","null","null","[2,1]","428.03450571311697","440.44084657259987","497.25369976648096"
"","canvas-keyboard-response","192","159601","0.0-6.0-4.26","581","","","","","clear_screen","null","null","","","critical","d","t","c","164","240","164","240","240","164","trueblood","0","h","164","240","240","164","164","240","39360","39360","39360","td","null","null","null","null","null","null","[2,1]","428.03450571311697","440.44084657259987","497.25369976648096"
"","canvas-keyboard-response","193","159749","0.0-6.0-5.26","581","","","","","make choice","140","2","","","critical","d","t","c","164","240","164","240","240","164","trueblood","0","h","164","240","240","164","164","240","39360","39360","39360","td","null","null","null","null","null","null","[2,1]","","",""
"","canvas-keyboard-response","194","159768","0.0-6.0-6.26","581","","","","","clear_screen","null","null","","","critical","d","t","c","164","240","164","240","240","164","trueblood","0","h","164","240","240","164","164","240","39360","39360","39360","td","null","null","null","null","null","null","[2,1]","","",""
"","canvas-keyboard-response","195","159969","0.0-6.0-0.27","581","","","","","pre trial waiting period","null","null","","","catch","l","sw","sh","221","206","184","220","172","186","spektor","null","null","null","null","null","null","null","null","null","null","null","","180","200","260","200","36000","52000","[1,2]","519.2332382965661","159.68000457050442","501.8619957897685"
"","canvas-keyboard-response","196","159989","0.0-6.0-1.27","581","","","","","clear_screen","null","null","","","catch","l","sw","sh","221","206","184","220","172","186","spektor","null","null","null","null","null","null","null","null","null","null","null","","180","200","260","200","36000","52000","[1,2]","519.2332382965661","159.68000457050442","501.8619957897685"
"","canvas-keyboard-response","197","160501","0.0-6.0-2.27","581","","","","","rectangles no change","null","null","","","catch","l","sw","sh","221","206","184","220","172","186","spektor","null","null","null","null","null","null","null","null","null","null","null","","180","200","260","200","36000","52000","[1,2]","519.2332382965661","159.68000457050442","501.8619957897685"
"","canvas-keyboard-response","198","161836","0.0-6.0-3.27","581","","","","","rectangles with change","null","null","","","catch","l","sw","sh","221","206","184","220","172","186","spektor","null","null","null","null","null","null","null","null","null","null","null","","180","200","260","200","36000","52000","[1,2]","519.2332382965661","159.68000457050442","501.8619957897685"
"","canvas-keyboard-response","199","161854","0.0-6.0-4.27","581","","","","","clear_screen","null","null","","","catch","l","sw","sh","221","206","184","220","172","186","spektor","null","null","null","null","null","null","null","null","null","null","null","","180","200","260","200","36000","52000","[1,2]","519.2332382965661","159.68000457050442","501.8619957897685"
"","canvas-keyboard-response","200","162190","0.0-6.0-5.27","581","","","","","make choice","327","1","","","catch","l","sw","sh","221","206","184","220","172","186","spektor","null","null","null","null","null","null","null","null","null","null","null","","180","200","260","200","36000","52000","[1,2]","","",""
"","canvas-keyboard-response","201","162208","0.0-6.0-6.27","581","","","","","clear_screen","null","null","","","catch","l","sw","sh","221","206","184","220","172","186","spektor","null","null","null","null","null","null","null","null","null","null","null","","180","200","260","200","36000","52000","[1,2]","","",""
"","canvas-keyboard-response","202","162410","0.0-6.0-0.28","581","","","","","pre trial waiting period","null","null","","","catch","sw","sh","l","180","200","216","142","284","172","trueblood","null","null","null","null","null","null","null","null","null","null","null","","180","200","260","200","36000","52000","[1,3]","485.22883762892286","509.71108927623","498.20298133374354"
"","canvas-keyboard-response","203","162429","0.0-6.0-1.28","581","","","","","clear_screen","null","null","","","catch","sw","sh","l","180","200","216","142","284","172","trueblood","null","null","null","null","null","null","null","null","null","null","null","","180","200","260","200","36000","52000","[1,3]","485.22883762892286","509.71108927623","498.20298133374354"
"","canvas-keyboard-response","204","162941","0.0-6.0-2.28","581","","","","","rectangles no change","null","null","","","catch","sw","sh","l","180","200","216","142","284","172","trueblood","null","null","null","null","null","null","null","null","null","null","null","","180","200","260","200","36000","52000","[1,3]","485.22883762892286","509.71108927623","498.20298133374354"
"","canvas-keyboard-response","205","164278","0.0-6.0-3.28","581","","","","","rectangles with change","null","null","","","catch","sw","sh","l","180","200","216","142","284","172","trueblood","null","null","null","null","null","null","null","null","null","null","null","","180","200","260","200","36000","52000","[1,3]","485.22883762892286","509.71108927623","498.20298133374354"
"","canvas-keyboard-response","206","164297","0.0-6.0-4.28","581","","","","","clear_screen","null","null","","","catch","sw","sh","l","180","200","216","142","284","172","trueblood","null","null","null","null","null","null","null","null","null","null","null","","180","200","260","200","36000","52000","[1,3]","485.22883762892286","509.71108927623","498.20298133374354"
"","canvas-keyboard-response","207","164574","0.0-6.0-5.28","581","","","","","make choice","270","3","","","catch","sw","sh","l","180","200","216","142","284","172","trueblood","null","null","null","null","null","null","null","null","null","null","null","","180","200","260","200","36000","52000","[1,3]","","",""
"","canvas-keyboard-response","208","164593","0.0-6.0-6.28","581","","","","","clear_screen","null","null","","","catch","sw","sh","l","180","200","216","142","284","172","trueblood","null","null","null","null","null","null","null","null","null","null","null","","180","200","260","200","36000","52000","[1,3]","","",""
"","canvas-keyboard-response","209","164793","0.0-6.0-0.29","581","","","","","pre trial waiting period","null","null","","","critical","c","d","t","240","164","154.6796","220.0396","164","240","spektor","0.14","h","164","240","240","164","154.6796","220.0396","39360","39360","34035.6388","tc","null","null","null","null","null","null","[3,1]","535.337307656695","126.85186436811048","473.79668046223003"
"","canvas-keyboard-response","210","164813","0.0-6.0-1.29","581","","","","","clear_screen","null","null","","","critical","c","d","t","240","164","154.6796","220.0396","164","240","spektor","0.14","h","164","240","240","164","154.6796","220.0396","39360","39360","34035.6388","tc","null","null","null","null","null","null","[3,1]","535.337307656695","126.85186436811048","473.79668046223003"
"","canvas-keyboard-response","211","165325","0.0-6.0-2.29","581","","","","","rectangles no change","null","null","","","critical","c","d","t","240","164","154.6796","220.0396","164","240","spektor","0.14","h","164","240","240","164","154.6796","220.0396","39360","39360","34035.6388","tc","null","null","null","null","null","null","[3,1]","535.337307656695","126.85186436811048","473.79668046223003"
"","canvas-keyboard-response","212","166661","0.0-6.0-3.29","581","","","","","rectangles with change","null","null","","","critical","c","d","t","240","164","154.6796","220.0396","164","240","spektor","0.14","h","164","240","240","164","154.6796","220.0396","39360","39360","34035.6388","tc","null","null","null","null","null","null","[3,1]","535.337307656695","126.85186436811048","473.79668046223003"
"","canvas-keyboard-response","213","166680","0.0-6.0-4.29","581","","","","","clear_screen","null","null","","","critical","c","d","t","240","164","154.6796","220.0396","164","240","spektor","0.14","h","164","240","240","164","154.6796","220.0396","39360","39360","34035.6388","tc","null","null","null","null","null","null","[3,1]","535.337307656695","126.85186436811048","473.79668046223003"
"","canvas-keyboard-response","214","166933","0.0-6.0-5.29","581","","","","","make choice","246","1","","","critical","c","d","t","240","164","154.6796","220.0396","164","240","spektor","0.14","h","164","240","240","164","154.6796","220.0396","39360","39360","34035.6388","tc","null","null","null","null","null","null","[3,1]","","",""
"","canvas-keyboard-response","215","166952","0.0-6.0-6.29","581","","","","","clear_screen","null","null","","","critical","c","d","t","240","164","154.6796","220.0396","164","240","spektor","0.14","h","164","240","240","164","154.6796","220.0396","39360","39360","34035.6388","tc","null","null","null","null","null","null","[3,1]","","",""
"","canvas-keyboard-response","216","167153","0.0-6.0-0.30","581","","","","","pre trial waiting period","null","null","","","catch","sh","sw","l","239","147","182","176","180","237","spektor","null","null","null","null","null","null","null","null","null","null","null","","180","200","260","200","36000","52000","[1,3]","516.3002155861433","196.03633231890052","494.3812001865873"
"","canvas-keyboard-response","217","167172","0.0-6.0-1.30","581","","","","","clear_screen","null","null","","","catch","sh","sw","l","239","147","182","176","180","237","spektor","null","null","null","null","null","null","null","null","null","null","null","","180","200","260","200","36000","52000","[1,3]","516.3002155861433","196.03633231890052","494.3812001865873"
"","canvas-keyboard-response","218","167685","0.0-6.0-2.30","581","","","","","rectangles no change","null","null","","","catch","sh","sw","l","239","147","182","176","180","237","spektor","null","null","null","null","null","null","null","null","null","null","null","","180","200","260","200","36000","52000","[1,3]","516.3002155861433","196.03633231890052","494.3812001865873"
"","canvas-keyboard-response","219","169023","0.0-6.0-3.30","581","","","","","rectangles with change","null","null","","","catch","sh","sw","l","239","147","182","176","180","237","spektor","null","null","null","null","null","null","null","null","null","null","null","","180","200","260","200","36000","52000","[1,3]","516.3002155861433","196.03633231890052","494.3812001865873"
"","canvas-keyboard-response","220","169044","0.0-6.0-4.30","581","","","","","clear_screen","null","null","","","catch","sh","sw","l","239","147","182","176","180","237","spektor","null","null","null","null","null","null","null","null","null","null","null","","180","200","260","200","36000","52000","[1,3]","516.3002155861433","196.03633231890052","494.3812001865873"
"","canvas-keyboard-response","221","169318","0.0-6.0-5.30","581","","","","","make choice","264","3","","","catch","sh","sw","l","239","147","182","176","180","237","spektor","null","null","null","null","null","null","null","null","null","null","null","","180","200","260","200","36000","52000","[1,3]","","",""
"","canvas-keyboard-response","222","169337","0.0-6.0-6.30","581","","","","","clear_screen","null","null","","","catch","sh","sw","l","239","147","182","176","180","237","spektor","null","null","null","null","null","null","null","null","null","null","null","","180","200","260","200","36000","52000","[1,3]","","",""
"","canvas-keyboard-response","223","169538","0.0-6.0-0.31","581","","","","","pre trial waiting period","null","null","","","critical","d","t","c","160.6713","232.8713","164","240","240","164","spektor","0.05","h","164","240","240","164","160.6713","232.8713","39360","39360","37415.7294","td","null","null","null","null","null","null","[2,1]","464.45583847453264","129.5332527973923","526.7956673222438"
"","canvas-keyboard-response","224","169559","0.0-6.0-1.31","581","","","","","clear_screen","null","null","","","critical","d","t","c","160.6713","232.8713","164","240","240","164","spektor","0.05","h","164","240","240","164","160.6713","232.8713","39360","39360","37415.7294","td","null","null","null","null","null","null","[2,1]","464.45583847453264","129.5332527973923","526.7956673222438"
"","canvas-keyboard-response","225","170074","0.0-6.0-2.31","581","","","","","rectangles no change","null","null","","","critical","d","t","c","160.6713","232.8713","164","240","240","164","spektor","0.05","h","164","240","240","164","160.6713","232.8713","39360","39360","37415.7294","td","null","null","null","null","null","null","[2,1]","464.45583847453264","129.5332527973923","526.7956673222438"
"","canvas-keyboard-response","226","171409","0.0-6.0-3.31","581","","","","","rectangles with change","null","null","","","critical","d","t","c","160.6713","232.8713","164","240","240","164","spektor","0.05","h","164","240","240","164","160.6713","232.8713","39360","39360","37415.7294","td","null","null","null","null","null","null","[2,1]","464.45583847453264","129.5332527973923","526.7956673222438"
"","canvas-keyboard-response","227","171429","0.0-6.0-4.31","581","","","","","clear_screen","null","null","","","critical","d","t","c","160.6713","232.8713","164","240","240","164","spektor","0.05","h","164","240","240","164","160.6713","232.8713","39360","39360","37415.7294","td","null","null","null","null","null","null","[2,1]","464.45583847453264","129.5332527973923","526.7956673222438"
"","canvas-keyboard-response","228","171686","0.0-6.0-5.31","581","","","","","make choice","248","2","","","critical","d","t","c","160.6713","232.8713","164","240","240","164","spektor","0.05","h","164","240","240","164","160.6713","232.8713","39360","39360","37415.7294","td","null","null","null","null","null","null","[2,1]","","",""
"","canvas-keyboard-response","229","171705","0.0-6.0-6.31","581","","","","","clear_screen","null","null","","","critical","d","t","c","160.6713","232.8713","164","240","240","164","spektor","0.05","h","164","240","240","164","160.6713","232.8713","39360","39360","37415.7294","td","null","null","null","null","null","null","[2,1]","","",""
"","canvas-keyboard-response","230","171906","0.0-6.0-0.32","581","","","","","pre trial waiting period","null","null","","","catch","sw","l","sh","180","200","183","242","178","152","trueblood","null","null","null","null","null","null","null","null","null","null","null","","180","200","260","200","36000","52000","[2,3]","490.1954885267287","444.06172764140695","494.9024888801141"
"","canvas-keyboard-response","231","171931","0.0-6.0-1.32","581","","","","","clear_screen","null","null","","","catch","sw","l","sh","180","200","183","242","178","152","trueblood","null","null","null","null","null","null","null","null","null","null","null","","180","200","260","200","36000","52000","[2,3]","490.1954885267287","444.06172764140695","494.9024888801141"
"","canvas-keyboard-response","232","172442","0.0-6.0-2.32","581","","","","","rectangles no change","null","null","","","catch","sw","l","sh","180","200","183","242","178","152","trueblood","null","null","null","null","null","null","null","null","null","null","null","","180","200","260","200","36000","52000","[2,3]","490.1954885267287","444.06172764140695","494.9024888801141"
"","canvas-keyboard-response","233","173776","0.0-6.0-3.32","581","","","","","rectangles with change","null","null","","","catch","sw","l","sh","180","200","183","242","178","152","trueblood","null","null","null","null","null","null","null","null","null","null","null","","180","200","260","200","36000","52000","[2,3]","490.1954885267287","444.06172764140695","494.9024888801141"
"","canvas-keyboard-response","234","173795","0.0-6.0-4.32","581","","","","","clear_screen","null","null","","","catch","sw","l","sh","180","200","183","242","178","152","trueblood","null","null","null","null","null","null","null","null","null","null","null","","180","200","260","200","36000","52000","[2,3]","490.1954885267287","444.06172764140695","494.9024888801141"
"","canvas-keyboard-response","235","174061","0.0-6.0-5.32","581","","","","","make choice","258","2","","","catch","sw","l","sh","180","200","183","242","178","152","trueblood","null","null","null","null","null","null","null","null","null","null","null","","180","200","260","200","36000","52000","[2,3]","","",""
"","canvas-keyboard-response","236","174081","0.0-6.0-6.32","581","","","","","clear_screen","null","null","","","catch","sw","l","sh","180","200","183","242","178","152","trueblood","null","null","null","null","null","null","null","null","null","null","null","","180","200","260","200","36000","52000","[2,3]","","",""
"","canvas-keyboard-response","237","174281","0.0-6.0-0.33","581","","","","","pre trial waiting period","null","null","","","catch","sw","sh","l","180","200","180","153","218","288","trueblood","null","null","null","null","null","null","null","null","null","null","null","","180","200","260","200","36000","52000","[1,3]","446.70601581255136","475.6420438705647","400.0117251616169"
"","canvas-keyboard-response","238","174302","0.0-6.0-1.33","581","","","","","clear_screen","null","null","","","catch","sw","sh","l","180","200","180","153","218","288","trueblood","null","null","null","null","null","null","null","null","null","null","null","","180","200","260","200","36000","52000","[1,3]","446.70601581255136","475.6420438705647","400.0117251616169"
"","canvas-keyboard-response","239","174814","0.0-6.0-2.33","581","","","","","rectangles no change","null","null","","","catch","sw","sh","l","180","200","180","153","218","288","trueblood","null","null","null","null","null","null","null","null","null","null","null","","180","200","260","200","36000","52000","[1,3]","446.70601581255136","475.6420438705647","400.0117251616169"
"","canvas-keyboard-response","240","176149","0.0-6.0-3.33","581","","","","","rectangles with change","null","null","","","catch","sw","sh","l","180","200","180","153","218","288","trueblood","null","null","null","null","null","null","null","null","null","null","null","","180","200","260","200","36000","52000","[1,3]","446.70601581255136","475.6420438705647","400.0117251616169"
"","canvas-keyboard-response","241","176168","0.0-6.0-4.33","581","","","","","clear_screen","null","null","","","catch","sw","sh","l","180","200","180","153","218","288","trueblood","null","null","null","null","null","null","null","null","null","null","null","","180","200","260","200","36000","52000","[1,3]","446.70601581255136","475.6420438705647","400.0117251616169"
"","canvas-keyboard-response","242","176445","0.0-6.0-5.33","581","","","","","make choice","271","3","","","catch","sw","sh","l","180","200","180","153","218","288","trueblood","null","null","null","null","null","null","null","null","null","null","null","","180","200","260","200","36000","52000","[1,3]","","",""
"","canvas-keyboard-response","243","176465","0.0-6.0-6.33","581","","","","","clear_screen","null","null","","","catch","sw","sh","l","180","200","180","153","218","288","trueblood","null","null","null","null","null","null","null","null","null","null","null","","180","200","260","200","36000","52000","[1,3]","","",""
"","canvas-keyboard-response","244","176667","0.0-6.0-0.34","581","","","","","pre trial waiting period","null","null","","","catch","sh","sw","l","234","214","143","181","172","227","spektor","null","null","null","null","null","null","null","null","null","null","null","","180","200","260","200","36000","52000","[1,3]","478.22188159698237","144.5156359661902","479.0504528036381"
"","canvas-keyboard-response","245","176687","0.0-6.0-1.34","581","","","","","clear_screen","null","null","","","catch","sh","sw","l","234","214","143","181","172","227","spektor","null","null","null","null","null","null","null","null","null","null","null","","180","200","260","200","36000","52000","[1,3]","478.22188159698237","144.5156359661902","479.0504528036381"
"","canvas-keyboard-response","246","177197","0.0-6.0-2.34","581","","","","","rectangles no change","null","null","","","catch","sh","sw","l","234","214","143","181","172","227","spektor","null","null","null","null","null","null","null","null","null","null","null","","180","200","260","200","36000","52000","[1,3]","478.22188159698237","144.5156359661902","479.0504528036381"
"","canvas-keyboard-response","247","178532","0.0-6.0-3.34","581","","","","","rectangles with change","null","null","","","catch","sh","sw","l","234","214","143","181","172","227","spektor","null","null","null","null","null","null","null","null","null","null","null","","180","200","260","200","36000","52000","[1,3]","478.22188159698237","144.5156359661902","479.0504528036381"
"","canvas-keyboard-response","248","178550","0.0-6.0-4.34","581","","","","","clear_screen","null","null","","","catch","sh","sw","l","234","214","143","181","172","227","spektor","null","null","null","null","null","null","null","null","null","null","null","","180","200","260","200","36000","52000","[1,3]","478.22188159698237","144.5156359661902","479.0504528036381"
"","canvas-keyboard-response","249","178831","0.0-6.0-5.34","581","","","","","make choice","274","1","","","catch","sh","sw","l","234","214","143","181","172","227","spektor","null","null","null","null","null","null","null","null","null","null","null","","180","200","260","200","36000","52000","[1,3]","","",""
"","canvas-keyboard-response","250","178849","0.0-6.0-6.34","581","","","","","clear_screen","null","null","","","catch","sh","sw","l","234","214","143","181","172","227","spektor","null","null","null","null","null","null","null","null","null","null","null","","180","200","260","200","36000","52000","[1,3]","","",""
"","canvas-keyboard-response","251","179050","0.0-6.0-0.35","581","","","","","pre trial waiting period","null","null","","","critical","c","d","t","164","240","237.1485","162.6685","240","164","trueblood","0.02","w","240","164","164","240","237.1485","162.6685","39360","39360","38576.5967","dc","null","null","null","null","null","null","[2,1]","464.5499841403647","500.6576594129747","503.4595801228363"
"","canvas-keyboard-response","252","179069","0.0-6.0-1.35","581","","","","","clear_screen","null","null","","","critical","c","d","t","164","240","237.1485","162.6685","240","164","trueblood","0.02","w","240","164","164","240","237.1485","162.6685","39360","39360","38576.5967","dc","null","null","null","null","null","null","[2,1]","464.5499841403647","500.6576594129747","503.4595801228363"
"","canvas-keyboard-response","253","179580","0.0-6.0-2.35","581","","","","","rectangles no change","null","null","","","critical","c","d","t","164","240","237.1485","162.6685","240","164","trueblood","0.02","w","240","164","164","240","237.1485","162.6685","39360","39360","38576.5967","dc","null","null","null","null","null","null","[2,1]","464.5499841403647","500.6576594129747","503.4595801228363"
"","canvas-keyboard-response","254","180921","0.0-6.0-3.35","581","","","","","rectangles with change","null","null","","","critical","c","d","t","164","240","237.1485","162.6685","240","164","trueblood","0.02","w","240","164","164","240","237.1485","162.6685","39360","39360","38576.5967","dc","null","null","null","null","null","null","[2,1]","464.5499841403647","500.6576594129747","503.4595801228363"
"","canvas-keyboard-response","255","180940","0.0-6.0-4.35","581","","","","","clear_screen","null","null","","","critical","c","d","t","164","240","237.1485","162.6685","240","164","trueblood","0.02","w","240","164","164","240","237.1485","162.6685","39360","39360","38576.5967","dc","null","null","null","null","null","null","[2,1]","464.5499841403647","500.6576594129747","503.4595801228363"
"","canvas-keyboard-response","256","181654","0.0-6.0-5.35","581","","","","","make choice","708","2","","","critical","c","d","t","164","240","237.1485","162.6685","240","164","trueblood","0.02","w","240","164","164","240","237.1485","162.6685","39360","39360","38576.5967","dc","null","null","null","null","null","null","[2,1]","","",""
"","canvas-keyboard-response","257","181672","0.0-6.0-6.35","581","","","","","clear_screen","null","null","","","critical","c","d","t","164","240","237.1485","162.6685","240","164","trueblood","0.02","w","240","164","164","240","237.1485","162.6685","39360","39360","38576.5967","dc","null","null","null","null","null","null","[2,1]","","",""
"","canvas-keyboard-response","258","181873","0.0-6.0-0.36","581","","","","","pre trial waiting period","null","null","","","critical","d","t","c","227.1683","158.0083","240","164","164","240","trueblood","0.09","w","240","164","164","240","227.1683","158.0083","39360","39360","35894.4834","dc","null","null","null","null","null","null","[1,3]","492.7867819649785","469.7625829630351","445.12574391259784"
"","canvas-keyboard-response","259","181892","0.0-6.0-1.36","581","","","","","clear_screen","null","null","","","critical","d","t","c","227.1683","158.0083","240","164","164","240","trueblood","0.09","w","240","164","164","240","227.1683","158.0083","39360","39360","35894.4834","dc","null","null","null","null","null","null","[1,3]","492.7867819649785","469.7625829630351","445.12574391259784"
"","canvas-keyboard-response","260","182409","0.0-6.0-2.36","581","","","","","rectangles no change","null","null","","","critical","d","t","c","227.1683","158.0083","240","164","164","240","trueblood","0.09","w","240","164","164","240","227.1683","158.0083","39360","39360","35894.4834","dc","null","null","null","null","null","null","[1,3]","492.7867819649785","469.7625829630351","445.12574391259784"
"","canvas-keyboard-response","261","183743","0.0-6.0-3.36","581","","","","","rectangles with change","null","null","","","critical","d","t","c","227.1683","158.0083","240","164","164","240","trueblood","0.09","w","240","164","164","240","227.1683","158.0083","39360","39360","35894.4834","dc","null","null","null","null","null","null","[1,3]","492.7867819649785","469.7625829630351","445.12574391259784"
"","canvas-keyboard-response","262","183763","0.0-6.0-4.36","581","","","","","clear_screen","null","null","","","critical","d","t","c","227.1683","158.0083","240","164","164","240","trueblood","0.09","w","240","164","164","240","227.1683","158.0083","39360","39360","35894.4834","dc","null","null","null","null","null","null","[1,3]","492.7867819649785","469.7625829630351","445.12574391259784"
"","canvas-keyboard-response","263","184318","0.0-6.0-5.36","581","","","","","make choice","547","1","","","critical","d","t","c","227.1683","158.0083","240","164","164","240","trueblood","0.09","w","240","164","164","240","227.1683","158.0083","39360","39360","35894.4834","dc","null","null","null","null","null","null","[1,3]","","",""
"","canvas-keyboard-response","264","184337","0.0-6.0-6.36","581","","","","","clear_screen","null","null","","","critical","d","t","c","227.1683","158.0083","240","164","164","240","trueblood","0.09","w","240","164","164","240","227.1683","158.0083","39360","39360","35894.4834","dc","null","null","null","null","null","null","[1,3]","","",""
"","canvas-keyboard-response","265","184538","0.0-6.0-0.37","581","","","","","pre trial waiting period","null","null","","","catch","l","sh","sw","255","237","192","154","198","237","trueblood","null","null","null","null","null","null","null","null","null","null","null","","180","200","260","200","36000","52000","[1,3]","448.6168424579902","514.5778856099404","453.46712563296774"
"","canvas-keyboard-response","266","184558","0.0-6.0-1.37","581","","","","","clear_screen","null","null","","","catch","l","sh","sw","255","237","192","154","198","237","trueblood","null","null","null","null","null","null","null","null","null","null","null","","180","200","260","200","36000","52000","[1,3]","448.6168424579902","514.5778856099404","453.46712563296774"
"","canvas-keyboard-response","267","185069","0.0-6.0-2.37","581","","","","","rectangles no change","null","null","","","catch","l","sh","sw","255","237","192","154","198","237","trueblood","null","null","null","null","null","null","null","null","null","null","null","","180","200","260","200","36000","52000","[1,3]","448.6168424579902","514.5778856099404","453.46712563296774"
