"success","trial_type","trial_index","time_elapsed","internal_node_id","sub_n","timeout","failed_images","failed_audio","failed_video","screen_id","rt","response","stimulus","view_history","trial","r1","r2","r3","w1","h1","w2","h2","w3","h3","display","tdd","tdo","tw","th","cw","ch","dw","dh","ta","ca","da","probe","csls","csss","clls","clss","sa","la","probe_rects","r1yloc","r2yloc","r3yloc"
"true","fullscreen","0","2426","0.0-0.0","551","","","","","","","","","","","","","","","","","","","","","","","","","","","","","","","","","","","","","","","","","",""
"true","preload","1","2462","0.0-1.0","551","false","[]","[]","[]","img preload","","","","","","","","","","","","","","","","","","","","","","","","","","","","","","","","","","","","",""
"","survey-html-form","2","5895","0.0-2.0","551","","","","","enter-sub-number","3405","{""response"":""551""}","","","","","","","","","","","","","","","","","","","","","","","","","","","","","","","","","","",""
"","image-button-response","3","18279","0.0-3.0","551","","","","","","12278","0","consent.png","","","","","","","","","","","","","","","","","","","","","","","","","","","","","","","","","",""
"","html-button-response","4","25116","0.0-4.0","551","","","","","intro mssg","6829","0","<div style= ""font-size:25px;"" <p> <strong> Welcome! </strong><br> <p style=""color:#8B0000; font-size:25px;""><strong> Please do NOT exit full screen until you are done with the experiment. </strong> </p><p style=""font-size:25px;color:#8B0000;""> <strong> Your data will be lost <br> if you try to go back or refresh the page after the experiment starts. Feel free to click ""previous"" during the instructions, however.</strong> </p><br><p> <strong> Thanks in advance for your contribution to our research! </strong></p>","","","","","","","","","","","","","","","","","","","","","","","","","","","","","","","","","",""
"","instructions","5","71595","0.0-5.0","551","","","","","instructions","46474","","","[{""page_index"":0,""viewing_time"":9947},{""page_index"":1,""viewing_time"":4751},{""page_index"":2,""viewing_time"":2488},{""page_index"":3,""viewing_time"":21152},{""page_index"":4,""viewing_time"":3304},{""page_index"":5,""viewing_time"":1944},{""page_index"":6,""viewing_time"":2064},{""page_index"":7,""viewing_time"":824}]","","","","","","","","","","","","","","","","","","","","","","","","","","","","","","","","",""
"","canvas-keyboard-response","6","71799","0.0-6.0-0.0","551","","","","","pre trial waiting period","null","null","","","critical","d","c","t","160.6713","232.8713","240","164","164","240","trueblood","0.05","h","164","240","240","164","160.6713","232.8713","39360","39360","37415.7294","td","null","null","null","null","null","null","[3,1]","469.19750515768527","513.2555280326932","457.5394331190598"
"","canvas-keyboard-response","7","71827","0.0-6.0-1.0","551","","","","","clear_screen","null","null","","","critical","d","c","t","160.6713","232.8713","240","164","164","240","trueblood","0.05","h","164","240","240","164","160.6713","232.8713","39360","39360","37415.7294","td","null","null","null","null","null","null","[3,1]","469.19750515768527","513.2555280326932","457.5394331190598"
"","canvas-keyboard-response","8","72340","0.0-6.0-2.0","551","","","","","rectangles no change","null","null","","","critical","d","c","t","160.6713","232.8713","240","164","164","240","trueblood","0.05","h","164","240","240","164","160.6713","232.8713","39360","39360","37415.7294","td","null","null","null","null","null","null","[3,1]","469.19750515768527","513.2555280326932","457.5394331190598"
"","canvas-keyboard-response","9","73681","0.0-6.0-3.0","551","","","","","rectangles with change","null","null","","","critical","d","c","t","160.6713","232.8713","240","164","164","240","trueblood","0.05","h","164","240","240","164","160.6713","232.8713","39360","39360","37415.7294","td","null","null","null","null","null","null","[3,1]","469.19750515768527","513.2555280326932","457.5394331190598"
"","canvas-keyboard-response","10","73701","0.0-6.0-4.0","551","","","","","clear_screen","null","null","","","critical","d","c","t","160.6713","232.8713","240","164","164","240","trueblood","0.05","h","164","240","240","164","160.6713","232.8713","39360","39360","37415.7294","td","null","null","null","null","null","null","[3,1]","469.19750515768527","513.2555280326932","457.5394331190598"
"","canvas-keyboard-response","11","78967","0.0-6.0-5.0","551","","","","","make choice","5255","3","","","critical","d","c","t","160.6713","232.8713","240","164","164","240","trueblood","0.05","h","164","240","240","164","160.6713","232.8713","39360","39360","37415.7294","td","null","null","null","null","null","null","[3,1]","","",""
"","canvas-keyboard-response","12","78985","0.0-6.0-6.0","551","","","","","clear_screen","null","null","","","critical","d","c","t","160.6713","232.8713","240","164","164","240","trueblood","0.05","h","164","240","240","164","160.6713","232.8713","39360","39360","37415.7294","td","null","null","null","null","null","null","[3,1]","","",""
"","canvas-keyboard-response","13","79188","0.0-6.0-0.1","551","","","","","pre trial waiting period","null","null","","","critical","c","d","t","164","240","227.1683","158.0083","240","164","trueblood","0.09","w","240","164","164","240","227.1683","158.0083","39360","39360","35894.4834","td","null","null","null","null","null","null","[3,2]","450.38695079611574","492.96791651887423","505.6801750342719"
"","canvas-keyboard-response","14","79208","0.0-6.0-1.1","551","","","","","clear_screen","null","null","","","critical","c","d","t","164","240","227.1683","158.0083","240","164","trueblood","0.09","w","240","164","164","240","227.1683","158.0083","39360","39360","35894.4834","td","null","null","null","null","null","null","[3,2]","450.38695079611574","492.96791651887423","505.6801750342719"
"","canvas-keyboard-response","15","79718","0.0-6.0-2.1","551","","","","","rectangles no change","null","null","","","critical","c","d","t","164","240","227.1683","158.0083","240","164","trueblood","0.09","w","240","164","164","240","227.1683","158.0083","39360","39360","35894.4834","td","null","null","null","null","null","null","[3,2]","450.38695079611574","492.96791651887423","505.6801750342719"
"","canvas-keyboard-response","16","81051","0.0-6.0-3.1","551","","","","","rectangles with change","null","null","","","critical","c","d","t","164","240","227.1683","158.0083","240","164","trueblood","0.09","w","240","164","164","240","227.1683","158.0083","39360","39360","35894.4834","td","null","null","null","null","null","null","[3,2]","450.38695079611574","492.96791651887423","505.6801750342719"
"","canvas-keyboard-response","17","81070","0.0-6.0-4.1","551","","","","","clear_screen","null","null","","","critical","c","d","t","164","240","227.1683","158.0083","240","164","trueblood","0.09","w","240","164","164","240","227.1683","158.0083","39360","39360","35894.4834","td","null","null","null","null","null","null","[3,2]","450.38695079611574","492.96791651887423","505.6801750342719"
"","canvas-keyboard-response","18","83598","0.0-6.0-5.1","551","","","","","make choice","2522","3","","","critical","c","d","t","164","240","227.1683","158.0083","240","164","trueblood","0.09","w","240","164","164","240","227.1683","158.0083","39360","39360","35894.4834","td","null","null","null","null","null","null","[3,2]","","",""
"","canvas-keyboard-response","19","83617","0.0-6.0-6.1","551","","","","","clear_screen","null","null","","","critical","c","d","t","164","240","227.1683","158.0083","240","164","trueblood","0.09","w","240","164","164","240","227.1683","158.0083","39360","39360","35894.4834","td","null","null","null","null","null","null","[3,2]","","",""
"","canvas-keyboard-response","20","83819","0.0-6.0-0.2","551","","","","","pre trial waiting period","null","null","","","catch","l","sw","sh","222","178","151","235","222","147","spektor","null","null","null","null","null","null","null","null","null","null","null","","180","200","260","200","36000","52000","[1,2]","497.4995232816731","124.45130213723648","519.2059355158893"
"","canvas-keyboard-response","21","83840","0.0-6.0-1.2","551","","","","","clear_screen","null","null","","","catch","l","sw","sh","222","178","151","235","222","147","spektor","null","null","null","null","null","null","null","null","null","null","null","","180","200","260","200","36000","52000","[1,2]","497.4995232816731","124.45130213723648","519.2059355158893"
"","canvas-keyboard-response","22","84352","0.0-6.0-2.2","551","","","","","rectangles no change","null","null","","","catch","l","sw","sh","222","178","151","235","222","147","spektor","null","null","null","null","null","null","null","null","null","null","null","","180","200","260","200","36000","52000","[1,2]","497.4995232816731","124.45130213723648","519.2059355158893"
"","canvas-keyboard-response","23","85687","0.0-6.0-3.2","551","","","","","rectangles with change","null","null","","","catch","l","sw","sh","222","178","151","235","222","147","spektor","null","null","null","null","null","null","null","null","null","null","null","","180","200","260","200","36000","52000","[1,2]","497.4995232816731","124.45130213723648","519.2059355158893"
"","canvas-keyboard-response","24","85705","0.0-6.0-4.2","551","","","","","clear_screen","null","null","","","catch","l","sw","sh","222","178","151","235","222","147","spektor","null","null","null","null","null","null","null","null","null","null","null","","180","200","260","200","36000","52000","[1,2]","497.4995232816731","124.45130213723648","519.2059355158893"
"","canvas-keyboard-response","25","87094","0.0-6.0-5.2","551","","","","","make choice","1381","1","","","catch","l","sw","sh","222","178","151","235","222","147","spektor","null","null","null","null","null","null","null","null","null","null","null","","180","200","260","200","36000","52000","[1,2]","","",""
"","canvas-keyboard-response","26","87112","0.0-6.0-6.2","551","","","","","clear_screen","null","null","","","catch","l","sw","sh","222","178","151","235","222","147","spektor","null","null","null","null","null","null","null","null","null","null","null","","180","200","260","200","36000","52000","[1,2]","","",""
"","canvas-keyboard-response","27","87313","0.0-6.0-0.3","551","","","","","pre trial waiting period","null","null","","","critical","t","d","c","240","164","240","164","164","240","trueblood","0","w","240","164","164","240","240","164","39360","39360","39360","tc","null","null","null","null","null","null","[1,3]","511.2355628720433","507.06594486941896","449.6001040083164"
"","canvas-keyboard-response","28","87333","0.0-6.0-1.3","551","","","","","clear_screen","null","null","","","critical","t","d","c","240","164","240","164","164","240","trueblood","0","w","240","164","164","240","240","164","39360","39360","39360","tc","null","null","null","null","null","null","[1,3]","511.2355628720433","507.06594486941896","449.6001040083164"
"","canvas-keyboard-response","29","87845","0.0-6.0-2.3","551","","","","","rectangles no change","null","null","","","critical","t","d","c","240","164","240","164","164","240","trueblood","0","w","240","164","164","240","240","164","39360","39360","39360","tc","null","null","null","null","null","null","[1,3]","511.2355628720433","507.06594486941896","449.6001040083164"
"","canvas-keyboard-response","30","89179","0.0-6.0-3.3","551","","","","","rectangles with change","null","null","","","critical","t","d","c","240","164","240","164","164","240","trueblood","0","w","240","164","164","240","240","164","39360","39360","39360","tc","null","null","null","null","null","null","[1,3]","511.2355628720433","507.06594486941896","449.6001040083164"
"","canvas-keyboard-response","31","89198","0.0-6.0-4.3","551","","","","","clear_screen","null","null","","","critical","t","d","c","240","164","240","164","164","240","trueblood","0","w","240","164","164","240","240","164","39360","39360","39360","tc","null","null","null","null","null","null","[1,3]","511.2355628720433","507.06594486941896","449.6001040083164"
"","canvas-keyboard-response","32","90271","0.0-6.0-5.3","551","","","","","make choice","1061","3","","","critical","t","d","c","240","164","240","164","164","240","trueblood","0","w","240","164","164","240","240","164","39360","39360","39360","tc","null","null","null","null","null","null","[1,3]","","",""
"","canvas-keyboard-response","33","90289","0.0-6.0-6.3","551","","","","","clear_screen","null","null","","","critical","t","d","c","240","164","240","164","164","240","trueblood","0","w","240","164","164","240","240","164","39360","39360","39360","tc","null","null","null","null","null","null","[1,3]","","",""
"","canvas-keyboard-response","34","90490","0.0-6.0-0.4","551","","","","","pre trial waiting period","null","null","","","critical","d","t","c","227.1683","158.0083","240","164","164","240","trueblood","0.09","w","240","164","164","240","227.1683","158.0083","39360","39360","35894.4834","tc","null","null","null","null","null","null","[2,3]","514.7873205317165","484.9262085747917","434.81199292616583"
"","canvas-keyboard-response","35","90510","0.0-6.0-1.4","551","","","","","clear_screen","null","null","","","critical","d","t","c","227.1683","158.0083","240","164","164","240","trueblood","0.09","w","240","164","164","240","227.1683","158.0083","39360","39360","35894.4834","tc","null","null","null","null","null","null","[2,3]","514.7873205317165","484.9262085747917","434.81199292616583"
"","canvas-keyboard-response","36","91020","0.0-6.0-2.4","551","","","","","rectangles no change","null","null","","","critical","d","t","c","227.1683","158.0083","240","164","164","240","trueblood","0.09","w","240","164","164","240","227.1683","158.0083","39360","39360","35894.4834","tc","null","null","null","null","null","null","[2,3]","514.7873205317165","484.9262085747917","434.81199292616583"
"","canvas-keyboard-response","37","92355","0.0-6.0-3.4","551","","","","","rectangles with change","null","null","","","critical","d","t","c","227.1683","158.0083","240","164","164","240","trueblood","0.09","w","240","164","164","240","227.1683","158.0083","39360","39360","35894.4834","tc","null","null","null","null","null","null","[2,3]","514.7873205317165","484.9262085747917","434.81199292616583"
"","canvas-keyboard-response","38","92373","0.0-6.0-4.4","551","","","","","clear_screen","null","null","","","critical","d","t","c","227.1683","158.0083","240","164","164","240","trueblood","0.09","w","240","164","164","240","227.1683","158.0083","39360","39360","35894.4834","tc","null","null","null","null","null","null","[2,3]","514.7873205317165","484.9262085747917","434.81199292616583"
"","canvas-keyboard-response","39","96054","0.0-6.0-5.4","551","","","","","make choice","3676","2","","","critical","d","t","c","227.1683","158.0083","240","164","164","240","trueblood","0.09","w","240","164","164","240","227.1683","158.0083","39360","39360","35894.4834","tc","null","null","null","null","null","null","[2,3]","","",""
"","canvas-keyboard-response","40","96071","0.0-6.0-6.4","551","","","","","clear_screen","null","null","","","critical","d","t","c","227.1683","158.0083","240","164","164","240","trueblood","0.09","w","240","164","164","240","227.1683","158.0083","39360","39360","35894.4834","tc","null","null","null","null","null","null","[2,3]","","",""
"","canvas-keyboard-response","41","96273","0.0-6.0-0.5","551","","","","","pre trial waiting period","null","null","","","critical","c","d","t","240","164","164","240","164","240","spektor","0","h","164","240","240","164","164","240","39360","39360","39360","tc","null","null","null","null","null","null","[3,1]","494.97688939168785","135.88452812095915","495.5252191054863"
"","canvas-keyboard-response","42","96293","0.0-6.0-1.5","551","","","","","clear_screen","null","null","","","critical","c","d","t","240","164","164","240","164","240","spektor","0","h","164","240","240","164","164","240","39360","39360","39360","tc","null","null","null","null","null","null","[3,1]","494.97688939168785","135.88452812095915","495.5252191054863"
"","canvas-keyboard-response","43","96806","0.0-6.0-2.5","551","","","","","rectangles no change","null","null","","","critical","c","d","t","240","164","164","240","164","240","spektor","0","h","164","240","240","164","164","240","39360","39360","39360","tc","null","null","null","null","null","null","[3,1]","494.97688939168785","135.88452812095915","495.5252191054863"
"","canvas-keyboard-response","44","98142","0.0-6.0-3.5","551","","","","","rectangles with change","null","null","","","critical","c","d","t","240","164","164","240","164","240","spektor","0","h","164","240","240","164","164","240","39360","39360","39360","tc","null","null","null","null","null","null","[3,1]","494.97688939168785","135.88452812095915","495.5252191054863"
"","canvas-keyboard-response","45","98160","0.0-6.0-4.5","551","","","","","clear_screen","null","null","","","critical","c","d","t","240","164","164","240","164","240","spektor","0","h","164","240","240","164","164","240","39360","39360","39360","tc","null","null","null","null","null","null","[3,1]","494.97688939168785","135.88452812095915","495.5252191054863"
"","canvas-keyboard-response","46","99414","0.0-6.0-5.5","551","","","","","make choice","1244","1","","","critical","c","d","t","240","164","164","240","164","240","spektor","0","h","164","240","240","164","164","240","39360","39360","39360","tc","null","null","null","null","null","null","[3,1]","","",""
"","canvas-keyboard-response","47","99432","0.0-6.0-6.5","551","","","","","clear_screen","null","null","","","critical","c","d","t","240","164","164","240","164","240","spektor","0","h","164","240","240","164","164","240","39360","39360","39360","tc","null","null","null","null","null","null","[3,1]","","",""
"","canvas-keyboard-response","48","99632","0.0-6.0-0.6","551","","","","","pre trial waiting period","null","null","","","critical","c","t","d","164","240","240","164","220.0396","154.6796","trueblood","0.14","w","240","164","164","240","220.0396","154.6796","39360","39360","34035.6388","td","null","null","null","null","null","null","[2,3]","434.51294387924037","505.39674890252724","511.2017711336831"
"","canvas-keyboard-response","49","99651","0.0-6.0-1.6","551","","","","","clear_screen","null","null","","","critical","c","t","d","164","240","240","164","220.0396","154.6796","trueblood","0.14","w","240","164","164","240","220.0396","154.6796","39360","39360","34035.6388","td","null","null","null","null","null","null","[2,3]","434.51294387924037","505.39674890252724","511.2017711336831"
"","canvas-keyboard-response","50","100162","0.0-6.0-2.6","551","","","","","rectangles no change","null","null","","","critical","c","t","d","164","240","240","164","220.0396","154.6796","trueblood","0.14","w","240","164","164","240","220.0396","154.6796","39360","39360","34035.6388","td","null","null","null","null","null","null","[2,3]","434.51294387924037","505.39674890252724","511.2017711336831"
"","canvas-keyboard-response","51","101496","0.0-6.0-3.6","551","","","","","rectangles with change","null","null","","","critical","c","t","d","164","240","240","164","220.0396","154.6796","trueblood","0.14","w","240","164","164","240","220.0396","154.6796","39360","39360","34035.6388","td","null","null","null","null","null","null","[2,3]","434.51294387924037","505.39674890252724","511.2017711336831"
"","canvas-keyboard-response","52","101515","0.0-6.0-4.6","551","","","","","clear_screen","null","null","","","critical","c","t","d","164","240","240","164","220.0396","154.6796","trueblood","0.14","w","240","164","164","240","220.0396","154.6796","39360","39360","34035.6388","td","null","null","null","null","null","null","[2,3]","434.51294387924037","505.39674890252724","511.2017711336831"
"","canvas-keyboard-response","53","102446","0.0-6.0-5.6","551","","","","","make choice","922","2","","","critical","c","t","d","164","240","240","164","220.0396","154.6796","trueblood","0.14","w","240","164","164","240","220.0396","154.6796","39360","39360","34035.6388","td","null","null","null","null","null","null","[2,3]","","",""
"","canvas-keyboard-response","54","102464","0.0-6.0-6.6","551","","","","","clear_screen","null","null","","","critical","c","t","d","164","240","240","164","220.0396","154.6796","trueblood","0.14","w","240","164","164","240","220.0396","154.6796","39360","39360","34035.6388","td","null","null","null","null","null","null","[2,3]","","",""
"","canvas-keyboard-response","55","102665","0.0-6.0-0.7","551","","","","","pre trial waiting period","null","null","","","catch","sw","sh","l","180","200","160","146","190","250","spektor","null","null","null","null","null","null","null","null","null","null","null","","180","200","260","200","36000","52000","[2,3]","495.1427113380802","198.14425158680095","462.62436636802767"
"","canvas-keyboard-response","56","102685","0.0-6.0-1.7","551","","","","","clear_screen","null","null","","","catch","sw","sh","l","180","200","160","146","190","250","spektor","null","null","null","null","null","null","null","null","null","null","null","","180","200","260","200","36000","52000","[2,3]","495.1427113380802","198.14425158680095","462.62436636802767"
"","canvas-keyboard-response","57","103197","0.0-6.0-2.7","551","","","","","rectangles no change","null","null","","","catch","sw","sh","l","180","200","160","146","190","250","spektor","null","null","null","null","null","null","null","null","null","null","null","","180","200","260","200","36000","52000","[2,3]","495.1427113380802","198.14425158680095","462.62436636802767"
"","canvas-keyboard-response","58","104532","0.0-6.0-3.7","551","","","","","rectangles with change","null","null","","","catch","sw","sh","l","180","200","160","146","190","250","spektor","null","null","null","null","null","null","null","null","null","null","null","","180","200","260","200","36000","52000","[2,3]","495.1427113380802","198.14425158680095","462.62436636802767"
"","canvas-keyboard-response","59","104550","0.0-6.0-4.7","551","","","","","clear_screen","null","null","","","catch","sw","sh","l","180","200","160","146","190","250","spektor","null","null","null","null","null","null","null","null","null","null","null","","180","200","260","200","36000","52000","[2,3]","495.1427113380802","198.14425158680095","462.62436636802767"
"","canvas-keyboard-response","60","106006","0.0-6.0-5.7","551","","","","","make choice","1448","3","","","catch","sw","sh","l","180","200","160","146","190","250","spektor","null","null","null","null","null","null","null","null","null","null","null","","180","200","260","200","36000","52000","[2,3]","","",""
"","canvas-keyboard-response","61","106024","0.0-6.0-6.7","551","","","","","clear_screen","null","null","","","catch","sw","sh","l","180","200","160","146","190","250","spektor","null","null","null","null","null","null","null","null","null","null","null","","180","200","260","200","36000","52000","[2,3]","","",""
"","canvas-keyboard-response","62","106224","0.0-6.0-0.8","551","","","","","pre trial waiting period","null","null","","","critical","d","c","t","237.1485","162.6685","164","240","240","164","spektor","0.02","w","240","164","164","240","237.1485","162.6685","39360","39360","38576.5967","tc","null","null","null","null","null","null","[3,2]","540.0510784185816","125.99928751297604","494.82523153858017"
"","canvas-keyboard-response","63","106243","0.0-6.0-1.8","551","","","","","clear_screen","null","null","","","critical","d","c","t","237.1485","162.6685","164","240","240","164","spektor","0.02","w","240","164","164","240","237.1485","162.6685","39360","39360","38576.5967","tc","null","null","null","null","null","null","[3,2]","540.0510784185816","125.99928751297604","494.82523153858017"
"","canvas-keyboard-response","64","106752","0.0-6.0-2.8","551","","","","","rectangles no change","null","null","","","critical","d","c","t","237.1485","162.6685","164","240","240","164","spektor","0.02","w","240","164","164","240","237.1485","162.6685","39360","39360","38576.5967","tc","null","null","null","null","null","null","[3,2]","540.0510784185816","125.99928751297604","494.82523153858017"
"","canvas-keyboard-response","65","108086","0.0-6.0-3.8","551","","","","","rectangles with change","null","null","","","critical","d","c","t","237.1485","162.6685","164","240","240","164","spektor","0.02","w","240","164","164","240","237.1485","162.6685","39360","39360","38576.5967","tc","null","null","null","null","null","null","[3,2]","540.0510784185816","125.99928751297604","494.82523153858017"
"","canvas-keyboard-response","66","108103","0.0-6.0-4.8","551","","","","","clear_screen","null","null","","","critical","d","c","t","237.1485","162.6685","164","240","240","164","spektor","0.02","w","240","164","164","240","237.1485","162.6685","39360","39360","38576.5967","tc","null","null","null","null","null","null","[3,2]","540.0510784185816","125.99928751297604","494.82523153858017"
"","canvas-keyboard-response","67","109262","0.0-6.0-5.8","551","","","","","make choice","1151","2","","","critical","d","c","t","237.1485","162.6685","164","240","240","164","spektor","0.02","w","240","164","164","240","237.1485","162.6685","39360","39360","38576.5967","tc","null","null","null","null","null","null","[3,2]","","",""
"","canvas-keyboard-response","68","109280","0.0-6.0-6.8","551","","","","","clear_screen","null","null","","","critical","d","c","t","237.1485","162.6685","164","240","240","164","spektor","0.02","w","240","164","164","240","237.1485","162.6685","39360","39360","38576.5967","tc","null","null","null","null","null","null","[3,2]","","",""
"","canvas-keyboard-response","69","109481","0.0-6.0-0.9","551","","","","","pre trial waiting period","null","null","","","catch","sh","sw","l","208","153","176","237","207","295","trueblood","null","null","null","null","null","null","null","null","null","null","null","","180","200","260","200","36000","52000","[1,3]","479.7908025514805","429.02676555269545","420.4329303419529"
"","canvas-keyboard-response","70","109499","0.0-6.0-1.9","551","","","","","clear_screen","null","null","","","catch","sh","sw","l","208","153","176","237","207","295","trueblood","null","null","null","null","null","null","null","null","null","null","null","","180","200","260","200","36000","52000","[1,3]","479.7908025514805","429.02676555269545","420.4329303419529"
"","canvas-keyboard-response","71","110010","0.0-6.0-2.9","551","","","","","rectangles no change","null","null","","","catch","sh","sw","l","208","153","176","237","207","295","trueblood","null","null","null","null","null","null","null","null","null","null","null","","180","200","260","200","36000","52000","[1,3]","479.7908025514805","429.02676555269545","420.4329303419529"
"","canvas-keyboard-response","72","111345","0.0-6.0-3.9","551","","","","","rectangles with change","null","null","","","catch","sh","sw","l","208","153","176","237","207","295","trueblood","null","null","null","null","null","null","null","null","null","null","null","","180","200","260","200","36000","52000","[1,3]","479.7908025514805","429.02676555269545","420.4329303419529"
"","canvas-keyboard-response","73","111362","0.0-6.0-4.9","551","","","","","clear_screen","null","null","","","catch","sh","sw","l","208","153","176","237","207","295","trueblood","null","null","null","null","null","null","null","null","null","null","null","","180","200","260","200","36000","52000","[1,3]","479.7908025514805","429.02676555269545","420.4329303419529"
"","canvas-keyboard-response","74","112278","0.0-6.0-5.9","551","","","","","make choice","909","3","","","catch","sh","sw","l","208","153","176","237","207","295","trueblood","null","null","null","null","null","null","null","null","null","null","null","","180","200","260","200","36000","52000","[1,3]","","",""
"","canvas-keyboard-response","75","112295","0.0-6.0-6.9","551","","","","","clear_screen","null","null","","","catch","sh","sw","l","208","153","176","237","207","295","trueblood","null","null","null","null","null","null","null","null","null","null","null","","180","200","260","200","36000","52000","[1,3]","","",""
"","canvas-keyboard-response","76","112496","0.0-6.0-0.10","551","","","","","pre trial waiting period","null","null","","","critical","d","c","t","220.0396","154.6796","164","240","240","164","spektor","0.14","w","240","164","164","240","220.0396","154.6796","39360","39360","34035.6388","dc","null","null","null","null","null","null","[1,2]","503.6128325973661","143.02343661196358","536.6949878940235"
"","canvas-keyboard-response","77","112521","0.0-6.0-1.10","551","","","","","clear_screen","null","null","","","critical","d","c","t","220.0396","154.6796","164","240","240","164","spektor","0.14","w","240","164","164","240","220.0396","154.6796","39360","39360","34035.6388","dc","null","null","null","null","null","null","[1,2]","503.6128325973661","143.02343661196358","536.6949878940235"
"","canvas-keyboard-response","78","113034","0.0-6.0-2.10","551","","","","","rectangles no change","null","null","","","critical","d","c","t","220.0396","154.6796","164","240","240","164","spektor","0.14","w","240","164","164","240","220.0396","154.6796","39360","39360","34035.6388","dc","null","null","null","null","null","null","[1,2]","503.6128325973661","143.02343661196358","536.6949878940235"
"","canvas-keyboard-response","79","114369","0.0-6.0-3.10","551","","","","","rectangles with change","null","null","","","critical","d","c","t","220.0396","154.6796","164","240","240","164","spektor","0.14","w","240","164","164","240","220.0396","154.6796","39360","39360","34035.6388","dc","null","null","null","null","null","null","[1,2]","503.6128325973661","143.02343661196358","536.6949878940235"
"","canvas-keyboard-response","80","114387","0.0-6.0-4.10","551","","","","","clear_screen","null","null","","","critical","d","c","t","220.0396","154.6796","164","240","240","164","spektor","0.14","w","240","164","164","240","220.0396","154.6796","39360","39360","34035.6388","dc","null","null","null","null","null","null","[1,2]","503.6128325973661","143.02343661196358","536.6949878940235"
"","canvas-keyboard-response","81","115270","0.0-6.0-5.10","551","","","","","make choice","875","2","","","critical","d","c","t","220.0396","154.6796","164","240","240","164","spektor","0.14","w","240","164","164","240","220.0396","154.6796","39360","39360","34035.6388","dc","null","null","null","null","null","null","[1,2]","","",""
"","canvas-keyboard-response","82","115288","0.0-6.0-6.10","551","","","","","clear_screen","null","null","","","critical","d","c","t","220.0396","154.6796","164","240","240","164","spektor","0.14","w","240","164","164","240","220.0396","154.6796","39360","39360","34035.6388","dc","null","null","null","null","null","null","[1,2]","","",""
"","canvas-keyboard-response","83","115490","0.0-6.0-0.11","551","","","","","pre trial waiting period","null","null","","","critical","d","t","c","160.6713","232.8713","164","240","240","164","trueblood","0.05","h","164","240","240","164","160.6713","232.8713","39360","39360","37415.7294","tc","null","null","null","null","null","null","[2,3]","466.89625818574757","458.830885484187","485.51569720062105"
"","canvas-keyboard-response","84","115509","0.0-6.0-1.11","551","","","","","clear_screen","null","null","","","critical","d","t","c","160.6713","232.8713","164","240","240","164","trueblood","0.05","h","164","240","240","164","160.6713","232.8713","39360","39360","37415.7294","tc","null","null","null","null","null","null","[2,3]","466.89625818574757","458.830885484187","485.51569720062105"
"","canvas-keyboard-response","85","116020","0.0-6.0-2.11","551","","","","","rectangles no change","null","null","","","critical","d","t","c","160.6713","232.8713","164","240","240","164","trueblood","0.05","h","164","240","240","164","160.6713","232.8713","39360","39360","37415.7294","tc","null","null","null","null","null","null","[2,3]","466.89625818574757","458.830885484187","485.51569720062105"
"","canvas-keyboard-response","86","117354","0.0-6.0-3.11","551","","","","","rectangles with change","null","null","","","critical","d","t","c","160.6713","232.8713","164","240","240","164","trueblood","0.05","h","164","240","240","164","160.6713","232.8713","39360","39360","37415.7294","tc","null","null","null","null","null","null","[2,3]","466.89625818574757","458.830885484187","485.51569720062105"
"","canvas-keyboard-response","87","117372","0.0-6.0-4.11","551","","","","","clear_screen","null","null","","","critical","d","t","c","160.6713","232.8713","164","240","240","164","trueblood","0.05","h","164","240","240","164","160.6713","232.8713","39360","39360","37415.7294","tc","null","null","null","null","null","null","[2,3]","466.89625818574757","458.830885484187","485.51569720062105"
"","canvas-keyboard-response","88","118613","0.0-6.0-5.11","551","","","","","make choice","1235","2","","","critical","d","t","c","160.6713","232.8713","164","240","240","164","trueblood","0.05","h","164","240","240","164","160.6713","232.8713","39360","39360","37415.7294","tc","null","null","null","null","null","null","[2,3]","","",""
"","canvas-keyboard-response","89","118635","0.0-6.0-6.11","551","","","","","clear_screen","null","null","","","critical","d","t","c","160.6713","232.8713","164","240","240","164","trueblood","0.05","h","164","240","240","164","160.6713","232.8713","39360","39360","37415.7294","tc","null","null","null","null","null","null","[2,3]","","",""
"","canvas-keyboard-response","90","118838","0.0-6.0-0.12","551","","","","","pre trial waiting period","null","null","","","critical","c","t","d","240","164","164","240","162.6685","237.1485","trueblood","0.02","h","164","240","240","164","162.6685","237.1485","39360","39360","38576.5967","dc","null","null","null","null","null","null","[3,1]","516.6469904285415","454.2364082778685","432.1148445811525"
"","canvas-keyboard-response","91","118860","0.0-6.0-1.12","551","","","","","clear_screen","null","null","","","critical","c","t","d","240","164","164","240","162.6685","237.1485","trueblood","0.02","h","164","240","240","164","162.6685","237.1485","39360","39360","38576.5967","dc","null","null","null","null","null","null","[3,1]","516.6469904285415","454.2364082778685","432.1148445811525"
"","canvas-keyboard-response","92","119371","0.0-6.0-2.12","551","","","","","rectangles no change","null","null","","","critical","c","t","d","240","164","164","240","162.6685","237.1485","trueblood","0.02","h","164","240","240","164","162.6685","237.1485","39360","39360","38576.5967","dc","null","null","null","null","null","null","[3,1]","516.6469904285415","454.2364082778685","432.1148445811525"
"","canvas-keyboard-response","93","120706","0.0-6.0-3.12","551","","","","","rectangles with change","null","null","","","critical","c","t","d","240","164","164","240","162.6685","237.1485","trueblood","0.02","h","164","240","240","164","162.6685","237.1485","39360","39360","38576.5967","dc","null","null","null","null","null","null","[3,1]","516.6469904285415","454.2364082778685","432.1148445811525"
"","canvas-keyboard-response","94","120725","0.0-6.0-4.12","551","","","","","clear_screen","null","null","","","critical","c","t","d","240","164","164","240","162.6685","237.1485","trueblood","0.02","h","164","240","240","164","162.6685","237.1485","39360","39360","38576.5967","dc","null","null","null","null","null","null","[3,1]","516.6469904285415","454.2364082778685","432.1148445811525"
"","canvas-keyboard-response","95","121415","0.0-6.0-5.12","551","","","","","make choice","682","1","","","critical","c","t","d","240","164","164","240","162.6685","237.1485","trueblood","0.02","h","164","240","240","164","162.6685","237.1485","39360","39360","38576.5967","dc","null","null","null","null","null","null","[3,1]","","",""
"","canvas-keyboard-response","96","121433","0.0-6.0-6.12","551","","","","","clear_screen","null","null","","","critical","c","t","d","240","164","164","240","162.6685","237.1485","trueblood","0.02","h","164","240","240","164","162.6685","237.1485","39360","39360","38576.5967","dc","null","null","null","null","null","null","[3,1]","","",""
"","canvas-keyboard-response","97","121634","0.0-6.0-0.13","551","","","","","pre trial waiting period","null","null","","","critical","t","d","c","240","164","232.8713","160.6713","164","240","spektor","0.05","w","240","164","164","240","232.8713","160.6713","39360","39360","37415.7294","tc","null","null","null","null","null","null","[1,3]","493.7250017406824","187.95539355331488","494.47720332846956"
"","canvas-keyboard-response","98","121654","0.0-6.0-1.13","551","","","","","clear_screen","null","null","","","critical","t","d","c","240","164","232.8713","160.6713","164","240","spektor","0.05","w","240","164","164","240","232.8713","160.6713","39360","39360","37415.7294","tc","null","null","null","null","null","null","[1,3]","493.7250017406824","187.95539355331488","494.47720332846956"
"","canvas-keyboard-response","99","122166","0.0-6.0-2.13","551","","","","","rectangles no change","null","null","","","critical","t","d","c","240","164","232.8713","160.6713","164","240","spektor","0.05","w","240","164","164","240","232.8713","160.6713","39360","39360","37415.7294","tc","null","null","null","null","null","null","[1,3]","493.7250017406824","187.95539355331488","494.47720332846956"
"","canvas-keyboard-response","100","123502","0.0-6.0-3.13","551","","","","","rectangles with change","null","null","","","critical","t","d","c","240","164","232.8713","160.6713","164","240","spektor","0.05","w","240","164","164","240","232.8713","160.6713","39360","39360","37415.7294","tc","null","null","null","null","null","null","[1,3]","493.7250017406824","187.95539355331488","494.47720332846956"
"","canvas-keyboard-response","101","123521","0.0-6.0-4.13","551","","","","","clear_screen","null","null","","","critical","t","d","c","240","164","232.8713","160.6713","164","240","spektor","0.05","w","240","164","164","240","232.8713","160.6713","39360","39360","37415.7294","tc","null","null","null","null","null","null","[1,3]","493.7250017406824","187.95539355331488","494.47720332846956"
"","canvas-keyboard-response","102","124054","0.0-6.0-5.13","551","","","","","make choice","522","3","","","critical","t","d","c","240","164","232.8713","160.6713","164","240","spektor","0.05","w","240","164","164","240","232.8713","160.6713","39360","39360","37415.7294","tc","null","null","null","null","null","null","[1,3]","","",""
"","canvas-keyboard-response","103","124072","0.0-6.0-6.13","551","","","","","clear_screen","null","null","","","critical","t","d","c","240","164","232.8713","160.6713","164","240","spektor","0.05","w","240","164","164","240","232.8713","160.6713","39360","39360","37415.7294","tc","null","null","null","null","null","null","[1,3]","","",""
"","canvas-keyboard-response","104","124273","0.0-6.0-0.14","551","","","","","pre trial waiting period","null","null","","","critical","d","t","c","158.0083","227.1683","164","240","240","164","spektor","0.09","h","164","240","240","164","158.0083","227.1683","39360","39360","35894.4834","tc","null","null","null","null","null","null","[2,3]","488.13295934701443","137.49036299809933","499.5074114608363"
"","canvas-keyboard-response","105","124293","0.0-6.0-1.14","551","","","","","clear_screen","null","null","","","critical","d","t","c","158.0083","227.1683","164","240","240","164","spektor","0.09","h","164","240","240","164","158.0083","227.1683","39360","39360","35894.4834","tc","null","null","null","null","null","null","[2,3]","488.13295934701443","137.49036299809933","499.5074114608363"
"","canvas-keyboard-response","106","124805","0.0-6.0-2.14","551","","","","","rectangles no change","null","null","","","critical","d","t","c","158.0083","227.1683","164","240","240","164","spektor","0.09","h","164","240","240","164","158.0083","227.1683","39360","39360","35894.4834","tc","null","null","null","null","null","null","[2,3]","488.13295934701443","137.49036299809933","499.5074114608363"
"","canvas-keyboard-response","107","126139","0.0-6.0-3.14","551","","","","","rectangles with change","null","null","","","critical","d","t","c","158.0083","227.1683","164","240","240","164","spektor","0.09","h","164","240","240","164","158.0083","227.1683","39360","39360","35894.4834","tc","null","null","null","null","null","null","[2,3]","488.13295934701443","137.49036299809933","499.5074114608363"
"","canvas-keyboard-response","108","126157","0.0-6.0-4.14","551","","","","","clear_screen","null","null","","","critical","d","t","c","158.0083","227.1683","164","240","240","164","spektor","0.09","h","164","240","240","164","158.0083","227.1683","39360","39360","35894.4834","tc","null","null","null","null","null","null","[2,3]","488.13295934701443","137.49036299809933","499.5074114608363"
"","canvas-keyboard-response","109","127046","0.0-6.0-5.14","551","","","","","make choice","884","2","","","critical","d","t","c","158.0083","227.1683","164","240","240","164","spektor","0.09","h","164","240","240","164","158.0083","227.1683","39360","39360","35894.4834","tc","null","null","null","null","null","null","[2,3]","","",""
"","canvas-keyboard-response","110","127065","0.0-6.0-6.14","551","","","","","clear_screen","null","null","","","critical","d","t","c","158.0083","227.1683","164","240","240","164","spektor","0.09","h","164","240","240","164","158.0083","227.1683","39360","39360","35894.4834","tc","null","null","null","null","null","null","[2,3]","","",""
"","canvas-keyboard-response","111","127266","0.0-6.0-0.15","551","","","","","pre trial waiting period","null","null","","","critical","c","d","t","164","240","232.8713","160.6713","240","164","trueblood","0.05","w","240","164","164","240","232.8713","160.6713","39360","39360","37415.7294","td","null","null","null","null","null","null","[3,2]","464.8714310684266","518.5036264075179","502.79992624683865"
"","canvas-keyboard-response","112","127285","0.0-6.0-1.15","551","","","","","clear_screen","null","null","","","critical","c","d","t","164","240","232.8713","160.6713","240","164","trueblood","0.05","w","240","164","164","240","232.8713","160.6713","39360","39360","37415.7294","td","null","null","null","null","null","null","[3,2]","464.8714310684266","518.5036264075179","502.79992624683865"
"","canvas-keyboard-response","113","127797","0.0-6.0-2.15","551","","","","","rectangles no change","null","null","","","critical","c","d","t","164","240","232.8713","160.6713","240","164","trueblood","0.05","w","240","164","164","240","232.8713","160.6713","39360","39360","37415.7294","td","null","null","null","null","null","null","[3,2]","464.8714310684266","518.5036264075179","502.79992624683865"
"","canvas-keyboard-response","114","129132","0.0-6.0-3.15","551","","","","","rectangles with change","null","null","","","critical","c","d","t","164","240","232.8713","160.6713","240","164","trueblood","0.05","w","240","164","164","240","232.8713","160.6713","39360","39360","37415.7294","td","null","null","null","null","null","null","[3,2]","464.8714310684266","518.5036264075179","502.79992624683865"
"","canvas-keyboard-response","115","129151","0.0-6.0-4.15","551","","","","","clear_screen","null","null","","","critical","c","d","t","164","240","232.8713","160.6713","240","164","trueblood","0.05","w","240","164","164","240","232.8713","160.6713","39360","39360","37415.7294","td","null","null","null","null","null","null","[3,2]","464.8714310684266","518.5036264075179","502.79992624683865"
"","canvas-keyboard-response","116","129511","0.0-6.0-5.15","551","","","","","make choice","351","3","","","critical","c","d","t","164","240","232.8713","160.6713","240","164","trueblood","0.05","w","240","164","164","240","232.8713","160.6713","39360","39360","37415.7294","td","null","null","null","null","null","null","[3,2]","","",""
"","canvas-keyboard-response","117","129528","0.0-6.0-6.15","551","","","","","clear_screen","null","null","","","critical","c","d","t","164","240","232.8713","160.6713","240","164","trueblood","0.05","w","240","164","164","240","232.8713","160.6713","39360","39360","37415.7294","td","null","null","null","null","null","null","[3,2]","","",""
"","canvas-keyboard-response","118","129729","0.0-6.0-0.16","551","","","","","pre trial waiting period","null","null","","","catch","sh","l","sw","213","177","236","256","148","218","trueblood","null","null","null","null","null","null","null","null","null","null","null","","180","200","260","200","36000","52000","[1,2]","468.5642784027033","411.3146899286682","456.40385160177453"
"","canvas-keyboard-response","119","129747","0.0-6.0-1.16","551","","","","","clear_screen","null","null","","","catch","sh","l","sw","213","177","236","256","148","218","trueblood","null","null","null","null","null","null","null","null","null","null","null","","180","200","260","200","36000","52000","[1,2]","468.5642784027033","411.3146899286682","456.40385160177453"
"","canvas-keyboard-response","120","130257","0.0-6.0-2.16","551","","","","","rectangles no change","null","null","","","catch","sh","l","sw","213","177","236","256","148","218","trueblood","null","null","null","null","null","null","null","null","null","null","null","","180","200","260","200","36000","52000","[1,2]","468.5642784027033","411.3146899286682","456.40385160177453"
"","canvas-keyboard-response","121","131591","0.0-6.0-3.16","551","","","","","rectangles with change","null","null","","","catch","sh","l","sw","213","177","236","256","148","218","trueblood","null","null","null","null","null","null","null","null","null","null","null","","180","200","260","200","36000","52000","[1,2]","468.5642784027033","411.3146899286682","456.40385160177453"
"","canvas-keyboard-response","122","131608","0.0-6.0-4.16","551","","","","","clear_screen","null","null","","","catch","sh","l","sw","213","177","236","256","148","218","trueblood","null","null","null","null","null","null","null","null","null","null","null","","180","200","260","200","36000","52000","[1,2]","468.5642784027033","411.3146899286682","456.40385160177453"
"","canvas-keyboard-response","123","131934","0.0-6.0-5.16","551","","","","","make choice","318","2","","","catch","sh","l","sw","213","177","236","256","148","218","trueblood","null","null","null","null","null","null","null","null","null","null","null","","180","200","260","200","36000","52000","[1,2]","","",""
"","canvas-keyboard-response","124","131953","0.0-6.0-6.16","551","","","","","clear_screen","null","null","","","catch","sh","l","sw","213","177","236","256","148","218","trueblood","null","null","null","null","null","null","null","null","null","null","null","","180","200","260","200","36000","52000","[1,2]","","",""
"","canvas-keyboard-response","125","132157","0.0-6.0-0.17","551","","","","","pre trial waiting period","null","null","","","catch","l","sw","sh","229","192","204","168","202","199","spektor","null","null","null","null","null","null","null","null","null","null","null","","180","200","260","200","36000","52000","[1,3]","487.82141233559497","204.8096321066313","504.1686184577783"
"","canvas-keyboard-response","126","132176","0.0-6.0-1.17","551","","","","","clear_screen","null","null","","","catch","l","sw","sh","229","192","204","168","202","199","spektor","null","null","null","null","null","null","null","null","null","null","null","","180","200","260","200","36000","52000","[1,3]","487.82141233559497","204.8096321066313","504.1686184577783"
"","canvas-keyboard-response","127","132689","0.0-6.0-2.17","551","","","","","rectangles no change","null","null","","","catch","l","sw","sh","229","192","204","168","202","199","spektor","null","null","null","null","null","null","null","null","null","null","null","","180","200","260","200","36000","52000","[1,3]","487.82141233559497","204.8096321066313","504.1686184577783"
"","canvas-keyboard-response","128","134024","0.0-6.0-3.17","551","","","","","rectangles with change","null","null","","","catch","l","sw","sh","229","192","204","168","202","199","spektor","null","null","null","null","null","null","null","null","null","null","null","","180","200","260","200","36000","52000","[1,3]","487.82141233559497","204.8096321066313","504.1686184577783"
"","canvas-keyboard-response","129","134042","0.0-6.0-4.17","551","","","","","clear_screen","null","null","","","catch","l","sw","sh","229","192","204","168","202","199","spektor","null","null","null","null","null","null","null","null","null","null","null","","180","200","260","200","36000","52000","[1,3]","487.82141233559497","204.8096321066313","504.1686184577783"
"","canvas-keyboard-response","130","134926","0.0-6.0-5.17","551","","","","","make choice","876","1","","","catch","l","sw","sh","229","192","204","168","202","199","spektor","null","null","null","null","null","null","null","null","null","null","null","","180","200","260","200","36000","52000","[1,3]","","",""
"","canvas-keyboard-response","131","134943","0.0-6.0-6.17","551","","","","","clear_screen","null","null","","","catch","l","sw","sh","229","192","204","168","202","199","spektor","null","null","null","null","null","null","null","null","null","null","null","","180","200","260","200","36000","52000","[1,3]","","",""
"","canvas-keyboard-response","132","135145","0.0-6.0-0.18","551","","","","","pre trial waiting period","null","null","","","critical","t","c","d","164","240","240","164","160.6713","232.8713","spektor","0.05","h","164","240","240","164","160.6713","232.8713","39360","39360","37415.7294","dc","null","null","null","null","null","null","[3,2]","494.13485829863953","190.3597017067545","506.19303014180144"
"","canvas-keyboard-response","133","135163","0.0-6.0-1.18","551","","","","","clear_screen","null","null","","","critical","t","c","d","164","240","240","164","160.6713","232.8713","spektor","0.05","h","164","240","240","164","160.6713","232.8713","39360","39360","37415.7294","dc","null","null","null","null","null","null","[3,2]","494.13485829863953","190.3597017067545","506.19303014180144"
"","canvas-keyboard-response","134","135673","0.0-6.0-2.18","551","","","","","rectangles no change","null","null","","","critical","t","c","d","164","240","240","164","160.6713","232.8713","spektor","0.05","h","164","240","240","164","160.6713","232.8713","39360","39360","37415.7294","dc","null","null","null","null","null","null","[3,2]","494.13485829863953","190.3597017067545","506.19303014180144"
"","canvas-keyboard-response","135","137009","0.0-6.0-3.18","551","","","","","rectangles with change","null","null","","","critical","t","c","d","164","240","240","164","160.6713","232.8713","spektor","0.05","h","164","240","240","164","160.6713","232.8713","39360","39360","37415.7294","dc","null","null","null","null","null","null","[3,2]","494.13485829863953","190.3597017067545","506.19303014180144"
"","canvas-keyboard-response","136","137027","0.0-6.0-4.18","551","","","","","clear_screen","null","null","","","critical","t","c","d","164","240","240","164","160.6713","232.8713","spektor","0.05","h","164","240","240","164","160.6713","232.8713","39360","39360","37415.7294","dc","null","null","null","null","null","null","[3,2]","494.13485829863953","190.3597017067545","506.19303014180144"
"","canvas-keyboard-response","137","137566","0.0-6.0-5.18","551","","","","","make choice","532","3","","","critical","t","c","d","164","240","240","164","160.6713","232.8713","spektor","0.05","h","164","240","240","164","160.6713","232.8713","39360","39360","37415.7294","dc","null","null","null","null","null","null","[3,2]","","",""
"","canvas-keyboard-response","138","137583","0.0-6.0-6.18","551","","","","","clear_screen","null","null","","","critical","t","c","d","164","240","240","164","160.6713","232.8713","spektor","0.05","h","164","240","240","164","160.6713","232.8713","39360","39360","37415.7294","dc","null","null","null","null","null","null","[3,2]","","",""
"","canvas-keyboard-response","139","137784","0.0-6.0-0.19","551","","","","","pre trial waiting period","null","null","","","catch","sh","l","sw","225","147","164","238","149","211","spektor","null","null","null","null","null","null","null","null","null","null","null","","180","200","260","200","36000","52000","[1,2]","533.203547003592","137.49928966545292","505.14489511507685"
"","canvas-keyboard-response","140","137804","0.0-6.0-1.19","551","","","","","clear_screen","null","null","","","catch","sh","l","sw","225","147","164","238","149","211","spektor","null","null","null","null","null","null","null","null","null","null","null","","180","200","260","200","36000","52000","[1,2]","533.203547003592","137.49928966545292","505.14489511507685"
"","canvas-keyboard-response","141","138317","0.0-6.0-2.19","551","","","","","rectangles no change","null","null","","","catch","sh","l","sw","225","147","164","238","149","211","spektor","null","null","null","null","null","null","null","null","null","null","null","","180","200","260","200","36000","52000","[1,2]","533.203547003592","137.49928966545292","505.14489511507685"
"","canvas-keyboard-response","142","139653","0.0-6.0-3.19","551","","","","","rectangles with change","null","null","","","catch","sh","l","sw","225","147","164","238","149","211","spektor","null","null","null","null","null","null","null","null","null","null","null","","180","200","260","200","36000","52000","[1,2]","533.203547003592","137.49928966545292","505.14489511507685"
"","canvas-keyboard-response","143","139670","0.0-6.0-4.19","551","","","","","clear_screen","null","null","","","catch","sh","l","sw","225","147","164","238","149","211","spektor","null","null","null","null","null","null","null","null","null","null","null","","180","200","260","200","36000","52000","[1,2]","533.203547003592","137.49928966545292","505.14489511507685"
"","canvas-keyboard-response","144","140662","0.0-6.0-5.19","551","","","","","make choice","985","1","","","catch","sh","l","sw","225","147","164","238","149","211","spektor","null","null","null","null","null","null","null","null","null","null","null","","180","200","260","200","36000","52000","[1,2]","","",""
"","canvas-keyboard-response","145","140680","0.0-6.0-6.19","551","","","","","clear_screen","null","null","","","catch","sh","l","sw","225","147","164","238","149","211","spektor","null","null","null","null","null","null","null","null","null","null","null","","180","200","260","200","36000","52000","[1,2]","","",""
"","canvas-keyboard-response","146","140881","0.0-6.0-0.20","551","","","","","pre trial waiting period","null","null","","","catch","sw","l","sh","180","200","265","177","164","179","trueblood","null","null","null","null","null","null","null","null","null","null","null","","180","200","260","200","36000","52000","[1,2]","462.758606172959","491.42894315200806","466.56094629359455"
"","canvas-keyboard-response","147","140899","0.0-6.0-1.20","551","","","","","clear_screen","null","null","","","catch","sw","l","sh","180","200","265","177","164","179","trueblood","null","null","null","null","null","null","null","null","null","null","null","","180","200","260","200","36000","52000","[1,2]","462.758606172959","491.42894315200806","466.56094629359455"
"","canvas-keyboard-response","148","141412","0.0-6.0-2.20","551","","","","","rectangles no change","null","null","","","catch","sw","l","sh","180","200","265","177","164","179","trueblood","null","null","null","null","null","null","null","null","null","null","null","","180","200","260","200","36000","52000","[1,2]","462.758606172959","491.42894315200806","466.56094629359455"
"","canvas-keyboard-response","149","142747","0.0-6.0-3.20","551","","","","","rectangles with change","null","null","","","catch","sw","l","sh","180","200","265","177","164","179","trueblood","null","null","null","null","null","null","null","null","null","null","null","","180","200","260","200","36000","52000","[1,2]","462.758606172959","491.42894315200806","466.56094629359455"
"","canvas-keyboard-response","150","142768","0.0-6.0-4.20","551","","","","","clear_screen","null","null","","","catch","sw","l","sh","180","200","265","177","164","179","trueblood","null","null","null","null","null","null","null","null","null","null","null","","180","200","260","200","36000","52000","[1,2]","462.758606172959","491.42894315200806","466.56094629359455"
"","canvas-keyboard-response","151","143454","0.0-6.0-5.20","551","","","","","make choice","678","2","","","catch","sw","l","sh","180","200","265","177","164","179","trueblood","null","null","null","null","null","null","null","null","null","null","null","","180","200","260","200","36000","52000","[1,2]","","",""
"","canvas-keyboard-response","152","143471","0.0-6.0-6.20","551","","","","","clear_screen","null","null","","","catch","sw","l","sh","180","200","265","177","164","179","trueblood","null","null","null","null","null","null","null","null","null","null","null","","180","200","260","200","36000","52000","[1,2]","","",""
"","canvas-keyboard-response","153","143673","0.0-6.0-0.21","551","","","","","pre trial waiting period","null","null","","","critical","c","t","d","240","164","164","240","164","240","trueblood","0","h","164","240","240","164","164","240","39360","39360","39360","dc","null","null","null","null","null","null","[3,1]","492.79644323621415","453.5079162840973","421.9859412032021"
"","canvas-keyboard-response","154","143691","0.0-6.0-1.21","551","","","","","clear_screen","null","null","","","critical","c","t","d","240","164","164","240","164","240","trueblood","0","h","164","240","240","164","164","240","39360","39360","39360","dc","null","null","null","null","null","null","[3,1]","492.79644323621415","453.5079162840973","421.9859412032021"
"","canvas-keyboard-response","155","144202","0.0-6.0-2.21","551","","","","","rectangles no change","null","null","","","critical","c","t","d","240","164","164","240","164","240","trueblood","0","h","164","240","240","164","164","240","39360","39360","39360","dc","null","null","null","null","null","null","[3,1]","492.79644323621415","453.5079162840973","421.9859412032021"
"","canvas-keyboard-response","156","145536","0.0-6.0-3.21","551","","","","","rectangles with change","null","null","","","critical","c","t","d","240","164","164","240","164","240","trueblood","0","h","164","240","240","164","164","240","39360","39360","39360","dc","null","null","null","null","null","null","[3,1]","492.79644323621415","453.5079162840973","421.9859412032021"
"","canvas-keyboard-response","157","145554","0.0-6.0-4.21","551","","","","","clear_screen","null","null","","","critical","c","t","d","240","164","164","240","164","240","trueblood","0","h","164","240","240","164","164","240","39360","39360","39360","dc","null","null","null","null","null","null","[3,1]","492.79644323621415","453.5079162840973","421.9859412032021"
"","canvas-keyboard-response","158","146190","0.0-6.0-5.21","551","","","","","make choice","628","1","","","critical","c","t","d","240","164","164","240","164","240","trueblood","0","h","164","240","240","164","164","240","39360","39360","39360","dc","null","null","null","null","null","null","[3,1]","","",""
"","canvas-keyboard-response","159","146207","0.0-6.0-6.21","551","","","","","clear_screen","null","null","","","critical","c","t","d","240","164","164","240","164","240","trueblood","0","h","164","240","240","164","164","240","39360","39360","39360","dc","null","null","null","null","null","null","[3,1]","","",""
"","canvas-keyboard-response","160","146408","0.0-6.0-0.22","551","","","","","pre trial waiting period","null","null","","","catch","l","sh","sw","271","236","200","154","163","192","trueblood","null","null","null","null","null","null","null","null","null","null","null","","180","200","260","200","36000","52000","[1,2]","459.1100310802974","493.50921811478497","471.51907232990953"
"","canvas-keyboard-response","161","146428","0.0-6.0-1.22","551","","","","","clear_screen","null","null","","","catch","l","sh","sw","271","236","200","154","163","192","trueblood","null","null","null","null","null","null","null","null","null","null","null","","180","200","260","200","36000","52000","[1,2]","459.1100310802974","493.50921811478497","471.51907232990953"
"","canvas-keyboard-response","162","146938","0.0-6.0-2.22","551","","","","","rectangles no change","null","null","","","catch","l","sh","sw","271","236","200","154","163","192","trueblood","null","null","null","null","null","null","null","null","null","null","null","","180","200","260","200","36000","52000","[1,2]","459.1100310802974","493.50921811478497","471.51907232990953"
"","canvas-keyboard-response","163","148273","0.0-6.0-3.22","551","","","","","rectangles with change","null","null","","","catch","l","sh","sw","271","236","200","154","163","192","trueblood","null","null","null","null","null","null","null","null","null","null","null","","180","200","260","200","36000","52000","[1,2]","459.1100310802974","493.50921811478497","471.51907232990953"
"","canvas-keyboard-response","164","148290","0.0-6.0-4.22","551","","","","","clear_screen","null","null","","","catch","l","sh","sw","271","236","200","154","163","192","trueblood","null","null","null","null","null","null","null","null","null","null","null","","180","200","260","200","36000","52000","[1,2]","459.1100310802974","493.50921811478497","471.51907232990953"
"","canvas-keyboard-response","165","148702","0.0-6.0-5.22","551","","","","","make choice","406","1","","","catch","l","sh","sw","271","236","200","154","163","192","trueblood","null","null","null","null","null","null","null","null","null","null","null","","180","200","260","200","36000","52000","[1,2]","","",""
"","canvas-keyboard-response","166","148720","0.0-6.0-6.22","551","","","","","clear_screen","null","null","","","catch","l","sh","sw","271","236","200","154","163","192","trueblood","null","null","null","null","null","null","null","null","null","null","null","","180","200","260","200","36000","52000","[1,2]","","",""
"","canvas-keyboard-response","167","148921","0.0-6.0-0.23","551","","","","","pre trial waiting period","null","null","","","critical","d","t","c","154.6796","220.0396","164","240","240","164","spektor","0.14","h","164","240","240","164","154.6796","220.0396","39360","39360","34035.6388","dc","null","null","null","null","null","null","[1,3]","472.9100590352243","141.42679566118613","522.4578230834957"
"","canvas-keyboard-response","168","148941","0.0-6.0-1.23","551","","","","","clear_screen","null","null","","","critical","d","t","c","154.6796","220.0396","164","240","240","164","spektor","0.14","h","164","240","240","164","154.6796","220.0396","39360","39360","34035.6388","dc","null","null","null","null","null","null","[1,3]","472.9100590352243","141.42679566118613","522.4578230834957"
"","canvas-keyboard-response","169","149455","0.0-6.0-2.23","551","","","","","rectangles no change","null","null","","","critical","d","t","c","154.6796","220.0396","164","240","240","164","spektor","0.14","h","164","240","240","164","154.6796","220.0396","39360","39360","34035.6388","dc","null","null","null","null","null","null","[1,3]","472.9100590352243","141.42679566118613","522.4578230834957"
"","canvas-keyboard-response","170","150790","0.0-6.0-3.23","551","","","","","rectangles with change","null","null","","","critical","d","t","c","154.6796","220.0396","164","240","240","164","spektor","0.14","h","164","240","240","164","154.6796","220.0396","39360","39360","34035.6388","dc","null","null","null","null","null","null","[1,3]","472.9100590352243","141.42679566118613","522.4578230834957"
"","canvas-keyboard-response","171","150807","0.0-6.0-4.23","551","","","","","clear_screen","null","null","","","critical","d","t","c","154.6796","220.0396","164","240","240","164","spektor","0.14","h","164","240","240","164","154.6796","220.0396","39360","39360","34035.6388","dc","null","null","null","null","null","null","[1,3]","472.9100590352243","141.42679566118613","522.4578230834957"
"","canvas-keyboard-response","172","151206","0.0-6.0-5.23","551","","","","","make choice","393","3","","","critical","d","t","c","154.6796","220.0396","164","240","240","164","spektor","0.14","h","164","240","240","164","154.6796","220.0396","39360","39360","34035.6388","dc","null","null","null","null","null","null","[1,3]","","",""
"","canvas-keyboard-response","173","151224","0.0-6.0-6.23","551","","","","","clear_screen","null","null","","","critical","d","t","c","154.6796","220.0396","164","240","240","164","spektor","0.14","h","164","240","240","164","154.6796","220.0396","39360","39360","34035.6388","dc","null","null","null","null","null","null","[1,3]","","",""
"","canvas-keyboard-response","174","151425","0.0-6.0-0.24","551","","","","","pre trial waiting period","null","null","","","critical","t","d","c","240","164","227.1683","158.0083","164","240","spektor","0.09","w","240","164","164","240","227.1683","158.0083","39360","39360","35894.4834","td","null","null","null","null","null","null","[1,2]","538.7142170779698","197.6060096501638","469.2253944746655"
"","canvas-keyboard-response","175","151443","0.0-6.0-1.24","551","","","","","clear_screen","null","null","","","critical","t","d","c","240","164","227.1683","158.0083","164","240","spektor","0.09","w","240","164","164","240","227.1683","158.0083","39360","39360","35894.4834","td","null","null","null","null","null","null","[1,2]","538.7142170779698","197.6060096501638","469.2253944746655"
"","canvas-keyboard-response","176","151952","0.0-6.0-2.24","551","","","","","rectangles no change","null","null","","","critical","t","d","c","240","164","227.1683","158.0083","164","240","spektor","0.09","w","240","164","164","240","227.1683","158.0083","39360","39360","35894.4834","td","null","null","null","null","null","null","[1,2]","538.7142170779698","197.6060096501638","469.2253944746655"
"","canvas-keyboard-response","177","153287","0.0-6.0-3.24","551","","","","","rectangles with change","null","null","","","critical","t","d","c","240","164","227.1683","158.0083","164","240","spektor","0.09","w","240","164","164","240","227.1683","158.0083","39360","39360","35894.4834","td","null","null","null","null","null","null","[1,2]","538.7142170779698","197.6060096501638","469.2253944746655"
"","canvas-keyboard-response","178","153304","0.0-6.0-4.24","551","","","","","clear_screen","null","null","","","critical","t","d","c","240","164","227.1683","158.0083","164","240","spektor","0.09","w","240","164","164","240","227.1683","158.0083","39360","39360","35894.4834","td","null","null","null","null","null","null","[1,2]","538.7142170779698","197.6060096501638","469.2253944746655"
"","canvas-keyboard-response","179","153614","0.0-6.0-5.24","551","","","","","make choice","304","1","","","critical","t","d","c","240","164","227.1683","158.0083","164","240","spektor","0.09","w","240","164","164","240","227.1683","158.0083","39360","39360","35894.4834","td","null","null","null","null","null","null","[1,2]","","",""
"","canvas-keyboard-response","180","153631","0.0-6.0-6.24","551","","","","","clear_screen","null","null","","","critical","t","d","c","240","164","227.1683","158.0083","164","240","spektor","0.09","w","240","164","164","240","227.1683","158.0083","39360","39360","35894.4834","td","null","null","null","null","null","null","[1,2]","","",""
"","canvas-keyboard-response","181","153834","0.0-6.0-0.25","551","","","","","pre trial waiting period","null","null","","","critical","d","c","t","154.6796","220.0396","240","164","164","240","trueblood","0.14","h","164","240","240","164","154.6796","220.0396","39360","39360","34035.6388","tc","null","null","null","null","null","null","[3,2]","452.20848579231796","498.8735654590546","434.75102251838746"
"","canvas-keyboard-response","182","153858","0.0-6.0-1.25","551","","","","","clear_screen","null","null","","","critical","d","c","t","154.6796","220.0396","240","164","164","240","trueblood","0.14","h","164","240","240","164","154.6796","220.0396","39360","39360","34035.6388","tc","null","null","null","null","null","null","[3,2]","452.20848579231796","498.8735654590546","434.75102251838746"
"","canvas-keyboard-response","183","154372","0.0-6.0-2.25","551","","","","","rectangles no change","null","null","","","critical","d","c","t","154.6796","220.0396","240","164","164","240","trueblood","0.14","h","164","240","240","164","154.6796","220.0396","39360","39360","34035.6388","tc","null","null","null","null","null","null","[3,2]","452.20848579231796","498.8735654590546","434.75102251838746"
"","canvas-keyboard-response","184","155709","0.0-6.0-3.25","551","","","","","rectangles with change","null","null","","","critical","d","c","t","154.6796","220.0396","240","164","164","240","trueblood","0.14","h","164","240","240","164","154.6796","220.0396","39360","39360","34035.6388","tc","null","null","null","null","null","null","[3,2]","452.20848579231796","498.8735654590546","434.75102251838746"
"","canvas-keyboard-response","185","155728","0.0-6.0-4.25","551","","","","","clear_screen","null","null","","","critical","d","c","t","154.6796","220.0396","240","164","164","240","trueblood","0.14","h","164","240","240","164","154.6796","220.0396","39360","39360","34035.6388","tc","null","null","null","null","null","null","[3,2]","452.20848579231796","498.8735654590546","434.75102251838746"
"","canvas-keyboard-response","186","158038","0.0-6.0-5.25","551","","","","","make choice","2304","2","","","critical","d","c","t","154.6796","220.0396","240","164","164","240","trueblood","0.14","h","164","240","240","164","154.6796","220.0396","39360","39360","34035.6388","tc","null","null","null","null","null","null","[3,2]","","",""
"","canvas-keyboard-response","187","158057","0.0-6.0-6.25","551","","","","","clear_screen","null","null","","","critical","d","c","t","154.6796","220.0396","240","164","164","240","trueblood","0.14","h","164","240","240","164","154.6796","220.0396","39360","39360","34035.6388","tc","null","null","null","null","null","null","[3,2]","","",""
"","canvas-keyboard-response","188","158259","0.0-6.0-0.26","551","","","","","pre trial waiting period","null","null","","","critical","d","c","t","160.6713","232.8713","240","164","164","240","spektor","0.05","h","164","240","240","164","160.6713","232.8713","39360","39360","37415.7294","tc","null","null","null","null","null","null","[3,2]","494.57371095355984","186.26906613710366","487.50716519299334"
"","canvas-keyboard-response","189","158278","0.0-6.0-1.26","551","","","","","clear_screen","null","null","","","critical","d","c","t","160.6713","232.8713","240","164","164","240","spektor","0.05","h","164","240","240","164","160.6713","232.8713","39360","39360","37415.7294","tc","null","null","null","null","null","null","[3,2]","494.57371095355984","186.26906613710366","487.50716519299334"
"","canvas-keyboard-response","190","158788","0.0-6.0-2.26","551","","","","","rectangles no change","null","null","","","critical","d","c","t","160.6713","232.8713","240","164","164","240","spektor","0.05","h","164","240","240","164","160.6713","232.8713","39360","39360","37415.7294","tc","null","null","null","null","null","null","[3,2]","494.57371095355984","186.26906613710366","487.50716519299334"
"","canvas-keyboard-response","191","160124","0.0-6.0-3.26","551","","","","","rectangles with change","null","null","","","critical","d","c","t","160.6713","232.8713","240","164","164","240","spektor","0.05","h","164","240","240","164","160.6713","232.8713","39360","39360","37415.7294","tc","null","null","null","null","null","null","[3,2]","494.57371095355984","186.26906613710366","487.50716519299334"
"","canvas-keyboard-response","192","160143","0.0-6.0-4.26","551","","","","","clear_screen","null","null","","","critical","d","c","t","160.6713","232.8713","240","164","164","240","spektor","0.05","h","164","240","240","164","160.6713","232.8713","39360","39360","37415.7294","tc","null","null","null","null","null","null","[3,2]","494.57371095355984","186.26906613710366","487.50716519299334"
"","canvas-keyboard-response","193","160878","0.0-6.0-5.26","551","","","","","make choice","727","3","","","critical","d","c","t","160.6713","232.8713","240","164","164","240","spektor","0.05","h","164","240","240","164","160.6713","232.8713","39360","39360","37415.7294","tc","null","null","null","null","null","null","[3,2]","","",""
"","canvas-keyboard-response","194","160897","0.0-6.0-6.26","551","","","","","clear_screen","null","null","","","critical","d","c","t","160.6713","232.8713","240","164","164","240","spektor","0.05","h","164","240","240","164","160.6713","232.8713","39360","39360","37415.7294","tc","null","null","null","null","null","null","[3,2]","","",""
"","canvas-keyboard-response","195","161099","0.0-6.0-0.27","551","","","","","pre trial waiting period","null","null","","","catch","l","sh","sw","298","221","229","159","153","176","spektor","null","null","null","null","null","null","null","null","null","null","null","","180","200","260","200","36000","52000","[1,2]","476.3116459176411","218.33444133425783","512.1875103766147"
"","canvas-keyboard-response","196","161119","0.0-6.0-1.27","551","","","","","clear_screen","null","null","","","catch","l","sh","sw","298","221","229","159","153","176","spektor","null","null","null","null","null","null","null","null","null","null","null","","180","200","260","200","36000","52000","[1,2]","476.3116459176411","218.33444133425783","512.1875103766147"
"","canvas-keyboard-response","197","161630","0.0-6.0-2.27","551","","","","","rectangles no change","null","null","","","catch","l","sh","sw","298","221","229","159","153","176","spektor","null","null","null","null","null","null","null","null","null","null","null","","180","200","260","200","36000","52000","[1,2]","476.3116459176411","218.33444133425783","512.1875103766147"
"","canvas-keyboard-response","198","162965","0.0-6.0-3.27","551","","","","","rectangles with change","null","null","","","catch","l","sh","sw","298","221","229","159","153","176","spektor","null","null","null","null","null","null","null","null","null","null","null","","180","200","260","200","36000","52000","[1,2]","476.3116459176411","218.33444133425783","512.1875103766147"
"","canvas-keyboard-response","199","162984","0.0-6.0-4.27","551","","","","","clear_screen","null","null","","","catch","l","sh","sw","298","221","229","159","153","176","spektor","null","null","null","null","null","null","null","null","null","null","null","","180","200","260","200","36000","52000","[1,2]","476.3116459176411","218.33444133425783","512.1875103766147"
"","canvas-keyboard-response","200","163325","0.0-6.0-5.27","551","","","","","make choice","333","1","","","catch","l","sh","sw","298","221","229","159","153","176","spektor","null","null","null","null","null","null","null","null","null","null","null","","180","200","260","200","36000","52000","[1,2]","","",""
"","canvas-keyboard-response","201","163344","0.0-6.0-6.27","551","","","","","clear_screen","null","null","","","catch","l","sh","sw","298","221","229","159","153","176","spektor","null","null","null","null","null","null","null","null","null","null","null","","180","200","260","200","36000","52000","[1,2]","","",""
"","canvas-keyboard-response","202","163545","0.0-6.0-0.28","551","","","","","pre trial waiting period","null","null","","","critical","d","c","t","220.0396","154.6796","164","240","240","164","trueblood","0.14","w","240","164","164","240","220.0396","154.6796","39360","39360","34035.6388","dc","null","null","null","null","null","null","[1,2]","520.6805039430828","453.19061543755294","473.12859607387196"
"","canvas-keyboard-response","203","163564","0.0-6.0-1.28","551","","","","","clear_screen","null","null","","","critical","d","c","t","220.0396","154.6796","164","240","240","164","trueblood","0.14","w","240","164","164","240","220.0396","154.6796","39360","39360","34035.6388","dc","null","null","null","null","null","null","[1,2]","520.6805039430828","453.19061543755294","473.12859607387196"
"","canvas-keyboard-response","204","164074","0.0-6.0-2.28","551","","","","","rectangles no change","null","null","","","critical","d","c","t","220.0396","154.6796","164","240","240","164","trueblood","0.14","w","240","164","164","240","220.0396","154.6796","39360","39360","34035.6388","dc","null","null","null","null","null","null","[1,2]","520.6805039430828","453.19061543755294","473.12859607387196"
"","canvas-keyboard-response","205","165408","0.0-6.0-3.28","551","","","","","rectangles with change","null","null","","","critical","d","c","t","220.0396","154.6796","164","240","240","164","trueblood","0.14","w","240","164","164","240","220.0396","154.6796","39360","39360","34035.6388","dc","null","null","null","null","null","null","[1,2]","520.6805039430828","453.19061543755294","473.12859607387196"
"","canvas-keyboard-response","206","165430","0.0-6.0-4.28","551","","","","","clear_screen","null","null","","","critical","d","c","t","220.0396","154.6796","164","240","240","164","trueblood","0.14","w","240","164","164","240","220.0396","154.6796","39360","39360","34035.6388","dc","null","null","null","null","null","null","[1,2]","520.6805039430828","453.19061543755294","473.12859607387196"
"","canvas-keyboard-response","207","165902","0.0-6.0-5.28","551","","","","","make choice","464","2","","","critical","d","c","t","220.0396","154.6796","164","240","240","164","trueblood","0.14","w","240","164","164","240","220.0396","154.6796","39360","39360","34035.6388","dc","null","null","null","null","null","null","[1,2]","","",""
"","canvas-keyboard-response","208","165921","0.0-6.0-6.28","551","","","","","clear_screen","null","null","","","critical","d","c","t","220.0396","154.6796","164","240","240","164","trueblood","0.14","w","240","164","164","240","220.0396","154.6796","39360","39360","34035.6388","dc","null","null","null","null","null","null","[1,2]","","",""
"","canvas-keyboard-response","209","166121","0.0-6.0-0.29","551","","","","","pre trial waiting period","null","null","","","critical","c","t","d","164","240","240","164","227.1683","158.0083","spektor","0.09","w","240","164","164","240","227.1683","158.0083","39360","39360","35894.4834","dc","null","null","null","null","null","null","[3,1]","500.64495876766676","188.80740800529284","542.4872143985256"
"","canvas-keyboard-response","210","166141","0.0-6.0-1.29","551","","","","","clear_screen","null","null","","","critical","c","t","d","164","240","240","164","227.1683","158.0083","spektor","0.09","w","240","164","164","240","227.1683","158.0083","39360","39360","35894.4834","dc","null","null","null","null","null","null","[3,1]","500.64495876766676","188.80740800529284","542.4872143985256"
"","canvas-keyboard-response","211","166651","0.0-6.0-2.29","551","","","","","rectangles no change","null","null","","","critical","c","t","d","164","240","240","164","227.1683","158.0083","spektor","0.09","w","240","164","164","240","227.1683","158.0083","39360","39360","35894.4834","dc","null","null","null","null","null","null","[3,1]","500.64495876766676","188.80740800529284","542.4872143985256"
"","canvas-keyboard-response","212","167986","0.0-6.0-3.29","551","","","","","rectangles with change","null","null","","","critical","c","t","d","164","240","240","164","227.1683","158.0083","spektor","0.09","w","240","164","164","240","227.1683","158.0083","39360","39360","35894.4834","dc","null","null","null","null","null","null","[3,1]","500.64495876766676","188.80740800529284","542.4872143985256"
"","canvas-keyboard-response","213","168004","0.0-6.0-4.29","551","","","","","clear_screen","null","null","","","critical","c","t","d","164","240","240","164","227.1683","158.0083","spektor","0.09","w","240","164","164","240","227.1683","158.0083","39360","39360","35894.4834","dc","null","null","null","null","null","null","[3,1]","500.64495876766676","188.80740800529284","542.4872143985256"
"","canvas-keyboard-response","214","168735","0.0-6.0-5.29","551","","","","","make choice","724","1","","","critical","c","t","d","164","240","240","164","227.1683","158.0083","spektor","0.09","w","240","164","164","240","227.1683","158.0083","39360","39360","35894.4834","dc","null","null","null","null","null","null","[3,1]","","",""
"","canvas-keyboard-response","215","168753","0.0-6.0-6.29","551","","","","","clear_screen","null","null","","","critical","c","t","d","164","240","240","164","227.1683","158.0083","spektor","0.09","w","240","164","164","240","227.1683","158.0083","39360","39360","35894.4834","dc","null","null","null","null","null","null","[3,1]","","",""
"","canvas-keyboard-response","216","168956","0.0-6.0-0.30","551","","","","","pre trial waiting period","null","null","","","critical","d","t","c","227.1683","158.0083","240","164","164","240","trueblood","0.09","w","240","164","164","240","227.1683","158.0083","39360","39360","35894.4834","dc","null","null","null","null","null","null","[1,3]","492.701337078136","472.23343143732734","438.55139957036243"
"","canvas-keyboard-response","217","168975","0.0-6.0-1.30","551","","","","","clear_screen","null","null","","","critical","d","t","c","227.1683","158.0083","240","164","164","240","trueblood","0.09","w","240","164","164","240","227.1683","158.0083","39360","39360","35894.4834","dc","null","null","null","null","null","null","[1,3]","492.701337078136","472.23343143732734","438.55139957036243"
"","canvas-keyboard-response","218","169483","0.0-6.0-2.30","551","","","","","rectangles no change","null","null","","","critical","d","t","c","227.1683","158.0083","240","164","164","240","trueblood","0.09","w","240","164","164","240","227.1683","158.0083","39360","39360","35894.4834","dc","null","null","null","null","null","null","[1,3]","492.701337078136","472.23343143732734","438.55139957036243"
"","canvas-keyboard-response","219","170818","0.0-6.0-3.30","551","","","","","rectangles with change","null","null","","","critical","d","t","c","227.1683","158.0083","240","164","164","240","trueblood","0.09","w","240","164","164","240","227.1683","158.0083","39360","39360","35894.4834","dc","null","null","null","null","null","null","[1,3]","492.701337078136","472.23343143732734","438.55139957036243"
"","canvas-keyboard-response","220","170836","0.0-6.0-4.30","551","","","","","clear_screen","null","null","","","critical","d","t","c","227.1683","158.0083","240","164","164","240","trueblood","0.09","w","240","164","164","240","227.1683","158.0083","39360","39360","35894.4834","dc","null","null","null","null","null","null","[1,3]","492.701337078136","472.23343143732734","438.55139957036243"
"","canvas-keyboard-response","221","172581","0.0-6.0-5.30","551","","","","","make choice","1739","1","","","critical","d","t","c","227.1683","158.0083","240","164","164","240","trueblood","0.09","w","240","164","164","240","227.1683","158.0083","39360","39360","35894.4834","dc","null","null","null","null","null","null","[1,3]","","",""
"","canvas-keyboard-response","222","172599","0.0-6.0-6.30","551","","","","","clear_screen","null","null","","","critical","d","t","c","227.1683","158.0083","240","164","164","240","trueblood","0.09","w","240","164","164","240","227.1683","158.0083","39360","39360","35894.4834","dc","null","null","null","null","null","null","[1,3]","","",""
"","canvas-keyboard-response","223","172801","0.0-6.0-0.31","551","","","","","pre trial waiting period","null","null","","","catch","l","sh","sw","172","232","212","207","182","166","trueblood","null","null","null","null","null","null","null","null","null","null","null","","180","200","260","200","36000","52000","[1,3]","471.27470073980436","472.27469980151164","499.18034206675304"
"","canvas-keyboard-response","224","172819","0.0-6.0-1.31","551","","","","","clear_screen","null","null","","","catch","l","sh","sw","172","232","212","207","182","166","trueblood","null","null","null","null","null","null","null","null","null","null","null","","180","200","260","200","36000","52000","[1,3]","471.27470073980436","472.27469980151164","499.18034206675304"
"","canvas-keyboard-response","225","173330","0.0-6.0-2.31","551","","","","","rectangles no change","null","null","","","catch","l","sh","sw","172","232","212","207","182","166","trueblood","null","null","null","null","null","null","null","null","null","null","null","","180","200","260","200","36000","52000","[1,3]","471.27470073980436","472.27469980151164","499.18034206675304"
"","canvas-keyboard-response","226","174665","0.0-6.0-3.31","551","","","","","rectangles with change","null","null","","","catch","l","sh","sw","172","232","212","207","182","166","trueblood","null","null","null","null","null","null","null","null","null","null","null","","180","200","260","200","36000","52000","[1,3]","471.27470073980436","472.27469980151164","499.18034206675304"
"","canvas-keyboard-response","227","174682","0.0-6.0-4.31","551","","","","","clear_screen","null","null","","","catch","l","sh","sw","172","232","212","207","182","166","trueblood","null","null","null","null","null","null","null","null","null","null","null","","180","200","260","200","36000","52000","[1,3]","471.27470073980436","472.27469980151164","499.18034206675304"
"","canvas-keyboard-response","228","175207","0.0-6.0-5.31","551","","","","","make choice","516","1","","","catch","l","sh","sw","172","232","212","207","182","166","trueblood","null","null","null","null","null","null","null","null","null","null","null","","180","200","260","200","36000","52000","[1,3]","","",""
"","canvas-keyboard-response","229","175224","0.0-6.0-6.31","551","","","","","clear_screen","null","null","","","catch","l","sh","sw","172","232","212","207","182","166","trueblood","null","null","null","null","null","null","null","null","null","null","null","","180","200","260","200","36000","52000","[1,3]","","",""
"","canvas-keyboard-response","230","175424","0.0-6.0-0.32","551","","","","","pre trial waiting period","null","null","","","critical","d","t","c","154.6796","220.0396","164","240","240","164","trueblood","0.14","h","164","240","240","164","154.6796","220.0396","39360","39360","34035.6388","dc","null","null","null","null","null","null","[1,3]","440.3941268953466","450.23448417742134","510.69420182195853"
"","canvas-keyboard-response","231","175444","0.0-6.0-1.32","551","","","","","clear_screen","null","null","","","critical","d","t","c","154.6796","220.0396","164","240","240","164","trueblood","0.14","h","164","240","240","164","154.6796","220.0396","39360","39360","34035.6388","dc","null","null","null","null","null","null","[1,3]","440.3941268953466","450.23448417742134","510.69420182195853"
"","canvas-keyboard-response","232","175957","0.0-6.0-2.32","551","","","","","rectangles no change","null","null","","","critical","d","t","c","154.6796","220.0396","164","240","240","164","trueblood","0.14","h","164","240","240","164","154.6796","220.0396","39360","39360","34035.6388","dc","null","null","null","null","null","null","[1,3]","440.3941268953466","450.23448417742134","510.69420182195853"
"","canvas-keyboard-response","233","177292","0.0-6.0-3.32","551","","","","","rectangles with change","null","null","","","critical","d","t","c","154.6796","220.0396","164","240","240","164","trueblood","0.14","h","164","240","240","164","154.6796","220.0396","39360","39360","34035.6388","dc","null","null","null","null","null","null","[1,3]","440.3941268953466","450.23448417742134","510.69420182195853"
"","canvas-keyboard-response","234","177309","0.0-6.0-4.32","551","","","","","clear_screen","null","null","","","critical","d","t","c","154.6796","220.0396","164","240","240","164","trueblood","0.14","h","164","240","240","164","154.6796","220.0396","39360","39360","34035.6388","dc","null","null","null","null","null","null","[1,3]","440.3941268953466","450.23448417742134","510.69420182195853"
"","canvas-keyboard-response","235","177782","0.0-6.0-5.32","551","","","","","make choice","467","3","","","critical","d","t","c","154.6796","220.0396","164","240","240","164","trueblood","0.14","h","164","240","240","164","154.6796","220.0396","39360","39360","34035.6388","dc","null","null","null","null","null","null","[1,3]","","",""
"","canvas-keyboard-response","236","177800","0.0-6.0-6.32","551","","","","","clear_screen","null","null","","","critical","d","t","c","154.6796","220.0396","164","240","240","164","trueblood","0.14","h","164","240","240","164","154.6796","220.0396","39360","39360","34035.6388","dc","null","null","null","null","null","null","[1,3]","","",""
"","canvas-keyboard-response","237","178001","0.0-6.0-0.33","551","","","","","pre trial waiting period","null","null","","","critical","t","d","c","164","240","158.0083","227.1683","240","164","spektor","0.09","h","164","240","240","164","158.0083","227.1683","39360","39360","35894.4834","td","null","null","null","null","null","null","[1,2]","476.3184519470929","135.08571222352768","518.1767696869592"
"","canvas-keyboard-response","238","178019","0.0-6.0-1.33","551","","","","","clear_screen","null","null","","","critical","t","d","c","164","240","158.0083","227.1683","240","164","spektor","0.09","h","164","240","240","164","158.0083","227.1683","39360","39360","35894.4834","td","null","null","null","null","null","null","[1,2]","476.3184519470929","135.08571222352768","518.1767696869592"
"","canvas-keyboard-response","239","178531","0.0-6.0-2.33","551","","","","","rectangles no change","null","null","","","critical","t","d","c","164","240","158.0083","227.1683","240","164","spektor","0.09","h","164","240","240","164","158.0083","227.1683","39360","39360","35894.4834","td","null","null","null","null","null","null","[1,2]","476.3184519470929","135.08571222352768","518.1767696869592"
"","canvas-keyboard-response","240","179866","0.0-6.0-3.33","551","","","","","rectangles with change","null","null","","","critical","t","d","c","164","240","158.0083","227.1683","240","164","spektor","0.09","h","164","240","240","164","158.0083","227.1683","39360","39360","35894.4834","td","null","null","null","null","null","null","[1,2]","476.3184519470929","135.08571222352768","518.1767696869592"
"","canvas-keyboard-response","241","179883","0.0-6.0-4.33","551","","","","","clear_screen","null","null","","","critical","t","d","c","164","240","158.0083","227.1683","240","164","spektor","0.09","h","164","240","240","164","158.0083","227.1683","39360","39360","35894.4834","td","null","null","null","null","null","null","[1,2]","476.3184519470929","135.08571222352768","518.1767696869592"
"","canvas-keyboard-response","242","181134","0.0-6.0-5.33","551","","","","","make choice","1243","1","","","critical","t","d","c","164","240","158.0083","227.1683","240","164","spektor","0.09","h","164","240","240","164","158.0083","227.1683","39360","39360","35894.4834","td","null","null","null","null","null","null","[1,2]","","",""
"","canvas-keyboard-response","243","181152","0.0-6.0-6.33","551","","","","","clear_screen","null","null","","","critical","t","d","c","164","240","158.0083","227.1683","240","164","spektor","0.09","h","164","240","240","164","158.0083","227.1683","39360","39360","35894.4834","td","null","null","null","null","null","null","[1,2]","","",""
"","canvas-keyboard-response","244","181354","0.0-6.0-0.34","551","","","","","pre trial waiting period","null","null","","","critical","d","c","t","154.6796","220.0396","240","164","164","240","spektor","0.14","h","164","240","240","164","154.6796","220.0396","39360","39360","34035.6388","td","null","null","null","null","null","null","[3,1]","486.0516862650618","181.05334014914","463.6923818211103"
"","canvas-keyboard-response","245","181373","0.0-6.0-1.34","551","","","","","clear_screen","null","null","","","critical","d","c","t","154.6796","220.0396","240","164","164","240","spektor","0.14","h","164","240","240","164","154.6796","220.0396","39360","39360","34035.6388","td","null","null","null","null","null","null","[3,1]","486.0516862650618","181.05334014914","463.6923818211103"
"","canvas-keyboard-response","246","181882","0.0-6.0-2.34","551","","","","","rectangles no change","null","null","","","critical","d","c","t","154.6796","220.0396","240","164","164","240","spektor","0.14","h","164","240","240","164","154.6796","220.0396","39360","39360","34035.6388","td","null","null","null","null","null","null","[3,1]","486.0516862650618","181.05334014914","463.6923818211103"
"","canvas-keyboard-response","247","183217","0.0-6.0-3.34","551","","","","","rectangles with change","null","null","","","critical","d","c","t","154.6796","220.0396","240","164","164","240","spektor","0.14","h","164","240","240","164","154.6796","220.0396","39360","39360","34035.6388","td","null","null","null","null","null","null","[3,1]","486.0516862650618","181.05334014914","463.6923818211103"
"","canvas-keyboard-response","248","183236","0.0-6.0-4.34","551","","","","","clear_screen","null","null","","","critical","d","c","t","154.6796","220.0396","240","164","164","240","spektor","0.14","h","164","240","240","164","154.6796","220.0396","39360","39360","34035.6388","td","null","null","null","null","null","null","[3,1]","486.0516862650618","181.05334014914","463.6923818211103"
"","canvas-keyboard-response","249","184245","0.0-6.0-5.34","551","","","","","make choice","1003","3","","","critical","d","c","t","154.6796","220.0396","240","164","164","240","spektor","0.14","h","164","240","240","164","154.6796","220.0396","39360","39360","34035.6388","td","null","null","null","null","null","null","[3,1]","","",""
"","canvas-keyboard-response","250","184263","0.0-6.0-6.34","551","","","","","clear_screen","null","null","","","critical","d","c","t","154.6796","220.0396","240","164","164","240","spektor","0.14","h","164","240","240","164","154.6796","220.0396","39360","39360","34035.6388","td","null","null","null","null","null","null","[3,1]","","",""
"","canvas-keyboard-response","251","184463","0.0-6.0-0.35","551","","","","","pre trial waiting period","null","null","","","catch","l","sh","sw","178","248","162","212","208","218","spektor","null","null","null","null","null","null","null","null","null","null","null","","180","200","260","200","36000","52000","[1,2]","454.67488624680135","141.70856299377908","508.79323441711693"
"","canvas-keyboard-response","252","184483","0.0-6.0-1.35","551","","","","","clear_screen","null","null","","","catch","l","sh","sw","178","248","162","212","208","218","spektor","null","null","null","null","null","null","null","null","null","null","null","","180","200","260","200","36000","52000","[1,2]","454.67488624680135","141.70856299377908","508.79323441711693"
"","canvas-keyboard-response","253","184996","0.0-6.0-2.35","551","","","","","rectangles no change","null","null","","","catch","l","sh","sw","178","248","162","212","208","218","spektor","null","null","null","null","null","null","null","null","null","null","null","","180","200","260","200","36000","52000","[1,2]","454.67488624680135","141.70856299377908","508.79323441711693"
"","canvas-keyboard-response","254","186332","0.0-6.0-3.35","551","","","","","rectangles with change","null","null","","","catch","l","sh","sw","178","248","162","212","208","218","spektor","null","null","null","null","null","null","null","null","null","null","null","","180","200","260","200","36000","52000","[1,2]","454.67488624680135","141.70856299377908","508.79323441711693"
"","canvas-keyboard-response","255","186354","0.0-6.0-4.35","551","","","","","clear_screen","null","null","","","catch","l","sh","sw","178","248","162","212","208","218","spektor","null","null","null","null","null","null","null","null","null","null","null","","180","200","260","200","36000","52000","[1,2]","454.67488624680135","141.70856299377908","508.79323441711693"
"","canvas-keyboard-response","256","187086","0.0-6.0-5.35","551","","","","","make choice","724","1","","","catch","l","sh","sw","178","248","162","212","208","218","spektor","null","null","null","null","null","null","null","null","null","null","null","","180","200","260","200","36000","52000","[1,2]","","",""
"","canvas-keyboard-response","257","187103","0.0-6.0-6.35","551","","","","","clear_screen","null","null","","","catch","l","sh","sw","178","248","162","212","208","218","spektor","null","null","null","null","null","null","null","null","null","null","null","","180","200","260","200","36000","52000","[1,2]","","",""
"","canvas-keyboard-response","258","187305","0.0-6.0-0.36","551","","","","","pre trial waiting period","null","null","","","critical","d","c","t","240","164","164","240","240","164","trueblood","0","w","240","164","164","240","240","164","39360","39360","39360","td","null","null","null","null","null","null","[3,1]","490.7394116200286","436.1034997899659","518.1851802146618"
"","canvas-keyboard-response","259","187323","0.0-6.0-1.36","551","","","","","clear_screen","null","null","","","critical","d","c","t","240","164","164","240","240","164","trueblood","0","w","240","164","164","240","240","164","39360","39360","39360","td","null","null","null","null","null","null","[3,1]","490.7394116200286","436.1034997899659","518.1851802146618"
"","canvas-keyboard-response","260","187834","0.0-6.0-2.36","551","","","","","rectangles no change","null","null","","","critical","d","c","t","240","164","164","240","240","164","trueblood","0","w","240","164","164","240","240","164","39360","39360","39360","td","null","null","null","null","null","null","[3,1]","490.7394116200286","436.1034997899659","518.1851802146618"
"","canvas-keyboard-response","261","189168","0.0-6.0-3.36","551","","","","","rectangles with change","null","null","","","critical","d","c","t","240","164","164","240","240","164","trueblood","0","w","240","164","164","240","240","164","39360","39360","39360","td","null","null","null","null","null","null","[3,1]","490.7394116200286","436.1034997899659","518.1851802146618"
"","canvas-keyboard-response","262","189186","0.0-6.0-4.36","551","","","","","clear_screen","null","null","","","critical","d","c","t","240","164","164","240","240","164","trueblood","0","w","240","164","164","240","240","164","39360","39360","39360","td","null","null","null","null","null","null","[3,1]","490.7394116200286","436.1034997899659","518.1851802146618"
"","canvas-keyboard-response","263","189853","0.0-6.0-5.36","551","","","","","make choice","660","1","","","critical","d","c","t","240","164","164","240","240","164","trueblood","0","w","240","164","164","240","240","164","39360","39360","39360","td","null","null","null","null","null","null","[3,1]","","",""
"","canvas-keyboard-response","264","189871","0.0-6.0-6.36","551","","","","","clear_screen","null","null","","","critical","d","c","t","240","164","164","240","240","164","trueblood","0","w","240","164","164","240","240","164","39360","39360","39360","td","null","null","null","null","null","null","[3,1]","","",""
"","canvas-keyboard-response","265","190073","0.0-6.0-0.37","551","","","","","pre trial waiting period","null","null","","","critical","d","t","c","232.8713","160.6713","240","164","164","240","spektor","0.05","w","240","164","164","240","232.8713","160.6713","39360","39360","37415.7294","td","null","null","null","null","null","null","[2,1]","535.6746115158895","178.80174617579385","475.2881751716783"
