"success","trial_type","trial_index","time_elapsed","internal_node_id","sub_n","timeout","failed_images","failed_audio","failed_video","screen_id","rt","response","stimulus","view_history","trial","r1","r2","r3","w1","h1","w2","h2","w3","h3","display","tdd","tdo","tw","th","cw","ch","dw","dh","ta","ca","da","probe","csls","csss","clls","clss","sa","la","probe_rects","r1yloc","r2yloc","r3yloc"
"true","fullscreen","0","2297","0.0-0.0","573","","","","","","","","","","","","","","","","","","","","","","","","","","","","","","","","","","","","","","","","","",""
"true","preload","1","2324","0.0-1.0","573","false","[]","[]","[]","img preload","","","","","","","","","","","","","","","","","","","","","","","","","","","","","","","","","","","","",""
"","survey-html-form","2","4350","0.0-2.0","573","","","","","enter-sub-number","2016","{""response"":""573""}","","","","","","","","","","","","","","","","","","","","","","","","","","","","","","","","","","",""
"","image-button-response","3","20114","0.0-3.0","573","","","","","","15648","0","consent.png","","","","","","","","","","","","","","","","","","","","","","","","","","","","","","","","","",""
"","html-button-response","4","22722","0.0-4.0","573","","","","","intro mssg","2603","0","<div style= ""font-size:25px;"" <p> <strong> Welcome! </strong><br> <p style=""color:#8B0000; font-size:25px;""><strong> Please do NOT exit full screen until you are done with the experiment. </strong> </p><p style=""font-size:25px;color:#8B0000;""> <strong> Your data will be lost <br> if you try to go back or refresh the page after the experiment starts. Feel free to click ""previous"" during the instructions, however.</strong> </p><br><p> <strong> Thanks in advance for your contribution to our research! </strong></p>","","","","","","","","","","","","","","","","","","","","","","","","","","","","","","","","","",""
"","instructions","5","65241","0.0-5.0","573","","","","","instructions","42513","","","[{""page_index"":0,""viewing_time"":10889},{""page_index"":1,""viewing_time"":11384},{""page_index"":2,""viewing_time"":3096},{""page_index"":3,""viewing_time"":7632},{""page_index"":4,""viewing_time"":4104},{""page_index"":5,""viewing_time"":2808},{""page_index"":6,""viewing_time"":1824},{""page_index"":7,""viewing_time"":776}]","","","","","","","","","","","","","","","","","","","","","","","","","","","","","","","","",""
"","canvas-keyboard-response","6","65445","0.0-6.0-0.0","573","","","","","pre trial waiting period","null","null","","","critical","t","c","d","164","240","240","164","154.6796","220.0396","spektor","0.14","h","164","240","240","164","154.6796","220.0396","39360","39360","34035.6388","td","null","null","null","null","null","null","[1,3]","462.43510332218773","179.74021165045428","510.86000314416606"
"","canvas-keyboard-response","7","65470","0.0-6.0-1.0","573","","","","","clear_screen","null","null","","","critical","t","c","d","164","240","240","164","154.6796","220.0396","spektor","0.14","h","164","240","240","164","154.6796","220.0396","39360","39360","34035.6388","td","null","null","null","null","null","null","[1,3]","462.43510332218773","179.74021165045428","510.86000314416606"
"","canvas-keyboard-response","8","65987","0.0-6.0-2.0","573","","","","","rectangles no change","null","null","","","critical","t","c","d","164","240","240","164","154.6796","220.0396","spektor","0.14","h","164","240","240","164","154.6796","220.0396","39360","39360","34035.6388","td","null","null","null","null","null","null","[1,3]","462.43510332218773","179.74021165045428","510.86000314416606"
"","canvas-keyboard-response","9","67326","0.0-6.0-3.0","573","","","","","rectangles with change","null","null","","","critical","t","c","d","164","240","240","164","154.6796","220.0396","spektor","0.14","h","164","240","240","164","154.6796","220.0396","39360","39360","34035.6388","td","null","null","null","null","null","null","[1,3]","462.43510332218773","179.74021165045428","510.86000314416606"
"","canvas-keyboard-response","10","67345","0.0-6.0-4.0","573","","","","","clear_screen","null","null","","","critical","t","c","d","164","240","240","164","154.6796","220.0396","spektor","0.14","h","164","240","240","164","154.6796","220.0396","39360","39360","34035.6388","td","null","null","null","null","null","null","[1,3]","462.43510332218773","179.74021165045428","510.86000314416606"
"","canvas-keyboard-response","11","71382","0.0-6.0-5.0","573","","","","","make choice","4026","3","","","critical","t","c","d","164","240","240","164","154.6796","220.0396","spektor","0.14","h","164","240","240","164","154.6796","220.0396","39360","39360","34035.6388","td","null","null","null","null","null","null","[1,3]","","",""
"","canvas-keyboard-response","12","71403","0.0-6.0-6.0","573","","","","","clear_screen","null","null","","","critical","t","c","d","164","240","240","164","154.6796","220.0396","spektor","0.14","h","164","240","240","164","154.6796","220.0396","39360","39360","34035.6388","td","null","null","null","null","null","null","[1,3]","","",""
"","canvas-keyboard-response","13","71604","0.0-6.0-0.1","573","","","","","pre trial waiting period","null","null","","","critical","c","d","t","164","240","240","164","240","164","spektor","0","w","240","164","164","240","240","164","39360","39360","39360","dc","null","null","null","null","null","null","[2,1]","465.7003691433048","190.82465809216038","533.6531379741882"
"","canvas-keyboard-response","14","71623","0.0-6.0-1.1","573","","","","","clear_screen","null","null","","","critical","c","d","t","164","240","240","164","240","164","spektor","0","w","240","164","164","240","240","164","39360","39360","39360","dc","null","null","null","null","null","null","[2,1]","465.7003691433048","190.82465809216038","533.6531379741882"
"","canvas-keyboard-response","15","72139","0.0-6.0-2.1","573","","","","","rectangles no change","null","null","","","critical","c","d","t","164","240","240","164","240","164","spektor","0","w","240","164","164","240","240","164","39360","39360","39360","dc","null","null","null","null","null","null","[2,1]","465.7003691433048","190.82465809216038","533.6531379741882"
"","canvas-keyboard-response","16","73481","0.0-6.0-3.1","573","","","","","rectangles with change","null","null","","","critical","c","d","t","164","240","240","164","240","164","spektor","0","w","240","164","164","240","240","164","39360","39360","39360","dc","null","null","null","null","null","null","[2,1]","465.7003691433048","190.82465809216038","533.6531379741882"
"","canvas-keyboard-response","17","73502","0.0-6.0-4.1","573","","","","","clear_screen","null","null","","","critical","c","d","t","164","240","240","164","240","164","spektor","0","w","240","164","164","240","240","164","39360","39360","39360","dc","null","null","null","null","null","null","[2,1]","465.7003691433048","190.82465809216038","533.6531379741882"
"","canvas-keyboard-response","18","75462","0.0-6.0-5.1","573","","","","","make choice","1952","2","","","critical","c","d","t","164","240","240","164","240","164","spektor","0","w","240","164","164","240","240","164","39360","39360","39360","dc","null","null","null","null","null","null","[2,1]","","",""
"","canvas-keyboard-response","19","75482","0.0-6.0-6.1","573","","","","","clear_screen","null","null","","","critical","c","d","t","164","240","240","164","240","164","spektor","0","w","240","164","164","240","240","164","39360","39360","39360","dc","null","null","null","null","null","null","[2,1]","","",""
"","canvas-keyboard-response","20","75683","0.0-6.0-0.2","573","","","","","pre trial waiting period","null","null","","","critical","c","d","t","240","164","164","240","164","240","spektor","0","h","164","240","240","164","164","240","39360","39360","39360","dc","null","null","null","null","null","null","[2,1]","525.4989914959615","113.88480416809297","471.6955292256157"
"","canvas-keyboard-response","21","75709","0.0-6.0-1.2","573","","","","","clear_screen","null","null","","","critical","c","d","t","240","164","164","240","164","240","spektor","0","h","164","240","240","164","164","240","39360","39360","39360","dc","null","null","null","null","null","null","[2,1]","525.4989914959615","113.88480416809297","471.6955292256157"
"","canvas-keyboard-response","22","76223","0.0-6.0-2.2","573","","","","","rectangles no change","null","null","","","critical","c","d","t","240","164","164","240","164","240","spektor","0","h","164","240","240","164","164","240","39360","39360","39360","dc","null","null","null","null","null","null","[2,1]","525.4989914959615","113.88480416809297","471.6955292256157"
"","canvas-keyboard-response","23","77559","0.0-6.0-3.2","573","","","","","rectangles with change","null","null","","","critical","c","d","t","240","164","164","240","164","240","spektor","0","h","164","240","240","164","164","240","39360","39360","39360","dc","null","null","null","null","null","null","[2,1]","525.4989914959615","113.88480416809297","471.6955292256157"
"","canvas-keyboard-response","24","77579","0.0-6.0-4.2","573","","","","","clear_screen","null","null","","","critical","c","d","t","240","164","164","240","164","240","spektor","0","h","164","240","240","164","164","240","39360","39360","39360","dc","null","null","null","null","null","null","[2,1]","525.4989914959615","113.88480416809297","471.6955292256157"
"","canvas-keyboard-response","25","78438","0.0-6.0-5.2","573","","","","","make choice","851","1","","","critical","c","d","t","240","164","164","240","164","240","spektor","0","h","164","240","240","164","164","240","39360","39360","39360","dc","null","null","null","null","null","null","[2,1]","","",""
"","canvas-keyboard-response","26","78459","0.0-6.0-6.2","573","","","","","clear_screen","null","null","","","critical","c","d","t","240","164","164","240","164","240","spektor","0","h","164","240","240","164","164","240","39360","39360","39360","dc","null","null","null","null","null","null","[2,1]","","",""
"","canvas-keyboard-response","27","78659","0.0-6.0-0.3","573","","","","","pre trial waiting period","null","null","","","catch","l","sw","sh","238","263","163","213","195","152","spektor","null","null","null","null","null","null","null","null","null","null","null","","180","200","260","200","36000","52000","[1,3]","455.3219288827404","144.41581892246117","543.5743976702347"
"","canvas-keyboard-response","28","78680","0.0-6.0-1.3","573","","","","","clear_screen","null","null","","","catch","l","sw","sh","238","263","163","213","195","152","spektor","null","null","null","null","null","null","null","null","null","null","null","","180","200","260","200","36000","52000","[1,3]","455.3219288827404","144.41581892246117","543.5743976702347"
"","canvas-keyboard-response","29","79195","0.0-6.0-2.3","573","","","","","rectangles no change","null","null","","","catch","l","sw","sh","238","263","163","213","195","152","spektor","null","null","null","null","null","null","null","null","null","null","null","","180","200","260","200","36000","52000","[1,3]","455.3219288827404","144.41581892246117","543.5743976702347"
"","canvas-keyboard-response","30","80531","0.0-6.0-3.3","573","","","","","rectangles with change","null","null","","","catch","l","sw","sh","238","263","163","213","195","152","spektor","null","null","null","null","null","null","null","null","null","null","null","","180","200","260","200","36000","52000","[1,3]","455.3219288827404","144.41581892246117","543.5743976702347"
"","canvas-keyboard-response","31","80551","0.0-6.0-4.3","573","","","","","clear_screen","null","null","","","catch","l","sw","sh","238","263","163","213","195","152","spektor","null","null","null","null","null","null","null","null","null","null","null","","180","200","260","200","36000","52000","[1,3]","455.3219288827404","144.41581892246117","543.5743976702347"
"","canvas-keyboard-response","32","81271","0.0-6.0-5.3","573","","","","","make choice","712","1","","","catch","l","sw","sh","238","263","163","213","195","152","spektor","null","null","null","null","null","null","null","null","null","null","null","","180","200","260","200","36000","52000","[1,3]","","",""
"","canvas-keyboard-response","33","81289","0.0-6.0-6.3","573","","","","","clear_screen","null","null","","","catch","l","sw","sh","238","263","163","213","195","152","spektor","null","null","null","null","null","null","null","null","null","null","null","","180","200","260","200","36000","52000","[1,3]","","",""
"","canvas-keyboard-response","34","81490","0.0-6.0-0.4","573","","","","","pre trial waiting period","null","null","","","critical","d","t","c","154.6796","220.0396","164","240","240","164","trueblood","0.14","h","164","240","240","164","154.6796","220.0396","39360","39360","34035.6388","tc","null","null","null","null","null","null","[2,3]","460.8344470282369","437.49283454515114","504.55223435171024"
"","canvas-keyboard-response","35","81511","0.0-6.0-1.4","573","","","","","clear_screen","null","null","","","critical","d","t","c","154.6796","220.0396","164","240","240","164","trueblood","0.14","h","164","240","240","164","154.6796","220.0396","39360","39360","34035.6388","tc","null","null","null","null","null","null","[2,3]","460.8344470282369","437.49283454515114","504.55223435171024"
"","canvas-keyboard-response","36","82023","0.0-6.0-2.4","573","","","","","rectangles no change","null","null","","","critical","d","t","c","154.6796","220.0396","164","240","240","164","trueblood","0.14","h","164","240","240","164","154.6796","220.0396","39360","39360","34035.6388","tc","null","null","null","null","null","null","[2,3]","460.8344470282369","437.49283454515114","504.55223435171024"
"","canvas-keyboard-response","37","83358","0.0-6.0-3.4","573","","","","","rectangles with change","null","null","","","critical","d","t","c","154.6796","220.0396","164","240","240","164","trueblood","0.14","h","164","240","240","164","154.6796","220.0396","39360","39360","34035.6388","tc","null","null","null","null","null","null","[2,3]","460.8344470282369","437.49283454515114","504.55223435171024"
"","canvas-keyboard-response","38","83377","0.0-6.0-4.4","573","","","","","clear_screen","null","null","","","critical","d","t","c","154.6796","220.0396","164","240","240","164","trueblood","0.14","h","164","240","240","164","154.6796","220.0396","39360","39360","34035.6388","tc","null","null","null","null","null","null","[2,3]","460.8344470282369","437.49283454515114","504.55223435171024"
"","canvas-keyboard-response","39","84670","0.0-6.0-5.4","573","","","","","make choice","1279","2","","","critical","d","t","c","154.6796","220.0396","164","240","240","164","trueblood","0.14","h","164","240","240","164","154.6796","220.0396","39360","39360","34035.6388","tc","null","null","null","null","null","null","[2,3]","","",""
"","canvas-keyboard-response","40","84688","0.0-6.0-6.4","573","","","","","clear_screen","null","null","","","critical","d","t","c","154.6796","220.0396","164","240","240","164","trueblood","0.14","h","164","240","240","164","154.6796","220.0396","39360","39360","34035.6388","tc","null","null","null","null","null","null","[2,3]","","",""
"","canvas-keyboard-response","41","84890","0.0-6.0-0.5","573","","","","","pre trial waiting period","null","null","","","critical","t","d","c","240","164","237.1485","162.6685","164","240","trueblood","0.02","w","240","164","164","240","237.1485","162.6685","39360","39360","38576.5967","td","null","null","null","null","null","null","[1,2]","490.517396166903","496.23951472477836","442.2883772590018"
"","canvas-keyboard-response","42","84910","0.0-6.0-1.5","573","","","","","clear_screen","null","null","","","critical","t","d","c","240","164","237.1485","162.6685","164","240","trueblood","0.02","w","240","164","164","240","237.1485","162.6685","39360","39360","38576.5967","td","null","null","null","null","null","null","[1,2]","490.517396166903","496.23951472477836","442.2883772590018"
"","canvas-keyboard-response","43","85420","0.0-6.0-2.5","573","","","","","rectangles no change","null","null","","","critical","t","d","c","240","164","237.1485","162.6685","164","240","trueblood","0.02","w","240","164","164","240","237.1485","162.6685","39360","39360","38576.5967","td","null","null","null","null","null","null","[1,2]","490.517396166903","496.23951472477836","442.2883772590018"
"","canvas-keyboard-response","44","86755","0.0-6.0-3.5","573","","","","","rectangles with change","null","null","","","critical","t","d","c","240","164","237.1485","162.6685","164","240","trueblood","0.02","w","240","164","164","240","237.1485","162.6685","39360","39360","38576.5967","td","null","null","null","null","null","null","[1,2]","490.517396166903","496.23951472477836","442.2883772590018"
"","canvas-keyboard-response","45","86773","0.0-6.0-4.5","573","","","","","clear_screen","null","null","","","critical","t","d","c","240","164","237.1485","162.6685","164","240","trueblood","0.02","w","240","164","164","240","237.1485","162.6685","39360","39360","38576.5967","td","null","null","null","null","null","null","[1,2]","490.517396166903","496.23951472477836","442.2883772590018"
"","canvas-keyboard-response","46","87759","0.0-6.0-5.5","573","","","","","make choice","978","1","","","critical","t","d","c","240","164","237.1485","162.6685","164","240","trueblood","0.02","w","240","164","164","240","237.1485","162.6685","39360","39360","38576.5967","td","null","null","null","null","null","null","[1,2]","","",""
"","canvas-keyboard-response","47","87776","0.0-6.0-6.5","573","","","","","clear_screen","null","null","","","critical","t","d","c","240","164","237.1485","162.6685","164","240","trueblood","0.02","w","240","164","164","240","237.1485","162.6685","39360","39360","38576.5967","td","null","null","null","null","null","null","[1,2]","","",""
"","canvas-keyboard-response","48","87977","0.0-6.0-0.6","573","","","","","pre trial waiting period","null","null","","","catch","sw","l","sh","180","200","197","228","166","217","spektor","null","null","null","null","null","null","null","null","null","null","null","","180","200","260","200","36000","52000","[1,2]","505.8151800358198","102.91075099474374","495.1690275295565"
"","canvas-keyboard-response","49","87997","0.0-6.0-1.6","573","","","","","clear_screen","null","null","","","catch","sw","l","sh","180","200","197","228","166","217","spektor","null","null","null","null","null","null","null","null","null","null","null","","180","200","260","200","36000","52000","[1,2]","505.8151800358198","102.91075099474374","495.1690275295565"
"","canvas-keyboard-response","50","88511","0.0-6.0-2.6","573","","","","","rectangles no change","null","null","","","catch","sw","l","sh","180","200","197","228","166","217","spektor","null","null","null","null","null","null","null","null","null","null","null","","180","200","260","200","36000","52000","[1,2]","505.8151800358198","102.91075099474374","495.1690275295565"
"","canvas-keyboard-response","51","89847","0.0-6.0-3.6","573","","","","","rectangles with change","null","null","","","catch","sw","l","sh","180","200","197","228","166","217","spektor","null","null","null","null","null","null","null","null","null","null","null","","180","200","260","200","36000","52000","[1,2]","505.8151800358198","102.91075099474374","495.1690275295565"
"","canvas-keyboard-response","52","89865","0.0-6.0-4.6","573","","","","","clear_screen","null","null","","","catch","sw","l","sh","180","200","197","228","166","217","spektor","null","null","null","null","null","null","null","null","null","null","null","","180","200","260","200","36000","52000","[1,2]","505.8151800358198","102.91075099474374","495.1690275295565"
"","canvas-keyboard-response","53","90590","0.0-6.0-5.6","573","","","","","make choice","716","2","","","catch","sw","l","sh","180","200","197","228","166","217","spektor","null","null","null","null","null","null","null","null","null","null","null","","180","200","260","200","36000","52000","[1,2]","","",""
"","canvas-keyboard-response","54","90608","0.0-6.0-6.6","573","","","","","clear_screen","null","null","","","catch","sw","l","sh","180","200","197","228","166","217","spektor","null","null","null","null","null","null","null","null","null","null","null","","180","200","260","200","36000","52000","[1,2]","","",""
"","canvas-keyboard-response","55","90809","0.0-6.0-0.7","573","","","","","pre trial waiting period","null","null","","","catch","sh","l","sw","221","196","290","226","143","238","spektor","null","null","null","null","null","null","null","null","null","null","null","","180","200","260","200","36000","52000","[2,3]","512.7876771954527","131.98668860510122","482.0551494342731"
"","canvas-keyboard-response","56","90829","0.0-6.0-1.7","573","","","","","clear_screen","null","null","","","catch","sh","l","sw","221","196","290","226","143","238","spektor","null","null","null","null","null","null","null","null","null","null","null","","180","200","260","200","36000","52000","[2,3]","512.7876771954527","131.98668860510122","482.0551494342731"
"","canvas-keyboard-response","57","91341","0.0-6.0-2.7","573","","","","","rectangles no change","null","null","","","catch","sh","l","sw","221","196","290","226","143","238","spektor","null","null","null","null","null","null","null","null","null","null","null","","180","200","260","200","36000","52000","[2,3]","512.7876771954527","131.98668860510122","482.0551494342731"
"","canvas-keyboard-response","58","92677","0.0-6.0-3.7","573","","","","","rectangles with change","null","null","","","catch","sh","l","sw","221","196","290","226","143","238","spektor","null","null","null","null","null","null","null","null","null","null","null","","180","200","260","200","36000","52000","[2,3]","512.7876771954527","131.98668860510122","482.0551494342731"
"","canvas-keyboard-response","59","92696","0.0-6.0-4.7","573","","","","","clear_screen","null","null","","","catch","sh","l","sw","221","196","290","226","143","238","spektor","null","null","null","null","null","null","null","null","null","null","null","","180","200","260","200","36000","52000","[2,3]","512.7876771954527","131.98668860510122","482.0551494342731"
"","canvas-keyboard-response","60","92967","0.0-6.0-5.7","573","","","","","make choice","260","2","","","catch","sh","l","sw","221","196","290","226","143","238","spektor","null","null","null","null","null","null","null","null","null","null","null","","180","200","260","200","36000","52000","[2,3]","","",""
"","canvas-keyboard-response","61","92985","0.0-6.0-6.7","573","","","","","clear_screen","null","null","","","catch","sh","l","sw","221","196","290","226","143","238","spektor","null","null","null","null","null","null","null","null","null","null","null","","180","200","260","200","36000","52000","[2,3]","","",""
"","canvas-keyboard-response","62","93186","0.0-6.0-0.8","573","","","","","pre trial waiting period","null","null","","","catch","l","sh","sw","263","224","236","143","153","204","trueblood","null","null","null","null","null","null","null","null","null","null","null","","180","200","260","200","36000","52000","[1,3]","447.1010093162257","518.6060646244078","464.49981578474063"
"","canvas-keyboard-response","63","93206","0.0-6.0-1.8","573","","","","","clear_screen","null","null","","","catch","l","sh","sw","263","224","236","143","153","204","trueblood","null","null","null","null","null","null","null","null","null","null","null","","180","200","260","200","36000","52000","[1,3]","447.1010093162257","518.6060646244078","464.49981578474063"
"","canvas-keyboard-response","64","93720","0.0-6.0-2.8","573","","","","","rectangles no change","null","null","","","catch","l","sh","sw","263","224","236","143","153","204","trueblood","null","null","null","null","null","null","null","null","null","null","null","","180","200","260","200","36000","52000","[1,3]","447.1010093162257","518.6060646244078","464.49981578474063"
"","canvas-keyboard-response","65","95056","0.0-6.0-3.8","573","","","","","rectangles with change","null","null","","","catch","l","sh","sw","263","224","236","143","153","204","trueblood","null","null","null","null","null","null","null","null","null","null","null","","180","200","260","200","36000","52000","[1,3]","447.1010093162257","518.6060646244078","464.49981578474063"
"","canvas-keyboard-response","66","95074","0.0-6.0-4.8","573","","","","","clear_screen","null","null","","","catch","l","sh","sw","263","224","236","143","153","204","trueblood","null","null","null","null","null","null","null","null","null","null","null","","180","200","260","200","36000","52000","[1,3]","447.1010093162257","518.6060646244078","464.49981578474063"
"","canvas-keyboard-response","67","95270","0.0-6.0-5.8","573","","","","","make choice","189","1","","","catch","l","sh","sw","263","224","236","143","153","204","trueblood","null","null","null","null","null","null","null","null","null","null","null","","180","200","260","200","36000","52000","[1,3]","","",""
"","canvas-keyboard-response","68","95288","0.0-6.0-6.8","573","","","","","clear_screen","null","null","","","catch","l","sh","sw","263","224","236","143","153","204","trueblood","null","null","null","null","null","null","null","null","null","null","null","","180","200","260","200","36000","52000","[1,3]","","",""
"","canvas-keyboard-response","69","95489","0.0-6.0-0.9","573","","","","","pre trial waiting period","null","null","","","catch","sw","l","sh","180","200","278","216","170","165","trueblood","null","null","null","null","null","null","null","null","null","null","null","","180","200","260","200","36000","52000","[2,3]","479.69672479511837","481.6698875069945","473.5183569560548"
"","canvas-keyboard-response","70","95507","0.0-6.0-1.9","573","","","","","clear_screen","null","null","","","catch","sw","l","sh","180","200","278","216","170","165","trueblood","null","null","null","null","null","null","null","null","null","null","null","","180","200","260","200","36000","52000","[2,3]","479.69672479511837","481.6698875069945","473.5183569560548"
"","canvas-keyboard-response","71","96020","0.0-6.0-2.9","573","","","","","rectangles no change","null","null","","","catch","sw","l","sh","180","200","278","216","170","165","trueblood","null","null","null","null","null","null","null","null","null","null","null","","180","200","260","200","36000","52000","[2,3]","479.69672479511837","481.6698875069945","473.5183569560548"
"","canvas-keyboard-response","72","97355","0.0-6.0-3.9","573","","","","","rectangles with change","null","null","","","catch","sw","l","sh","180","200","278","216","170","165","trueblood","null","null","null","null","null","null","null","null","null","null","null","","180","200","260","200","36000","52000","[2,3]","479.69672479511837","481.6698875069945","473.5183569560548"
"","canvas-keyboard-response","73","97372","0.0-6.0-4.9","573","","","","","clear_screen","null","null","","","catch","sw","l","sh","180","200","278","216","170","165","trueblood","null","null","null","null","null","null","null","null","null","null","null","","180","200","260","200","36000","52000","[2,3]","479.69672479511837","481.6698875069945","473.5183569560548"
"","canvas-keyboard-response","74","97630","0.0-6.0-5.9","573","","","","","make choice","252","2","","","catch","sw","l","sh","180","200","278","216","170","165","trueblood","null","null","null","null","null","null","null","null","null","null","null","","180","200","260","200","36000","52000","[2,3]","","",""
"","canvas-keyboard-response","75","97648","0.0-6.0-6.9","573","","","","","clear_screen","null","null","","","catch","sw","l","sh","180","200","278","216","170","165","trueblood","null","null","null","null","null","null","null","null","null","null","null","","180","200","260","200","36000","52000","[2,3]","","",""
"","canvas-keyboard-response","76","97850","0.0-6.0-0.10","573","","","","","pre trial waiting period","null","null","","","critical","d","c","t","240","164","164","240","240","164","trueblood","0","w","240","164","164","240","240","164","39360","39360","39360","dc","null","null","null","null","null","null","[1,2]","506.374602053766","458.11031177168286","504.3395376123011"
"","canvas-keyboard-response","77","97870","0.0-6.0-1.10","573","","","","","clear_screen","null","null","","","critical","d","c","t","240","164","164","240","240","164","trueblood","0","w","240","164","164","240","240","164","39360","39360","39360","dc","null","null","null","null","null","null","[1,2]","506.374602053766","458.11031177168286","504.3395376123011"
"","canvas-keyboard-response","78","98381","0.0-6.0-2.10","573","","","","","rectangles no change","null","null","","","critical","d","c","t","240","164","164","240","240","164","trueblood","0","w","240","164","164","240","240","164","39360","39360","39360","dc","null","null","null","null","null","null","[1,2]","506.374602053766","458.11031177168286","504.3395376123011"
"","canvas-keyboard-response","79","99718","0.0-6.0-3.10","573","","","","","rectangles with change","null","null","","","critical","d","c","t","240","164","164","240","240","164","trueblood","0","w","240","164","164","240","240","164","39360","39360","39360","dc","null","null","null","null","null","null","[1,2]","506.374602053766","458.11031177168286","504.3395376123011"
"","canvas-keyboard-response","80","99736","0.0-6.0-4.10","573","","","","","clear_screen","null","null","","","critical","d","c","t","240","164","164","240","240","164","trueblood","0","w","240","164","164","240","240","164","39360","39360","39360","dc","null","null","null","null","null","null","[1,2]","506.374602053766","458.11031177168286","504.3395376123011"
"","canvas-keyboard-response","81","100614","0.0-6.0-5.10","573","","","","","make choice","869","2","","","critical","d","c","t","240","164","164","240","240","164","trueblood","0","w","240","164","164","240","240","164","39360","39360","39360","dc","null","null","null","null","null","null","[1,2]","","",""
"","canvas-keyboard-response","82","100632","0.0-6.0-6.10","573","","","","","clear_screen","null","null","","","critical","d","c","t","240","164","164","240","240","164","trueblood","0","w","240","164","164","240","240","164","39360","39360","39360","dc","null","null","null","null","null","null","[1,2]","","",""
"","canvas-keyboard-response","83","100833","0.0-6.0-0.11","573","","","","","pre trial waiting period","null","null","","","catch","l","sh","sw","241","232","165","152","218","170","trueblood","null","null","null","null","null","null","null","null","null","null","null","","180","200","260","200","36000","52000","[1,2]","458.51932501311074","504.8921693045733","468.7858141243005"
"","canvas-keyboard-response","84","100854","0.0-6.0-1.11","573","","","","","clear_screen","null","null","","","catch","l","sh","sw","241","232","165","152","218","170","trueblood","null","null","null","null","null","null","null","null","null","null","null","","180","200","260","200","36000","52000","[1,2]","458.51932501311074","504.8921693045733","468.7858141243005"
"","canvas-keyboard-response","85","101367","0.0-6.0-2.11","573","","","","","rectangles no change","null","null","","","catch","l","sh","sw","241","232","165","152","218","170","trueblood","null","null","null","null","null","null","null","null","null","null","null","","180","200","260","200","36000","52000","[1,2]","458.51932501311074","504.8921693045733","468.7858141243005"
"","canvas-keyboard-response","86","102702","0.0-6.0-3.11","573","","","","","rectangles with change","null","null","","","catch","l","sh","sw","241","232","165","152","218","170","trueblood","null","null","null","null","null","null","null","null","null","null","null","","180","200","260","200","36000","52000","[1,2]","458.51932501311074","504.8921693045733","468.7858141243005"
"","canvas-keyboard-response","87","102721","0.0-6.0-4.11","573","","","","","clear_screen","null","null","","","catch","l","sh","sw","241","232","165","152","218","170","trueblood","null","null","null","null","null","null","null","null","null","null","null","","180","200","260","200","36000","52000","[1,2]","458.51932501311074","504.8921693045733","468.7858141243005"
"","canvas-keyboard-response","88","102982","0.0-6.0-5.11","573","","","","","make choice","253","1","","","catch","l","sh","sw","241","232","165","152","218","170","trueblood","null","null","null","null","null","null","null","null","null","null","null","","180","200","260","200","36000","52000","[1,2]","","",""
"","canvas-keyboard-response","89","103000","0.0-6.0-6.11","573","","","","","clear_screen","null","null","","","catch","l","sh","sw","241","232","165","152","218","170","trueblood","null","null","null","null","null","null","null","null","null","null","null","","180","200","260","200","36000","52000","[1,2]","","",""
"","canvas-keyboard-response","90","103204","0.0-6.0-0.12","573","","","","","pre trial waiting period","null","null","","","critical","c","d","t","164","240","220.0396","154.6796","240","164","trueblood","0.14","w","240","164","164","240","220.0396","154.6796","39360","39360","34035.6388","dc","null","null","null","null","null","null","[2,1]","423.4891324733728","500.7254743442572","507.2195842967095"
"","canvas-keyboard-response","91","103223","0.0-6.0-1.12","573","","","","","clear_screen","null","null","","","critical","c","d","t","164","240","220.0396","154.6796","240","164","trueblood","0.14","w","240","164","164","240","220.0396","154.6796","39360","39360","34035.6388","dc","null","null","null","null","null","null","[2,1]","423.4891324733728","500.7254743442572","507.2195842967095"
"","canvas-keyboard-response","92","103733","0.0-6.0-2.12","573","","","","","rectangles no change","null","null","","","critical","c","d","t","164","240","220.0396","154.6796","240","164","trueblood","0.14","w","240","164","164","240","220.0396","154.6796","39360","39360","34035.6388","dc","null","null","null","null","null","null","[2,1]","423.4891324733728","500.7254743442572","507.2195842967095"
"","canvas-keyboard-response","93","105068","0.0-6.0-3.12","573","","","","","rectangles with change","null","null","","","critical","c","d","t","164","240","220.0396","154.6796","240","164","trueblood","0.14","w","240","164","164","240","220.0396","154.6796","39360","39360","34035.6388","dc","null","null","null","null","null","null","[2,1]","423.4891324733728","500.7254743442572","507.2195842967095"
"","canvas-keyboard-response","94","105087","0.0-6.0-4.12","573","","","","","clear_screen","null","null","","","critical","c","d","t","164","240","220.0396","154.6796","240","164","trueblood","0.14","w","240","164","164","240","220.0396","154.6796","39360","39360","34035.6388","dc","null","null","null","null","null","null","[2,1]","423.4891324733728","500.7254743442572","507.2195842967095"
"","canvas-keyboard-response","95","105582","0.0-6.0-5.12","573","","","","","make choice","488","1","","","critical","c","d","t","164","240","220.0396","154.6796","240","164","trueblood","0.14","w","240","164","164","240","220.0396","154.6796","39360","39360","34035.6388","dc","null","null","null","null","null","null","[2,1]","","",""
"","canvas-keyboard-response","96","105600","0.0-6.0-6.12","573","","","","","clear_screen","null","null","","","critical","c","d","t","164","240","220.0396","154.6796","240","164","trueblood","0.14","w","240","164","164","240","220.0396","154.6796","39360","39360","34035.6388","dc","null","null","null","null","null","null","[2,1]","","",""
"","canvas-keyboard-response","97","105802","0.0-6.0-0.13","573","","","","","pre trial waiting period","null","null","","","critical","c","t","d","164","240","240","164","232.8713","160.6713","trueblood","0.05","w","240","164","164","240","232.8713","160.6713","39360","39360","37415.7294","dc","null","null","null","null","null","null","[3,1]","468.92877535134073","517.7746504528748","482.00178879863336"
"","canvas-keyboard-response","98","105822","0.0-6.0-1.13","573","","","","","clear_screen","null","null","","","critical","c","t","d","164","240","240","164","232.8713","160.6713","trueblood","0.05","w","240","164","164","240","232.8713","160.6713","39360","39360","37415.7294","dc","null","null","null","null","null","null","[3,1]","468.92877535134073","517.7746504528748","482.00178879863336"
"","canvas-keyboard-response","99","106332","0.0-6.0-2.13","573","","","","","rectangles no change","null","null","","","critical","c","t","d","164","240","240","164","232.8713","160.6713","trueblood","0.05","w","240","164","164","240","232.8713","160.6713","39360","39360","37415.7294","dc","null","null","null","null","null","null","[3,1]","468.92877535134073","517.7746504528748","482.00178879863336"
"","canvas-keyboard-response","100","107667","0.0-6.0-3.13","573","","","","","rectangles with change","null","null","","","critical","c","t","d","164","240","240","164","232.8713","160.6713","trueblood","0.05","w","240","164","164","240","232.8713","160.6713","39360","39360","37415.7294","dc","null","null","null","null","null","null","[3,1]","468.92877535134073","517.7746504528748","482.00178879863336"
"","canvas-keyboard-response","101","107686","0.0-6.0-4.13","573","","","","","clear_screen","null","null","","","critical","c","t","d","164","240","240","164","232.8713","160.6713","trueblood","0.05","w","240","164","164","240","232.8713","160.6713","39360","39360","37415.7294","dc","null","null","null","null","null","null","[3,1]","468.92877535134073","517.7746504528748","482.00178879863336"
"","canvas-keyboard-response","102","110446","0.0-6.0-5.13","573","","","","","make choice","2752","1","","","critical","c","t","d","164","240","240","164","232.8713","160.6713","trueblood","0.05","w","240","164","164","240","232.8713","160.6713","39360","39360","37415.7294","dc","null","null","null","null","null","null","[3,1]","","",""
"","canvas-keyboard-response","103","110464","0.0-6.0-6.13","573","","","","","clear_screen","null","null","","","critical","c","t","d","164","240","240","164","232.8713","160.6713","trueblood","0.05","w","240","164","164","240","232.8713","160.6713","39360","39360","37415.7294","dc","null","null","null","null","null","null","[3,1]","","",""
"","canvas-keyboard-response","104","110665","0.0-6.0-0.14","573","","","","","pre trial waiting period","null","null","","","catch","sh","l","sw","191","181","287","163","187","221","trueblood","null","null","null","null","null","null","null","null","null","null","null","","180","200","260","200","36000","52000","[1,2]","500.8230732759756","510.0847894428474","471.57486363285216"
"","canvas-keyboard-response","105","110686","0.0-6.0-1.14","573","","","","","clear_screen","null","null","","","catch","sh","l","sw","191","181","287","163","187","221","trueblood","null","null","null","null","null","null","null","null","null","null","null","","180","200","260","200","36000","52000","[1,2]","500.8230732759756","510.0847894428474","471.57486363285216"
"","canvas-keyboard-response","106","111196","0.0-6.0-2.14","573","","","","","rectangles no change","null","null","","","catch","sh","l","sw","191","181","287","163","187","221","trueblood","null","null","null","null","null","null","null","null","null","null","null","","180","200","260","200","36000","52000","[1,2]","500.8230732759756","510.0847894428474","471.57486363285216"
"","canvas-keyboard-response","107","112531","0.0-6.0-3.14","573","","","","","rectangles with change","null","null","","","catch","sh","l","sw","191","181","287","163","187","221","trueblood","null","null","null","null","null","null","null","null","null","null","null","","180","200","260","200","36000","52000","[1,2]","500.8230732759756","510.0847894428474","471.57486363285216"
"","canvas-keyboard-response","108","112549","0.0-6.0-4.14","573","","","","","clear_screen","null","null","","","catch","sh","l","sw","191","181","287","163","187","221","trueblood","null","null","null","null","null","null","null","null","null","null","null","","180","200","260","200","36000","52000","[1,2]","500.8230732759756","510.0847894428474","471.57486363285216"
"","canvas-keyboard-response","109","112797","0.0-6.0-5.14","573","","","","","make choice","237","2","","","catch","sh","l","sw","191","181","287","163","187","221","trueblood","null","null","null","null","null","null","null","null","null","null","null","","180","200","260","200","36000","52000","[1,2]","","",""
"","canvas-keyboard-response","110","112815","0.0-6.0-6.14","573","","","","","clear_screen","null","null","","","catch","sh","l","sw","191","181","287","163","187","221","trueblood","null","null","null","null","null","null","null","null","null","null","null","","180","200","260","200","36000","52000","[1,2]","","",""
"","canvas-keyboard-response","111","113016","0.0-6.0-0.15","573","","","","","pre trial waiting period","null","null","","","critical","d","c","t","164","240","240","164","164","240","spektor","0","h","164","240","240","164","164","240","39360","39360","39360","tc","null","null","null","null","null","null","[3,2]","502.57984023865305","148.11284838114418","478.1046159127053"
"","canvas-keyboard-response","112","113036","0.0-6.0-1.15","573","","","","","clear_screen","null","null","","","critical","d","c","t","164","240","240","164","164","240","spektor","0","h","164","240","240","164","164","240","39360","39360","39360","tc","null","null","null","null","null","null","[3,2]","502.57984023865305","148.11284838114418","478.1046159127053"
"","canvas-keyboard-response","113","113547","0.0-6.0-2.15","573","","","","","rectangles no change","null","null","","","critical","d","c","t","164","240","240","164","164","240","spektor","0","h","164","240","240","164","164","240","39360","39360","39360","tc","null","null","null","null","null","null","[3,2]","502.57984023865305","148.11284838114418","478.1046159127053"
"","canvas-keyboard-response","114","114883","0.0-6.0-3.15","573","","","","","rectangles with change","null","null","","","critical","d","c","t","164","240","240","164","164","240","spektor","0","h","164","240","240","164","164","240","39360","39360","39360","tc","null","null","null","null","null","null","[3,2]","502.57984023865305","148.11284838114418","478.1046159127053"
"","canvas-keyboard-response","115","114903","0.0-6.0-4.15","573","","","","","clear_screen","null","null","","","critical","d","c","t","164","240","240","164","164","240","spektor","0","h","164","240","240","164","164","240","39360","39360","39360","tc","null","null","null","null","null","null","[3,2]","502.57984023865305","148.11284838114418","478.1046159127053"
"","canvas-keyboard-response","116","115462","0.0-6.0-5.15","573","","","","","make choice","551","3","","","critical","d","c","t","164","240","240","164","164","240","spektor","0","h","164","240","240","164","164","240","39360","39360","39360","tc","null","null","null","null","null","null","[3,2]","","",""
"","canvas-keyboard-response","117","115480","0.0-6.0-6.15","573","","","","","clear_screen","null","null","","","critical","d","c","t","164","240","240","164","164","240","spektor","0","h","164","240","240","164","164","240","39360","39360","39360","tc","null","null","null","null","null","null","[3,2]","","",""
"","canvas-keyboard-response","118","115682","0.0-6.0-0.16","573","","","","","pre trial waiting period","null","null","","","critical","t","d","c","240","164","227.1683","158.0083","164","240","trueblood","0.09","w","240","164","164","240","227.1683","158.0083","39360","39360","35894.4834","dc","null","null","null","null","null","null","[2,3]","477.7429741101797","490.6369181240231","421.8864507149224"
"","canvas-keyboard-response","119","115703","0.0-6.0-1.16","573","","","","","clear_screen","null","null","","","critical","t","d","c","240","164","227.1683","158.0083","164","240","trueblood","0.09","w","240","164","164","240","227.1683","158.0083","39360","39360","35894.4834","dc","null","null","null","null","null","null","[2,3]","477.7429741101797","490.6369181240231","421.8864507149224"
"","canvas-keyboard-response","120","116215","0.0-6.0-2.16","573","","","","","rectangles no change","null","null","","","critical","t","d","c","240","164","227.1683","158.0083","164","240","trueblood","0.09","w","240","164","164","240","227.1683","158.0083","39360","39360","35894.4834","dc","null","null","null","null","null","null","[2,3]","477.7429741101797","490.6369181240231","421.8864507149224"
"","canvas-keyboard-response","121","117550","0.0-6.0-3.16","573","","","","","rectangles with change","null","null","","","critical","t","d","c","240","164","227.1683","158.0083","164","240","trueblood","0.09","w","240","164","164","240","227.1683","158.0083","39360","39360","35894.4834","dc","null","null","null","null","null","null","[2,3]","477.7429741101797","490.6369181240231","421.8864507149224"
"","canvas-keyboard-response","122","117569","0.0-6.0-4.16","573","","","","","clear_screen","null","null","","","critical","t","d","c","240","164","227.1683","158.0083","164","240","trueblood","0.09","w","240","164","164","240","227.1683","158.0083","39360","39360","35894.4834","dc","null","null","null","null","null","null","[2,3]","477.7429741101797","490.6369181240231","421.8864507149224"
"","canvas-keyboard-response","123","117829","0.0-6.0-5.16","573","","","","","make choice","253","3","","","critical","t","d","c","240","164","227.1683","158.0083","164","240","trueblood","0.09","w","240","164","164","240","227.1683","158.0083","39360","39360","35894.4834","dc","null","null","null","null","null","null","[2,3]","","",""
"","canvas-keyboard-response","124","117848","0.0-6.0-6.16","573","","","","","clear_screen","null","null","","","critical","t","d","c","240","164","227.1683","158.0083","164","240","trueblood","0.09","w","240","164","164","240","227.1683","158.0083","39360","39360","35894.4834","dc","null","null","null","null","null","null","[2,3]","","",""
"","canvas-keyboard-response","125","118050","0.0-6.0-0.17","573","","","","","pre trial waiting period","null","null","","","critical","c","d","t","164","240","220.0396","154.6796","240","164","spektor","0.14","w","240","164","164","240","220.0396","154.6796","39360","39360","34035.6388","dc","null","null","null","null","null","null","[2,1]","458.09866210862157","185.60838505973635","500.16963683552746"
"","canvas-keyboard-response","126","118069","0.0-6.0-1.17","573","","","","","clear_screen","null","null","","","critical","c","d","t","164","240","220.0396","154.6796","240","164","spektor","0.14","w","240","164","164","240","220.0396","154.6796","39360","39360","34035.6388","dc","null","null","null","null","null","null","[2,1]","458.09866210862157","185.60838505973635","500.16963683552746"
"","canvas-keyboard-response","127","118580","0.0-6.0-2.17","573","","","","","rectangles no change","null","null","","","critical","c","d","t","164","240","220.0396","154.6796","240","164","spektor","0.14","w","240","164","164","240","220.0396","154.6796","39360","39360","34035.6388","dc","null","null","null","null","null","null","[2,1]","458.09866210862157","185.60838505973635","500.16963683552746"
"","canvas-keyboard-response","128","119917","0.0-6.0-3.17","573","","","","","rectangles with change","null","null","","","critical","c","d","t","164","240","220.0396","154.6796","240","164","spektor","0.14","w","240","164","164","240","220.0396","154.6796","39360","39360","34035.6388","dc","null","null","null","null","null","null","[2,1]","458.09866210862157","185.60838505973635","500.16963683552746"
"","canvas-keyboard-response","129","119935","0.0-6.0-4.17","573","","","","","clear_screen","null","null","","","critical","c","d","t","164","240","220.0396","154.6796","240","164","spektor","0.14","w","240","164","164","240","220.0396","154.6796","39360","39360","34035.6388","dc","null","null","null","null","null","null","[2,1]","458.09866210862157","185.60838505973635","500.16963683552746"
"","canvas-keyboard-response","130","123101","0.0-6.0-5.17","573","","","","","make choice","3159","1","","","critical","c","d","t","164","240","220.0396","154.6796","240","164","spektor","0.14","w","240","164","164","240","220.0396","154.6796","39360","39360","34035.6388","dc","null","null","null","null","null","null","[2,1]","","",""
"","canvas-keyboard-response","131","123120","0.0-6.0-6.17","573","","","","","clear_screen","null","null","","","critical","c","d","t","164","240","220.0396","154.6796","240","164","spektor","0.14","w","240","164","164","240","220.0396","154.6796","39360","39360","34035.6388","dc","null","null","null","null","null","null","[2,1]","","",""
"","canvas-keyboard-response","132","123321","0.0-6.0-0.18","573","","","","","pre trial waiting period","null","null","","","critical","d","t","c","220.0396","154.6796","240","164","164","240","spektor","0.14","w","240","164","164","240","220.0396","154.6796","39360","39360","34035.6388","tc","null","null","null","null","null","null","[2,3]","511.3607551087118","215.39193388014732","496.9389118898461"
"","canvas-keyboard-response","133","123339","0.0-6.0-1.18","573","","","","","clear_screen","null","null","","","critical","d","t","c","220.0396","154.6796","240","164","164","240","spektor","0.14","w","240","164","164","240","220.0396","154.6796","39360","39360","34035.6388","tc","null","null","null","null","null","null","[2,3]","511.3607551087118","215.39193388014732","496.9389118898461"
"","canvas-keyboard-response","134","123854","0.0-6.0-2.18","573","","","","","rectangles no change","null","null","","","critical","d","t","c","220.0396","154.6796","240","164","164","240","spektor","0.14","w","240","164","164","240","220.0396","154.6796","39360","39360","34035.6388","tc","null","null","null","null","null","null","[2,3]","511.3607551087118","215.39193388014732","496.9389118898461"
"","canvas-keyboard-response","135","125189","0.0-6.0-3.18","573","","","","","rectangles with change","null","null","","","critical","d","t","c","220.0396","154.6796","240","164","164","240","spektor","0.14","w","240","164","164","240","220.0396","154.6796","39360","39360","34035.6388","tc","null","null","null","null","null","null","[2,3]","511.3607551087118","215.39193388014732","496.9389118898461"
"","canvas-keyboard-response","136","125208","0.0-6.0-4.18","573","","","","","clear_screen","null","null","","","critical","d","t","c","220.0396","154.6796","240","164","164","240","spektor","0.14","w","240","164","164","240","220.0396","154.6796","39360","39360","34035.6388","tc","null","null","null","null","null","null","[2,3]","511.3607551087118","215.39193388014732","496.9389118898461"
"","canvas-keyboard-response","137","125486","0.0-6.0-5.18","573","","","","","make choice","271","2","","","critical","d","t","c","220.0396","154.6796","240","164","164","240","spektor","0.14","w","240","164","164","240","220.0396","154.6796","39360","39360","34035.6388","tc","null","null","null","null","null","null","[2,3]","","",""
"","canvas-keyboard-response","138","125504","0.0-6.0-6.18","573","","","","","clear_screen","null","null","","","critical","d","t","c","220.0396","154.6796","240","164","164","240","spektor","0.14","w","240","164","164","240","220.0396","154.6796","39360","39360","34035.6388","tc","null","null","null","null","null","null","[2,3]","","",""
"","canvas-keyboard-response","139","125705","0.0-6.0-0.19","573","","","","","pre trial waiting period","null","null","","","critical","t","c","d","164","240","240","164","158.0083","227.1683","trueblood","0.09","h","164","240","240","164","158.0083","227.1683","39360","39360","35894.4834","dc","null","null","null","null","null","null","[3,2]","462.9399775280766","471.51294966359404","431.8480681712191"
"","canvas-keyboard-response","140","125725","0.0-6.0-1.19","573","","","","","clear_screen","null","null","","","critical","t","c","d","164","240","240","164","158.0083","227.1683","trueblood","0.09","h","164","240","240","164","158.0083","227.1683","39360","39360","35894.4834","dc","null","null","null","null","null","null","[3,2]","462.9399775280766","471.51294966359404","431.8480681712191"
"","canvas-keyboard-response","141","126236","0.0-6.0-2.19","573","","","","","rectangles no change","null","null","","","critical","t","c","d","164","240","240","164","158.0083","227.1683","trueblood","0.09","h","164","240","240","164","158.0083","227.1683","39360","39360","35894.4834","dc","null","null","null","null","null","null","[3,2]","462.9399775280766","471.51294966359404","431.8480681712191"
"","canvas-keyboard-response","142","127571","0.0-6.0-3.19","573","","","","","rectangles with change","null","null","","","critical","t","c","d","164","240","240","164","158.0083","227.1683","trueblood","0.09","h","164","240","240","164","158.0083","227.1683","39360","39360","35894.4834","dc","null","null","null","null","null","null","[3,2]","462.9399775280766","471.51294966359404","431.8480681712191"
"","canvas-keyboard-response","143","127589","0.0-6.0-4.19","573","","","","","clear_screen","null","null","","","critical","t","c","d","164","240","240","164","158.0083","227.1683","trueblood","0.09","h","164","240","240","164","158.0083","227.1683","39360","39360","35894.4834","dc","null","null","null","null","null","null","[3,2]","462.9399775280766","471.51294966359404","431.8480681712191"
"","canvas-keyboard-response","144","128118","0.0-6.0-5.19","573","","","","","make choice","521","3","","","critical","t","c","d","164","240","240","164","158.0083","227.1683","trueblood","0.09","h","164","240","240","164","158.0083","227.1683","39360","39360","35894.4834","dc","null","null","null","null","null","null","[3,2]","","",""
"","canvas-keyboard-response","145","128137","0.0-6.0-6.19","573","","","","","clear_screen","null","null","","","critical","t","c","d","164","240","240","164","158.0083","227.1683","trueblood","0.09","h","164","240","240","164","158.0083","227.1683","39360","39360","35894.4834","dc","null","null","null","null","null","null","[3,2]","","",""
"","canvas-keyboard-response","146","128338","0.0-6.0-0.20","573","","","","","pre trial waiting period","null","null","","","critical","t","c","d","164","240","240","164","162.6685","237.1485","trueblood","0.02","h","164","240","240","164","162.6685","237.1485","39360","39360","38576.5967","td","null","null","null","null","null","null","[1,3]","438.6066704527653","474.8820700953991","468.843553074558"
"","canvas-keyboard-response","147","128357","0.0-6.0-1.20","573","","","","","clear_screen","null","null","","","critical","t","c","d","164","240","240","164","162.6685","237.1485","trueblood","0.02","h","164","240","240","164","162.6685","237.1485","39360","39360","38576.5967","td","null","null","null","null","null","null","[1,3]","438.6066704527653","474.8820700953991","468.843553074558"
"","canvas-keyboard-response","148","128866","0.0-6.0-2.20","573","","","","","rectangles no change","null","null","","","critical","t","c","d","164","240","240","164","162.6685","237.1485","trueblood","0.02","h","164","240","240","164","162.6685","237.1485","39360","39360","38576.5967","td","null","null","null","null","null","null","[1,3]","438.6066704527653","474.8820700953991","468.843553074558"
"","canvas-keyboard-response","149","130201","0.0-6.0-3.20","573","","","","","rectangles with change","null","null","","","critical","t","c","d","164","240","240","164","162.6685","237.1485","trueblood","0.02","h","164","240","240","164","162.6685","237.1485","39360","39360","38576.5967","td","null","null","null","null","null","null","[1,3]","438.6066704527653","474.8820700953991","468.843553074558"
"","canvas-keyboard-response","150","130219","0.0-6.0-4.20","573","","","","","clear_screen","null","null","","","critical","t","c","d","164","240","240","164","162.6685","237.1485","trueblood","0.02","h","164","240","240","164","162.6685","237.1485","39360","39360","38576.5967","td","null","null","null","null","null","null","[1,3]","438.6066704527653","474.8820700953991","468.843553074558"
"","canvas-keyboard-response","151","130478","0.0-6.0-5.20","573","","","","","make choice","250","1","","","critical","t","c","d","164","240","240","164","162.6685","237.1485","trueblood","0.02","h","164","240","240","164","162.6685","237.1485","39360","39360","38576.5967","td","null","null","null","null","null","null","[1,3]","","",""
"","canvas-keyboard-response","152","130496","0.0-6.0-6.20","573","","","","","clear_screen","null","null","","","critical","t","c","d","164","240","240","164","162.6685","237.1485","trueblood","0.02","h","164","240","240","164","162.6685","237.1485","39360","39360","38576.5967","td","null","null","null","null","null","null","[1,3]","","",""
"","canvas-keyboard-response","153","130697","0.0-6.0-0.21","573","","","","","pre trial waiting period","null","null","","","catch","sw","sh","l","180","200","216","177","298","160","spektor","null","null","null","null","null","null","null","null","null","null","null","","180","200","260","200","36000","52000","[2,3]","489.5800037914419","192.95693032422776","503.0978884503939"
"","canvas-keyboard-response","154","130715","0.0-6.0-1.21","573","","","","","clear_screen","null","null","","","catch","sw","sh","l","180","200","216","177","298","160","spektor","null","null","null","null","null","null","null","null","null","null","null","","180","200","260","200","36000","52000","[2,3]","489.5800037914419","192.95693032422776","503.0978884503939"
"","canvas-keyboard-response","155","131229","0.0-6.0-2.21","573","","","","","rectangles no change","null","null","","","catch","sw","sh","l","180","200","216","177","298","160","spektor","null","null","null","null","null","null","null","null","null","null","null","","180","200","260","200","36000","52000","[2,3]","489.5800037914419","192.95693032422776","503.0978884503939"
"","canvas-keyboard-response","156","132565","0.0-6.0-3.21","573","","","","","rectangles with change","null","null","","","catch","sw","sh","l","180","200","216","177","298","160","spektor","null","null","null","null","null","null","null","null","null","null","null","","180","200","260","200","36000","52000","[2,3]","489.5800037914419","192.95693032422776","503.0978884503939"
"","canvas-keyboard-response","157","132583","0.0-6.0-4.21","573","","","","","clear_screen","null","null","","","catch","sw","sh","l","180","200","216","177","298","160","spektor","null","null","null","null","null","null","null","null","null","null","null","","180","200","260","200","36000","52000","[2,3]","489.5800037914419","192.95693032422776","503.0978884503939"
"","canvas-keyboard-response","158","132782","0.0-6.0-5.21","573","","","","","make choice","187","3","","","catch","sw","sh","l","180","200","216","177","298","160","spektor","null","null","null","null","null","null","null","null","null","null","null","","180","200","260","200","36000","52000","[2,3]","","",""
"","canvas-keyboard-response","159","132800","0.0-6.0-6.21","573","","","","","clear_screen","null","null","","","catch","sw","sh","l","180","200","216","177","298","160","spektor","null","null","null","null","null","null","null","null","null","null","null","","180","200","260","200","36000","52000","[2,3]","","",""
"","canvas-keyboard-response","160","133000","0.0-6.0-0.22","573","","","","","pre trial waiting period","null","null","","","critical","d","t","c","162.6685","237.1485","164","240","240","164","trueblood","0.02","h","164","240","240","164","162.6685","237.1485","39360","39360","38576.5967","tc","null","null","null","null","null","null","[2,3]","428.66037489273793","430.3099040255405","505.35526772133034"
"","canvas-keyboard-response","161","133019","0.0-6.0-1.22","573","","","","","clear_screen","null","null","","","critical","d","t","c","162.6685","237.1485","164","240","240","164","trueblood","0.02","h","164","240","240","164","162.6685","237.1485","39360","39360","38576.5967","tc","null","null","null","null","null","null","[2,3]","428.66037489273793","430.3099040255405","505.35526772133034"
"","canvas-keyboard-response","162","133529","0.0-6.0-2.22","573","","","","","rectangles no change","null","null","","","critical","d","t","c","162.6685","237.1485","164","240","240","164","trueblood","0.02","h","164","240","240","164","162.6685","237.1485","39360","39360","38576.5967","tc","null","null","null","null","null","null","[2,3]","428.66037489273793","430.3099040255405","505.35526772133034"
"","canvas-keyboard-response","163","134864","0.0-6.0-3.22","573","","","","","rectangles with change","null","null","","","critical","d","t","c","162.6685","237.1485","164","240","240","164","trueblood","0.02","h","164","240","240","164","162.6685","237.1485","39360","39360","38576.5967","tc","null","null","null","null","null","null","[2,3]","428.66037489273793","430.3099040255405","505.35526772133034"
"","canvas-keyboard-response","164","134882","0.0-6.0-4.22","573","","","","","clear_screen","null","null","","","critical","d","t","c","162.6685","237.1485","164","240","240","164","trueblood","0.02","h","164","240","240","164","162.6685","237.1485","39360","39360","38576.5967","tc","null","null","null","null","null","null","[2,3]","428.66037489273793","430.3099040255405","505.35526772133034"
"","canvas-keyboard-response","165","135221","0.0-6.0-5.22","573","","","","","make choice","331","3","","","critical","d","t","c","162.6685","237.1485","164","240","240","164","trueblood","0.02","h","164","240","240","164","162.6685","237.1485","39360","39360","38576.5967","tc","null","null","null","null","null","null","[2,3]","","",""
"","canvas-keyboard-response","166","135240","0.0-6.0-6.22","573","","","","","clear_screen","null","null","","","critical","d","t","c","162.6685","237.1485","164","240","240","164","trueblood","0.02","h","164","240","240","164","162.6685","237.1485","39360","39360","38576.5967","tc","null","null","null","null","null","null","[2,3]","","",""
"","canvas-keyboard-response","167","135441","0.0-6.0-0.23","573","","","","","pre trial waiting period","null","null","","","critical","d","t","c","237.1485","162.6685","240","164","164","240","spektor","0.02","w","240","164","164","240","237.1485","162.6685","39360","39360","38576.5967","dc","null","null","null","null","null","null","[1,3]","541.3996610874274","187.57255860659785","478.81297706666476"
"","canvas-keyboard-response","168","135460","0.0-6.0-1.23","573","","","","","clear_screen","null","null","","","critical","d","t","c","237.1485","162.6685","240","164","164","240","spektor","0.02","w","240","164","164","240","237.1485","162.6685","39360","39360","38576.5967","dc","null","null","null","null","null","null","[1,3]","541.3996610874274","187.57255860659785","478.81297706666476"
"","canvas-keyboard-response","169","135972","0.0-6.0-2.23","573","","","","","rectangles no change","null","null","","","critical","d","t","c","237.1485","162.6685","240","164","164","240","spektor","0.02","w","240","164","164","240","237.1485","162.6685","39360","39360","38576.5967","dc","null","null","null","null","null","null","[1,3]","541.3996610874274","187.57255860659785","478.81297706666476"
"","canvas-keyboard-response","170","137307","0.0-6.0-3.23","573","","","","","rectangles with change","null","null","","","critical","d","t","c","237.1485","162.6685","240","164","164","240","spektor","0.02","w","240","164","164","240","237.1485","162.6685","39360","39360","38576.5967","dc","null","null","null","null","null","null","[1,3]","541.3996610874274","187.57255860659785","478.81297706666476"
"","canvas-keyboard-response","171","137325","0.0-6.0-4.23","573","","","","","clear_screen","null","null","","","critical","d","t","c","237.1485","162.6685","240","164","164","240","spektor","0.02","w","240","164","164","240","237.1485","162.6685","39360","39360","38576.5967","dc","null","null","null","null","null","null","[1,3]","541.3996610874274","187.57255860659785","478.81297706666476"
"","canvas-keyboard-response","172","137573","0.0-6.0-5.23","573","","","","","make choice","242","3","","","critical","d","t","c","237.1485","162.6685","240","164","164","240","spektor","0.02","w","240","164","164","240","237.1485","162.6685","39360","39360","38576.5967","dc","null","null","null","null","null","null","[1,3]","","",""
"","canvas-keyboard-response","173","137592","0.0-6.0-6.23","573","","","","","clear_screen","null","null","","","critical","d","t","c","237.1485","162.6685","240","164","164","240","spektor","0.02","w","240","164","164","240","237.1485","162.6685","39360","39360","38576.5967","dc","null","null","null","null","null","null","[1,3]","","",""
"","canvas-keyboard-response","174","137793","0.0-6.0-0.24","573","","","","","pre trial waiting period","null","null","","","critical","d","c","t","227.1683","158.0083","164","240","240","164","trueblood","0.09","w","240","164","164","240","227.1683","158.0083","39360","39360","35894.4834","tc","null","null","null","null","null","null","[3,2]","510.21916854640756","447.8337534697332","496.43915455252824"
"","canvas-keyboard-response","175","137812","0.0-6.0-1.24","573","","","","","clear_screen","null","null","","","critical","d","c","t","227.1683","158.0083","164","240","240","164","trueblood","0.09","w","240","164","164","240","227.1683","158.0083","39360","39360","35894.4834","tc","null","null","null","null","null","null","[3,2]","510.21916854640756","447.8337534697332","496.43915455252824"
"","canvas-keyboard-response","176","138322","0.0-6.0-2.24","573","","","","","rectangles no change","null","null","","","critical","d","c","t","227.1683","158.0083","164","240","240","164","trueblood","0.09","w","240","164","164","240","227.1683","158.0083","39360","39360","35894.4834","tc","null","null","null","null","null","null","[3,2]","510.21916854640756","447.8337534697332","496.43915455252824"
"","canvas-keyboard-response","177","139658","0.0-6.0-3.24","573","","","","","rectangles with change","null","null","","","critical","d","c","t","227.1683","158.0083","164","240","240","164","trueblood","0.09","w","240","164","164","240","227.1683","158.0083","39360","39360","35894.4834","tc","null","null","null","null","null","null","[3,2]","510.21916854640756","447.8337534697332","496.43915455252824"
"","canvas-keyboard-response","178","139678","0.0-6.0-4.24","573","","","","","clear_screen","null","null","","","critical","d","c","t","227.1683","158.0083","164","240","240","164","trueblood","0.09","w","240","164","164","240","227.1683","158.0083","39360","39360","35894.4834","tc","null","null","null","null","null","null","[3,2]","510.21916854640756","447.8337534697332","496.43915455252824"
"","canvas-keyboard-response","179","139798","0.0-6.0-5.24","573","","","","","make choice","110","2","","","critical","d","c","t","227.1683","158.0083","164","240","240","164","trueblood","0.09","w","240","164","164","240","227.1683","158.0083","39360","39360","35894.4834","tc","null","null","null","null","null","null","[3,2]","","",""
"","canvas-keyboard-response","180","139816","0.0-6.0-6.24","573","","","","","clear_screen","null","null","","","critical","d","c","t","227.1683","158.0083","164","240","240","164","trueblood","0.09","w","240","164","164","240","227.1683","158.0083","39360","39360","35894.4834","tc","null","null","null","null","null","null","[3,2]","","",""
"","canvas-keyboard-response","181","140019","0.0-6.0-0.25","573","","","","","pre trial waiting period","null","null","","","critical","c","t","d","240","164","164","240","164","240","spektor","0","h","164","240","240","164","164","240","39360","39360","39360","td","null","null","null","null","null","null","[2,3]","495.29883649191345","135.55438540578268","472.43577849765893"
"","canvas-keyboard-response","182","140038","0.0-6.0-1.25","573","","","","","clear_screen","null","null","","","critical","c","t","d","240","164","164","240","164","240","spektor","0","h","164","240","240","164","164","240","39360","39360","39360","td","null","null","null","null","null","null","[2,3]","495.29883649191345","135.55438540578268","472.43577849765893"
"","canvas-keyboard-response","183","140550","0.0-6.0-2.25","573","","","","","rectangles no change","null","null","","","critical","c","t","d","240","164","164","240","164","240","spektor","0","h","164","240","240","164","164","240","39360","39360","39360","td","null","null","null","null","null","null","[2,3]","495.29883649191345","135.55438540578268","472.43577849765893"
"","canvas-keyboard-response","184","141887","0.0-6.0-3.25","573","","","","","rectangles with change","null","null","","","critical","c","t","d","240","164","164","240","164","240","spektor","0","h","164","240","240","164","164","240","39360","39360","39360","td","null","null","null","null","null","null","[2,3]","495.29883649191345","135.55438540578268","472.43577849765893"
"","canvas-keyboard-response","185","141906","0.0-6.0-4.25","573","","","","","clear_screen","null","null","","","critical","c","t","d","240","164","164","240","164","240","spektor","0","h","164","240","240","164","164","240","39360","39360","39360","td","null","null","null","null","null","null","[2,3]","495.29883649191345","135.55438540578268","472.43577849765893"
"","canvas-keyboard-response","186","141990","0.0-6.0-5.25","573","","","","","make choice","77","3","","","critical","c","t","d","240","164","164","240","164","240","spektor","0","h","164","240","240","164","164","240","39360","39360","39360","td","null","null","null","null","null","null","[2,3]","","",""
"","canvas-keyboard-response","187","142008","0.0-6.0-6.25","573","","","","","clear_screen","null","null","","","critical","c","t","d","240","164","164","240","164","240","spektor","0","h","164","240","240","164","164","240","39360","39360","39360","td","null","null","null","null","null","null","[2,3]","","",""
"","canvas-keyboard-response","188","142210","0.0-6.0-0.26","573","","","","","pre trial waiting period","null","null","","","critical","d","t","c","160.6713","232.8713","164","240","240","164","trueblood","0.05","h","164","240","240","164","160.6713","232.8713","39360","39360","37415.7294","dc","null","null","null","null","null","null","[1,3]","452.3685936165678","434.2853888514597","485.16418294303315"
"","canvas-keyboard-response","189","142230","0.0-6.0-1.26","573","","","","","clear_screen","null","null","","","critical","d","t","c","160.6713","232.8713","164","240","240","164","trueblood","0.05","h","164","240","240","164","160.6713","232.8713","39360","39360","37415.7294","dc","null","null","null","null","null","null","[1,3]","452.3685936165678","434.2853888514597","485.16418294303315"
"","canvas-keyboard-response","190","142746","0.0-6.0-2.26","573","","","","","rectangles no change","null","null","","","critical","d","t","c","160.6713","232.8713","164","240","240","164","trueblood","0.05","h","164","240","240","164","160.6713","232.8713","39360","39360","37415.7294","dc","null","null","null","null","null","null","[1,3]","452.3685936165678","434.2853888514597","485.16418294303315"
"","canvas-keyboard-response","191","144082","0.0-6.0-3.26","573","","","","","rectangles with change","null","null","","","critical","d","t","c","160.6713","232.8713","164","240","240","164","trueblood","0.05","h","164","240","240","164","160.6713","232.8713","39360","39360","37415.7294","dc","null","null","null","null","null","null","[1,3]","452.3685936165678","434.2853888514597","485.16418294303315"
"","canvas-keyboard-response","192","144101","0.0-6.0-4.26","573","","","","","clear_screen","null","null","","","critical","d","t","c","160.6713","232.8713","164","240","240","164","trueblood","0.05","h","164","240","240","164","160.6713","232.8713","39360","39360","37415.7294","dc","null","null","null","null","null","null","[1,3]","452.3685936165678","434.2853888514597","485.16418294303315"
"","canvas-keyboard-response","193","144349","0.0-6.0-5.26","573","","","","","make choice","240","1","","","critical","d","t","c","160.6713","232.8713","164","240","240","164","trueblood","0.05","h","164","240","240","164","160.6713","232.8713","39360","39360","37415.7294","dc","null","null","null","null","null","null","[1,3]","","",""
"","canvas-keyboard-response","194","144369","0.0-6.0-6.26","573","","","","","clear_screen","null","null","","","critical","d","t","c","160.6713","232.8713","164","240","240","164","trueblood","0.05","h","164","240","240","164","160.6713","232.8713","39360","39360","37415.7294","dc","null","null","null","null","null","null","[1,3]","","",""
"","canvas-keyboard-response","195","144570","0.0-6.0-0.27","573","","","","","pre trial waiting period","null","null","","","catch","sw","sh","l","180","200","222","159","221","191","trueblood","null","null","null","null","null","null","null","null","null","null","null","","180","200","260","200","36000","52000","[2,3]","453.08330881520595","519.0561499587509","477.4448040512183"
"","canvas-keyboard-response","196","144590","0.0-6.0-1.27","573","","","","","clear_screen","null","null","","","catch","sw","sh","l","180","200","222","159","221","191","trueblood","null","null","null","null","null","null","null","null","null","null","null","","180","200","260","200","36000","52000","[2,3]","453.08330881520595","519.0561499587509","477.4448040512183"
"","canvas-keyboard-response","197","145101","0.0-6.0-2.27","573","","","","","rectangles no change","null","null","","","catch","sw","sh","l","180","200","222","159","221","191","trueblood","null","null","null","null","null","null","null","null","null","null","null","","180","200","260","200","36000","52000","[2,3]","453.08330881520595","519.0561499587509","477.4448040512183"
"","canvas-keyboard-response","198","146437","0.0-6.0-3.27","573","","","","","rectangles with change","null","null","","","catch","sw","sh","l","180","200","222","159","221","191","trueblood","null","null","null","null","null","null","null","null","null","null","null","","180","200","260","200","36000","52000","[2,3]","453.08330881520595","519.0561499587509","477.4448040512183"
"","canvas-keyboard-response","199","146456","0.0-6.0-4.27","573","","","","","clear_screen","null","null","","","catch","sw","sh","l","180","200","222","159","221","191","trueblood","null","null","null","null","null","null","null","null","null","null","null","","180","200","260","200","36000","52000","[2,3]","453.08330881520595","519.0561499587509","477.4448040512183"
"","canvas-keyboard-response","200","146493","0.0-6.0-5.27","573","","","","","make choice","30","3","","","catch","sw","sh","l","180","200","222","159","221","191","trueblood","null","null","null","null","null","null","null","null","null","null","null","","180","200","260","200","36000","52000","[2,3]","","",""
"","canvas-keyboard-response","201","146513","0.0-6.0-6.27","573","","","","","clear_screen","null","null","","","catch","sw","sh","l","180","200","222","159","221","191","trueblood","null","null","null","null","null","null","null","null","null","null","null","","180","200","260","200","36000","52000","[2,3]","","",""
"","canvas-keyboard-response","202","146714","0.0-6.0-0.28","573","","","","","pre trial waiting period","null","null","","","critical","d","t","c","162.6685","237.1485","164","240","240","164","trueblood","0.02","h","164","240","240","164","162.6685","237.1485","39360","39360","38576.5967","dc","null","null","null","null","null","null","[1,3]","456.37429936330943","466.3813587073227","496.572247530594"
"","canvas-keyboard-response","203","146734","0.0-6.0-1.28","573","","","","","clear_screen","null","null","","","critical","d","t","c","162.6685","237.1485","164","240","240","164","trueblood","0.02","h","164","240","240","164","162.6685","237.1485","39360","39360","38576.5967","dc","null","null","null","null","null","null","[1,3]","456.37429936330943","466.3813587073227","496.572247530594"
"","canvas-keyboard-response","204","147246","0.0-6.0-2.28","573","","","","","rectangles no change","null","null","","","critical","d","t","c","162.6685","237.1485","164","240","240","164","trueblood","0.02","h","164","240","240","164","162.6685","237.1485","39360","39360","38576.5967","dc","null","null","null","null","null","null","[1,3]","456.37429936330943","466.3813587073227","496.572247530594"
"","canvas-keyboard-response","205","148581","0.0-6.0-3.28","573","","","","","rectangles with change","null","null","","","critical","d","t","c","162.6685","237.1485","164","240","240","164","trueblood","0.02","h","164","240","240","164","162.6685","237.1485","39360","39360","38576.5967","dc","null","null","null","null","null","null","[1,3]","456.37429936330943","466.3813587073227","496.572247530594"
"","canvas-keyboard-response","206","148600","0.0-6.0-4.28","573","","","","","clear_screen","null","null","","","critical","d","t","c","162.6685","237.1485","164","240","240","164","trueblood","0.02","h","164","240","240","164","162.6685","237.1485","39360","39360","38576.5967","dc","null","null","null","null","null","null","[1,3]","456.37429936330943","466.3813587073227","496.572247530594"
"","canvas-keyboard-response","207","148862","0.0-6.0-5.28","573","","","","","make choice","254","1","","","critical","d","t","c","162.6685","237.1485","164","240","240","164","trueblood","0.02","h","164","240","240","164","162.6685","237.1485","39360","39360","38576.5967","dc","null","null","null","null","null","null","[1,3]","","",""
"","canvas-keyboard-response","208","148880","0.0-6.0-6.28","573","","","","","clear_screen","null","null","","","critical","d","t","c","162.6685","237.1485","164","240","240","164","trueblood","0.02","h","164","240","240","164","162.6685","237.1485","39360","39360","38576.5967","dc","null","null","null","null","null","null","[1,3]","","",""
"","canvas-keyboard-response","209","149081","0.0-6.0-0.29","573","","","","","pre trial waiting period","null","null","","","catch","sh","l","sw","210","218","202","273","205","236","trueblood","null","null","null","null","null","null","null","null","null","null","null","","180","200","260","200","36000","52000","[2,3]","461.86461294386527","399.1353049492077","438.24096227737715"
"","canvas-keyboard-response","210","149102","0.0-6.0-1.29","573","","","","","clear_screen","null","null","","","catch","sh","l","sw","210","218","202","273","205","236","trueblood","null","null","null","null","null","null","null","null","null","null","null","","180","200","260","200","36000","52000","[2,3]","461.86461294386527","399.1353049492077","438.24096227737715"
"","canvas-keyboard-response","211","149614","0.0-6.0-2.29","573","","","","","rectangles no change","null","null","","","catch","sh","l","sw","210","218","202","273","205","236","trueblood","null","null","null","null","null","null","null","null","null","null","null","","180","200","260","200","36000","52000","[2,3]","461.86461294386527","399.1353049492077","438.24096227737715"
"","canvas-keyboard-response","212","150949","0.0-6.0-3.29","573","","","","","rectangles with change","null","null","","","catch","sh","l","sw","210","218","202","273","205","236","trueblood","null","null","null","null","null","null","null","null","null","null","null","","180","200","260","200","36000","52000","[2,3]","461.86461294386527","399.1353049492077","438.24096227737715"
"","canvas-keyboard-response","213","150969","0.0-6.0-4.29","573","","","","","clear_screen","null","null","","","catch","sh","l","sw","210","218","202","273","205","236","trueblood","null","null","null","null","null","null","null","null","null","null","null","","180","200","260","200","36000","52000","[2,3]","461.86461294386527","399.1353049492077","438.24096227737715"
"","canvas-keyboard-response","214","151174","0.0-6.0-5.29","573","","","","","make choice","188","2","","","catch","sh","l","sw","210","218","202","273","205","236","trueblood","null","null","null","null","null","null","null","null","null","null","null","","180","200","260","200","36000","52000","[2,3]","","",""
"","canvas-keyboard-response","215","151192","0.0-6.0-6.29","573","","","","","clear_screen","null","null","","","catch","sh","l","sw","210","218","202","273","205","236","trueblood","null","null","null","null","null","null","null","null","null","null","null","","180","200","260","200","36000","52000","[2,3]","","",""
"","canvas-keyboard-response","216","151392","0.0-6.0-0.30","573","","","","","pre trial waiting period","null","null","","","critical","c","t","d","240","164","164","240","158.0083","227.1683","spektor","0.09","h","164","240","240","164","158.0083","227.1683","39360","39360","35894.4834","tc","null","null","null","null","null","null","[2,1]","518.5852480909373","103.86054071832821","467.4641694870993"
"","canvas-keyboard-response","217","151413","0.0-6.0-1.30","573","","","","","clear_screen","null","null","","","critical","c","t","d","240","164","164","240","158.0083","227.1683","spektor","0.09","h","164","240","240","164","158.0083","227.1683","39360","39360","35894.4834","tc","null","null","null","null","null","null","[2,1]","518.5852480909373","103.86054071832821","467.4641694870993"
"","canvas-keyboard-response","218","151925","0.0-6.0-2.30","573","","","","","rectangles no change","null","null","","","critical","c","t","d","240","164","164","240","158.0083","227.1683","spektor","0.09","h","164","240","240","164","158.0083","227.1683","39360","39360","35894.4834","tc","null","null","null","null","null","null","[2,1]","518.5852480909373","103.86054071832821","467.4641694870993"
"","canvas-keyboard-response","219","153259","0.0-6.0-3.30","573","","","","","rectangles with change","null","null","","","critical","c","t","d","240","164","164","240","158.0083","227.1683","spektor","0.09","h","164","240","240","164","158.0083","227.1683","39360","39360","35894.4834","tc","null","null","null","null","null","null","[2,1]","518.5852480909373","103.86054071832821","467.4641694870993"
"","canvas-keyboard-response","220","153278","0.0-6.0-4.30","573","","","","","clear_screen","null","null","","","critical","c","t","d","240","164","164","240","158.0083","227.1683","spektor","0.09","h","164","240","240","164","158.0083","227.1683","39360","39360","35894.4834","tc","null","null","null","null","null","null","[2,1]","518.5852480909373","103.86054071832821","467.4641694870993"
"","canvas-keyboard-response","221","153293","0.0-6.0-5.30","573","","","","","make choice","8","1","","","critical","c","t","d","240","164","164","240","158.0083","227.1683","spektor","0.09","h","164","240","240","164","158.0083","227.1683","39360","39360","35894.4834","tc","null","null","null","null","null","null","[2,1]","","",""
"","canvas-keyboard-response","222","153311","0.0-6.0-6.30","573","","","","","clear_screen","null","null","","","critical","c","t","d","240","164","164","240","158.0083","227.1683","spektor","0.09","h","164","240","240","164","158.0083","227.1683","39360","39360","35894.4834","tc","null","null","null","null","null","null","[2,1]","","",""
"","canvas-keyboard-response","223","153512","0.0-6.0-0.31","573","","","","","pre trial waiting period","null","null","","","catch","l","sw","sh","222","238","210","207","190","218","spektor","null","null","null","null","null","null","null","null","null","null","null","","180","200","260","200","36000","52000","[1,3]","474.83511502519207","121.77699455229639","511.3374722145004"
"","canvas-keyboard-response","224","153531","0.0-6.0-1.31","573","","","","","clear_screen","null","null","","","catch","l","sw","sh","222","238","210","207","190","218","spektor","null","null","null","null","null","null","null","null","null","null","null","","180","200","260","200","36000","52000","[1,3]","474.83511502519207","121.77699455229639","511.3374722145004"
"","canvas-keyboard-response","225","154043","0.0-6.0-2.31","573","","","","","rectangles no change","null","null","","","catch","l","sw","sh","222","238","210","207","190","218","spektor","null","null","null","null","null","null","null","null","null","null","null","","180","200","260","200","36000","52000","[1,3]","474.83511502519207","121.77699455229639","511.3374722145004"
"","canvas-keyboard-response","226","155378","0.0-6.0-3.31","573","","","","","rectangles with change","null","null","","","catch","l","sw","sh","222","238","210","207","190","218","spektor","null","null","null","null","null","null","null","null","null","null","null","","180","200","260","200","36000","52000","[1,3]","474.83511502519207","121.77699455229639","511.3374722145004"
"","canvas-keyboard-response","227","155397","0.0-6.0-4.31","573","","","","","clear_screen","null","null","","","catch","l","sw","sh","222","238","210","207","190","218","spektor","null","null","null","null","null","null","null","null","null","null","null","","180","200","260","200","36000","52000","[1,3]","474.83511502519207","121.77699455229639","511.3374722145004"
"","canvas-keyboard-response","228","155621","0.0-6.0-5.31","573","","","","","make choice","216","1","","","catch","l","sw","sh","222","238","210","207","190","218","spektor","null","null","null","null","null","null","null","null","null","null","null","","180","200","260","200","36000","52000","[1,3]","","",""
"","canvas-keyboard-response","229","155639","0.0-6.0-6.31","573","","","","","clear_screen","null","null","","","catch","l","sw","sh","222","238","210","207","190","218","spektor","null","null","null","null","null","null","null","null","null","null","null","","180","200","260","200","36000","52000","[1,3]","","",""
"","canvas-keyboard-response","230","155840","0.0-6.0-0.32","573","","","","","pre trial waiting period","null","null","","","catch","sh","sw","l","176","156","177","184","222","290","trueblood","null","null","null","null","null","null","null","null","null","null","null","","180","200","260","200","36000","52000","[2,3]","485.22580259992947","488.91792437667317","409.4707540133308"
"","canvas-keyboard-response","231","155861","0.0-6.0-1.32","573","","","","","clear_screen","null","null","","","catch","sh","sw","l","176","156","177","184","222","290","trueblood","null","null","null","null","null","null","null","null","null","null","null","","180","200","260","200","36000","52000","[2,3]","485.22580259992947","488.91792437667317","409.4707540133308"
"","canvas-keyboard-response","232","156372","0.0-6.0-2.32","573","","","","","rectangles no change","null","null","","","catch","sh","sw","l","176","156","177","184","222","290","trueblood","null","null","null","null","null","null","null","null","null","null","null","","180","200","260","200","36000","52000","[2,3]","485.22580259992947","488.91792437667317","409.4707540133308"
"","canvas-keyboard-response","233","157706","0.0-6.0-3.32","573","","","","","rectangles with change","null","null","","","catch","sh","sw","l","176","156","177","184","222","290","trueblood","null","null","null","null","null","null","null","null","null","null","null","","180","200","260","200","36000","52000","[2,3]","485.22580259992947","488.91792437667317","409.4707540133308"
"","canvas-keyboard-response","234","157725","0.0-6.0-4.32","573","","","","","clear_screen","null","null","","","catch","sh","sw","l","176","156","177","184","222","290","trueblood","null","null","null","null","null","null","null","null","null","null","null","","180","200","260","200","36000","52000","[2,3]","485.22580259992947","488.91792437667317","409.4707540133308"
"","canvas-keyboard-response","235","158485","0.0-6.0-5.32","573","","","","","make choice","753","3","","","catch","sh","sw","l","176","156","177","184","222","290","trueblood","null","null","null","null","null","null","null","null","null","null","null","","180","200","260","200","36000","52000","[2,3]","","",""
"","canvas-keyboard-response","236","158504","0.0-6.0-6.32","573","","","","","clear_screen","null","null","","","catch","sh","sw","l","176","156","177","184","222","290","trueblood","null","null","null","null","null","null","null","null","null","null","null","","180","200","260","200","36000","52000","[2,3]","","",""
"","canvas-keyboard-response","237","158705","0.0-6.0-0.33","573","","","","","pre trial waiting period","null","null","","","catch","l","sw","sh","269","233","149","211","187","209","spektor","null","null","null","null","null","null","null","null","null","null","null","","180","200","260","200","36000","52000","[1,2]","480.86960828998673","135.74341252345477","505.10615892077715"
"","canvas-keyboard-response","238","158724","0.0-6.0-1.33","573","","","","","clear_screen","null","null","","","catch","l","sw","sh","269","233","149","211","187","209","spektor","null","null","null","null","null","null","null","null","null","null","null","","180","200","260","200","36000","52000","[1,2]","480.86960828998673","135.74341252345477","505.10615892077715"
"","canvas-keyboard-response","239","159240","0.0-6.0-2.33","573","","","","","rectangles no change","null","null","","","catch","l","sw","sh","269","233","149","211","187","209","spektor","null","null","null","null","null","null","null","null","null","null","null","","180","200","260","200","36000","52000","[1,2]","480.86960828998673","135.74341252345477","505.10615892077715"
"","canvas-keyboard-response","240","160576","0.0-6.0-3.33","573","","","","","rectangles with change","null","null","","","catch","l","sw","sh","269","233","149","211","187","209","spektor","null","null","null","null","null","null","null","null","null","null","null","","180","200","260","200","36000","52000","[1,2]","480.86960828998673","135.74341252345477","505.10615892077715"
"","canvas-keyboard-response","241","160594","0.0-6.0-4.33","573","","","","","clear_screen","null","null","","","catch","l","sw","sh","269","233","149","211","187","209","spektor","null","null","null","null","null","null","null","null","null","null","null","","180","200","260","200","36000","52000","[1,2]","480.86960828998673","135.74341252345477","505.10615892077715"
"","canvas-keyboard-response","242","161781","0.0-6.0-5.33","573","","","","","make choice","1177","1","","","catch","l","sw","sh","269","233","149","211","187","209","spektor","null","null","null","null","null","null","null","null","null","null","null","","180","200","260","200","36000","52000","[1,2]","","",""
"","canvas-keyboard-response","243","161800","0.0-6.0-6.33","573","","","","","clear_screen","null","null","","","catch","l","sw","sh","269","233","149","211","187","209","spektor","null","null","null","null","null","null","null","null","null","null","null","","180","200","260","200","36000","52000","[1,2]","","",""
"","canvas-keyboard-response","244","162000","0.0-6.0-0.34","573","","","","","pre trial waiting period","null","null","","","critical","c","d","t","164","240","220.0396","154.6796","240","164","trueblood","0.14","w","240","164","164","240","220.0396","154.6796","39360","39360","34035.6388","td","null","null","null","null","null","null","[3,2]","427.8629663354789","512.2306980698894","506.6066017851878"
"","canvas-keyboard-response","245","162020","0.0-6.0-1.34","573","","","","","clear_screen","null","null","","","critical","c","d","t","164","240","220.0396","154.6796","240","164","trueblood","0.14","w","240","164","164","240","220.0396","154.6796","39360","39360","34035.6388","td","null","null","null","null","null","null","[3,2]","427.8629663354789","512.2306980698894","506.6066017851878"
"","canvas-keyboard-response","246","162530","0.0-6.0-2.34","573","","","","","rectangles no change","null","null","","","critical","c","d","t","164","240","220.0396","154.6796","240","164","trueblood","0.14","w","240","164","164","240","220.0396","154.6796","39360","39360","34035.6388","td","null","null","null","null","null","null","[3,2]","427.8629663354789","512.2306980698894","506.6066017851878"
"","canvas-keyboard-response","247","163866","0.0-6.0-3.34","573","","","","","rectangles with change","null","null","","","critical","c","d","t","164","240","220.0396","154.6796","240","164","trueblood","0.14","w","240","164","164","240","220.0396","154.6796","39360","39360","34035.6388","td","null","null","null","null","null","null","[3,2]","427.8629663354789","512.2306980698894","506.6066017851878"
"","canvas-keyboard-response","248","163884","0.0-6.0-4.34","573","","","","","clear_screen","null","null","","","critical","c","d","t","164","240","220.0396","154.6796","240","164","trueblood","0.14","w","240","164","164","240","220.0396","154.6796","39360","39360","34035.6388","td","null","null","null","null","null","null","[3,2]","427.8629663354789","512.2306980698894","506.6066017851878"
"","canvas-keyboard-response","249","164125","0.0-6.0-5.34","573","","","","","make choice","232","3","","","critical","c","d","t","164","240","220.0396","154.6796","240","164","trueblood","0.14","w","240","164","164","240","220.0396","154.6796","39360","39360","34035.6388","td","null","null","null","null","null","null","[3,2]","","",""
"","canvas-keyboard-response","250","164144","0.0-6.0-6.34","573","","","","","clear_screen","null","null","","","critical","c","d","t","164","240","220.0396","154.6796","240","164","trueblood","0.14","w","240","164","164","240","220.0396","154.6796","39360","39360","34035.6388","td","null","null","null","null","null","null","[3,2]","","",""
"","canvas-keyboard-response","251","164345","0.0-6.0-0.35","573","","","","","pre trial waiting period","null","null","","","catch","sw","sh","l","180","200","219","181","270","199","trueblood","null","null","null","null","null","null","null","null","null","null","null","","180","200","260","200","36000","52000","[1,3]","450.760490727043","488.56045176162485","487.41162871203846"
"","canvas-keyboard-response","252","164364","0.0-6.0-1.35","573","","","","","clear_screen","null","null","","","catch","sw","sh","l","180","200","219","181","270","199","trueblood","null","null","null","null","null","null","null","null","null","null","null","","180","200","260","200","36000","52000","[1,3]","450.760490727043","488.56045176162485","487.41162871203846"
"","canvas-keyboard-response","253","164878","0.0-6.0-2.35","573","","","","","rectangles no change","null","null","","","catch","sw","sh","l","180","200","219","181","270","199","trueblood","null","null","null","null","null","null","null","null","null","null","null","","180","200","260","200","36000","52000","[1,3]","450.760490727043","488.56045176162485","487.41162871203846"
"","canvas-keyboard-response","254","166213","0.0-6.0-3.35","573","","","","","rectangles with change","null","null","","","catch","sw","sh","l","180","200","219","181","270","199","trueblood","null","null","null","null","null","null","null","null","null","null","null","","180","200","260","200","36000","52000","[1,3]","450.760490727043","488.56045176162485","487.41162871203846"
"","canvas-keyboard-response","255","166231","0.0-6.0-4.35","573","","","","","clear_screen","null","null","","","catch","sw","sh","l","180","200","219","181","270","199","trueblood","null","null","null","null","null","null","null","null","null","null","null","","180","200","260","200","36000","52000","[1,3]","450.760490727043","488.56045176162485","487.41162871203846"
"","canvas-keyboard-response","256","166533","0.0-6.0-5.35","573","","","","","make choice","294","3","","","catch","sw","sh","l","180","200","219","181","270","199","trueblood","null","null","null","null","null","null","null","null","null","null","null","","180","200","260","200","36000","52000","[1,3]","","",""
"","canvas-keyboard-response","257","166552","0.0-6.0-6.35","573","","","","","clear_screen","null","null","","","catch","sw","sh","l","180","200","219","181","270","199","trueblood","null","null","null","null","null","null","null","null","null","null","null","","180","200","260","200","36000","52000","[1,3]","","",""
"","canvas-keyboard-response","258","166753","0.0-6.0-0.36","573","","","","","pre trial waiting period","null","null","","","critical","t","c","d","164","240","240","164","154.6796","220.0396","trueblood","0.14","h","164","240","240","164","154.6796","220.0396","39360","39360","34035.6388","td","null","null","null","null","null","null","[1,3]","428.1005022667441","505.7139952822751","446.1108652378492"
"","canvas-keyboard-response","259","166773","0.0-6.0-1.36","573","","","","","clear_screen","null","null","","","critical","t","c","d","164","240","240","164","154.6796","220.0396","trueblood","0.14","h","164","240","240","164","154.6796","220.0396","39360","39360","34035.6388","td","null","null","null","null","null","null","[1,3]","428.1005022667441","505.7139952822751","446.1108652378492"
"","canvas-keyboard-response","260","167282","0.0-6.0-2.36","573","","","","","rectangles no change","null","null","","","critical","t","c","d","164","240","240","164","154.6796","220.0396","trueblood","0.14","h","164","240","240","164","154.6796","220.0396","39360","39360","34035.6388","td","null","null","null","null","null","null","[1,3]","428.1005022667441","505.7139952822751","446.1108652378492"
"","canvas-keyboard-response","261","168617","0.0-6.0-3.36","573","","","","","rectangles with change","null","null","","","critical","t","c","d","164","240","240","164","154.6796","220.0396","trueblood","0.14","h","164","240","240","164","154.6796","220.0396","39360","39360","34035.6388","td","null","null","null","null","null","null","[1,3]","428.1005022667441","505.7139952822751","446.1108652378492"
"","canvas-keyboard-response","262","168636","0.0-6.0-4.36","573","","","","","clear_screen","null","null","","","critical","t","c","d","164","240","240","164","154.6796","220.0396","trueblood","0.14","h","164","240","240","164","154.6796","220.0396","39360","39360","34035.6388","td","null","null","null","null","null","null","[1,3]","428.1005022667441","505.7139952822751","446.1108652378492"
"","canvas-keyboard-response","263","168781","0.0-6.0-5.36","573","","","","","make choice","134","1","","","critical","t","c","d","164","240","240","164","154.6796","220.0396","trueblood","0.14","h","164","240","240","164","154.6796","220.0396","39360","39360","34035.6388","td","null","null","null","null","null","null","[1,3]","","",""
"","canvas-keyboard-response","264","168799","0.0-6.0-6.36","573","","","","","clear_screen","null","null","","","critical","t","c","d","164","240","240","164","154.6796","220.0396","trueblood","0.14","h","164","240","240","164","154.6796","220.0396","39360","39360","34035.6388","td","null","null","null","null","null","null","[1,3]","","",""
"","canvas-keyboard-response","265","169000","0.0-6.0-0.37","573","","","","","pre trial waiting period","null","null","","","catch","l","sh","sw","260","196","218","218","161","190","trueblood","null","null","null","null","null","null","null","null","null","null","null","","180","200","260","200","36000","52000","[1,2]","492.24372862779114","452.03713942912395","485.88492740803093"
"","canvas-keyboard-response","266","169020","0.0-6.0-1.37","573","","","","","clear_screen","null","null","","","catch","l","sh","sw","260","196","218","218","161","190","trueblood","null","null","null","null","null","null","null","null","null","null","null","","180","200","260","200","36000","52000","[1,2]","492.24372862779114","452.03713942912395","485.88492740803093"
"","canvas-keyboard-response","267","169531","0.0-6.0-2.37","573","","","","","rectangles no change","null","null","","","catch","l","sh","sw","260","196","218","218","161","190","trueblood","null","null","null","null","null","null","null","null","null","null","null","","180","200","260","200","36000","52000","[1,2]","492.24372862779114","452.03713942912395","485.88492740803093"
