"success","trial_type","trial_index","time_elapsed","internal_node_id","sub_n","timeout","failed_images","failed_audio","failed_video","screen_id","rt","response","stimulus","view_history","trial","r1","r2","r3","w1","h1","w2","h2","w3","h3","display","tdd","tdo","tw","th","cw","ch","dw","dh","ta","ca","da","probe","csls","csss","clls","clss","sa","la","probe_rects","r1yloc","r2yloc","r3yloc"
"true","fullscreen","0","2794","0.0-0.0","557","","","","","","","","","","","","","","","","","","","","","","","","","","","","","","","","","","","","","","","","","",""
"true","preload","1","2830","0.0-1.0","557","false","[]","[]","[]","img preload","","","","","","","","","","","","","","","","","","","","","","","","","","","","","","","","","","","","",""
"","survey-html-form","2","6975","0.0-2.0","557","","","","","enter-sub-number","4121","{""response"":""557""}","","","","","","","","","","","","","","","","","","","","","","","","","","","","","","","","","","",""
"","image-button-response","3","93552","0.0-3.0","557","","","","","","86450","0","consent.png","","","","","","","","","","","","","","","","","","","","","","","","","","","","","","","","","",""
"","html-button-response","4","99934","0.0-4.0","557","","","","","intro mssg","6379","0","<div style= ""font-size:25px;"" <p> <strong> Welcome! </strong><br> <p style=""color:#8B0000; font-size:25px;""><strong> Please do NOT exit full screen until you are done with the experiment. </strong> </p><p style=""font-size:25px;color:#8B0000;""> <strong> Your data will be lost <br> if you try to go back or refresh the page after the experiment starts. Feel free to click ""previous"" during the instructions, however.</strong> </p><br><p> <strong> Thanks in advance for your contribution to our research! </strong></p>","","","","","","","","","","","","","","","","","","","","","","","","","","","","","","","","","",""
"","instructions","5","150871","0.0-5.0","557","","","","","instructions","50932","","","[{""page_index"":0,""viewing_time"":10837},{""page_index"":1,""viewing_time"":7319},{""page_index"":2,""viewing_time"":6495},{""page_index"":3,""viewing_time"":13577},{""page_index"":4,""viewing_time"":4664},{""page_index"":5,""viewing_time"":2335},{""page_index"":6,""viewing_time"":4296},{""page_index"":7,""viewing_time"":1409}]","","","","","","","","","","","","","","","","","","","","","","","","","","","","","","","","",""
"","canvas-keyboard-response","6","151075","0.0-6.0-0.0","557","","","","","pre trial waiting period","null","null","","","critical","c","d","t","164","240","227.1683","158.0083","240","164","spektor","0.09","w","240","164","164","240","227.1683","158.0083","39360","39360","35894.4834","tc","null","null","null","null","null","null","[3,1]","498.73094686918387","179.9216228847293","524.2184326993948"
"","canvas-keyboard-response","7","151097","0.0-6.0-1.0","557","","","","","clear_screen","null","null","","","critical","c","d","t","164","240","227.1683","158.0083","240","164","spektor","0.09","w","240","164","164","240","227.1683","158.0083","39360","39360","35894.4834","tc","null","null","null","null","null","null","[3,1]","498.73094686918387","179.9216228847293","524.2184326993948"
"","canvas-keyboard-response","8","151615","0.0-6.0-2.0","557","","","","","rectangles no change","null","null","","","critical","c","d","t","164","240","227.1683","158.0083","240","164","spektor","0.09","w","240","164","164","240","227.1683","158.0083","39360","39360","35894.4834","tc","null","null","null","null","null","null","[3,1]","498.73094686918387","179.9216228847293","524.2184326993948"
"","canvas-keyboard-response","9","152954","0.0-6.0-3.0","557","","","","","rectangles with change","null","null","","","critical","c","d","t","164","240","227.1683","158.0083","240","164","spektor","0.09","w","240","164","164","240","227.1683","158.0083","39360","39360","35894.4834","tc","null","null","null","null","null","null","[3,1]","498.73094686918387","179.9216228847293","524.2184326993948"
"","canvas-keyboard-response","10","152973","0.0-6.0-4.0","557","","","","","clear_screen","null","null","","","critical","c","d","t","164","240","227.1683","158.0083","240","164","spektor","0.09","w","240","164","164","240","227.1683","158.0083","39360","39360","35894.4834","tc","null","null","null","null","null","null","[3,1]","498.73094686918387","179.9216228847293","524.2184326993948"
"","canvas-keyboard-response","11","157891","0.0-6.0-5.0","557","","","","","make choice","4906","1","","","critical","c","d","t","164","240","227.1683","158.0083","240","164","spektor","0.09","w","240","164","164","240","227.1683","158.0083","39360","39360","35894.4834","tc","null","null","null","null","null","null","[3,1]","","",""
"","canvas-keyboard-response","12","157909","0.0-6.0-6.0","557","","","","","clear_screen","null","null","","","critical","c","d","t","164","240","227.1683","158.0083","240","164","spektor","0.09","w","240","164","164","240","227.1683","158.0083","39360","39360","35894.4834","tc","null","null","null","null","null","null","[3,1]","","",""
"","canvas-keyboard-response","13","158110","0.0-6.0-0.1","557","","","","","pre trial waiting period","null","null","","","critical","d","t","c","158.0083","227.1683","164","240","240","164","spektor","0.09","h","164","240","240","164","158.0083","227.1683","39360","39360","35894.4834","dc","null","null","null","null","null","null","[1,3]","467.79196925291745","118.17325393245912","514.8232472752868"
"","canvas-keyboard-response","14","158129","0.0-6.0-1.1","557","","","","","clear_screen","null","null","","","critical","d","t","c","158.0083","227.1683","164","240","240","164","spektor","0.09","h","164","240","240","164","158.0083","227.1683","39360","39360","35894.4834","dc","null","null","null","null","null","null","[1,3]","467.79196925291745","118.17325393245912","514.8232472752868"
"","canvas-keyboard-response","15","158641","0.0-6.0-2.1","557","","","","","rectangles no change","null","null","","","critical","d","t","c","158.0083","227.1683","164","240","240","164","spektor","0.09","h","164","240","240","164","158.0083","227.1683","39360","39360","35894.4834","dc","null","null","null","null","null","null","[1,3]","467.79196925291745","118.17325393245912","514.8232472752868"
"","canvas-keyboard-response","16","159976","0.0-6.0-3.1","557","","","","","rectangles with change","null","null","","","critical","d","t","c","158.0083","227.1683","164","240","240","164","spektor","0.09","h","164","240","240","164","158.0083","227.1683","39360","39360","35894.4834","dc","null","null","null","null","null","null","[1,3]","467.79196925291745","118.17325393245912","514.8232472752868"
"","canvas-keyboard-response","17","159995","0.0-6.0-4.1","557","","","","","clear_screen","null","null","","","critical","d","t","c","158.0083","227.1683","164","240","240","164","spektor","0.09","h","164","240","240","164","158.0083","227.1683","39360","39360","35894.4834","dc","null","null","null","null","null","null","[1,3]","467.79196925291745","118.17325393245912","514.8232472752868"
"","canvas-keyboard-response","18","161938","0.0-6.0-5.1","557","","","","","make choice","1925","3","","","critical","d","t","c","158.0083","227.1683","164","240","240","164","spektor","0.09","h","164","240","240","164","158.0083","227.1683","39360","39360","35894.4834","dc","null","null","null","null","null","null","[1,3]","","",""
"","canvas-keyboard-response","19","161955","0.0-6.0-6.1","557","","","","","clear_screen","null","null","","","critical","d","t","c","158.0083","227.1683","164","240","240","164","spektor","0.09","h","164","240","240","164","158.0083","227.1683","39360","39360","35894.4834","dc","null","null","null","null","null","null","[1,3]","","",""
"","canvas-keyboard-response","20","162157","0.0-6.0-0.2","557","","","","","pre trial waiting period","null","null","","","critical","d","t","c","162.6685","237.1485","164","240","240","164","spektor","0.02","h","164","240","240","164","162.6685","237.1485","39360","39360","38576.5967","tc","null","null","null","null","null","null","[2,3]","494.3608511601509","111.66827354989938","523.3073446430217"
"","canvas-keyboard-response","21","162177","0.0-6.0-1.2","557","","","","","clear_screen","null","null","","","critical","d","t","c","162.6685","237.1485","164","240","240","164","spektor","0.02","h","164","240","240","164","162.6685","237.1485","39360","39360","38576.5967","tc","null","null","null","null","null","null","[2,3]","494.3608511601509","111.66827354989938","523.3073446430217"
"","canvas-keyboard-response","22","162685","0.0-6.0-2.2","557","","","","","rectangles no change","null","null","","","critical","d","t","c","162.6685","237.1485","164","240","240","164","spektor","0.02","h","164","240","240","164","162.6685","237.1485","39360","39360","38576.5967","tc","null","null","null","null","null","null","[2,3]","494.3608511601509","111.66827354989938","523.3073446430217"
"","canvas-keyboard-response","23","164021","0.0-6.0-3.2","557","","","","","rectangles with change","null","null","","","critical","d","t","c","162.6685","237.1485","164","240","240","164","spektor","0.02","h","164","240","240","164","162.6685","237.1485","39360","39360","38576.5967","tc","null","null","null","null","null","null","[2,3]","494.3608511601509","111.66827354989938","523.3073446430217"
"","canvas-keyboard-response","24","164041","0.0-6.0-4.2","557","","","","","clear_screen","null","null","","","critical","d","t","c","162.6685","237.1485","164","240","240","164","spektor","0.02","h","164","240","240","164","162.6685","237.1485","39360","39360","38576.5967","tc","null","null","null","null","null","null","[2,3]","494.3608511601509","111.66827354989938","523.3073446430217"
"","canvas-keyboard-response","25","166514","0.0-6.0-5.2","557","","","","","make choice","2465","3","","","critical","d","t","c","162.6685","237.1485","164","240","240","164","spektor","0.02","h","164","240","240","164","162.6685","237.1485","39360","39360","38576.5967","tc","null","null","null","null","null","null","[2,3]","","",""
"","canvas-keyboard-response","26","166531","0.0-6.0-6.2","557","","","","","clear_screen","null","null","","","critical","d","t","c","162.6685","237.1485","164","240","240","164","spektor","0.02","h","164","240","240","164","162.6685","237.1485","39360","39360","38576.5967","tc","null","null","null","null","null","null","[2,3]","","",""
"","canvas-keyboard-response","27","166732","0.0-6.0-0.3","557","","","","","pre trial waiting period","null","null","","","critical","c","t","d","240","164","164","240","162.6685","237.1485","trueblood","0.02","h","164","240","240","164","162.6685","237.1485","39360","39360","38576.5967","tc","null","null","null","null","null","null","[2,1]","497.90073311255503","450.8124153572626","456.81627977136327"
"","canvas-keyboard-response","28","166753","0.0-6.0-1.3","557","","","","","clear_screen","null","null","","","critical","c","t","d","240","164","164","240","162.6685","237.1485","trueblood","0.02","h","164","240","240","164","162.6685","237.1485","39360","39360","38576.5967","tc","null","null","null","null","null","null","[2,1]","497.90073311255503","450.8124153572626","456.81627977136327"
"","canvas-keyboard-response","29","167267","0.0-6.0-2.3","557","","","","","rectangles no change","null","null","","","critical","c","t","d","240","164","164","240","162.6685","237.1485","trueblood","0.02","h","164","240","240","164","162.6685","237.1485","39360","39360","38576.5967","tc","null","null","null","null","null","null","[2,1]","497.90073311255503","450.8124153572626","456.81627977136327"
"","canvas-keyboard-response","30","168602","0.0-6.0-3.3","557","","","","","rectangles with change","null","null","","","critical","c","t","d","240","164","164","240","162.6685","237.1485","trueblood","0.02","h","164","240","240","164","162.6685","237.1485","39360","39360","38576.5967","tc","null","null","null","null","null","null","[2,1]","497.90073311255503","450.8124153572626","456.81627977136327"
"","canvas-keyboard-response","31","168621","0.0-6.0-4.3","557","","","","","clear_screen","null","null","","","critical","c","t","d","240","164","164","240","162.6685","237.1485","trueblood","0.02","h","164","240","240","164","162.6685","237.1485","39360","39360","38576.5967","tc","null","null","null","null","null","null","[2,1]","497.90073311255503","450.8124153572626","456.81627977136327"
"","canvas-keyboard-response","32","169713","0.0-6.0-5.3","557","","","","","make choice","1084","2","","","critical","c","t","d","240","164","164","240","162.6685","237.1485","trueblood","0.02","h","164","240","240","164","162.6685","237.1485","39360","39360","38576.5967","tc","null","null","null","null","null","null","[2,1]","","",""
"","canvas-keyboard-response","33","169731","0.0-6.0-6.3","557","","","","","clear_screen","null","null","","","critical","c","t","d","240","164","164","240","162.6685","237.1485","trueblood","0.02","h","164","240","240","164","162.6685","237.1485","39360","39360","38576.5967","tc","null","null","null","null","null","null","[2,1]","","",""
"","canvas-keyboard-response","34","169932","0.0-6.0-0.4","557","","","","","pre trial waiting period","null","null","","","catch","sh","sw","l","173","159","195","199","287","227","spektor","null","null","null","null","null","null","null","null","null","null","null","","180","200","260","200","36000","52000","[1,3]","507.7581727710301","165.35809213781351","493.0503055304578"
"","canvas-keyboard-response","35","169952","0.0-6.0-1.4","557","","","","","clear_screen","null","null","","","catch","sh","sw","l","173","159","195","199","287","227","spektor","null","null","null","null","null","null","null","null","null","null","null","","180","200","260","200","36000","52000","[1,3]","507.7581727710301","165.35809213781351","493.0503055304578"
"","canvas-keyboard-response","36","170465","0.0-6.0-2.4","557","","","","","rectangles no change","null","null","","","catch","sh","sw","l","173","159","195","199","287","227","spektor","null","null","null","null","null","null","null","null","null","null","null","","180","200","260","200","36000","52000","[1,3]","507.7581727710301","165.35809213781351","493.0503055304578"
"","canvas-keyboard-response","37","171801","0.0-6.0-3.4","557","","","","","rectangles with change","null","null","","","catch","sh","sw","l","173","159","195","199","287","227","spektor","null","null","null","null","null","null","null","null","null","null","null","","180","200","260","200","36000","52000","[1,3]","507.7581727710301","165.35809213781351","493.0503055304578"
"","canvas-keyboard-response","38","171818","0.0-6.0-4.4","557","","","","","clear_screen","null","null","","","catch","sh","sw","l","173","159","195","199","287","227","spektor","null","null","null","null","null","null","null","null","null","null","null","","180","200","260","200","36000","52000","[1,3]","507.7581727710301","165.35809213781351","493.0503055304578"
"","canvas-keyboard-response","39","172842","0.0-6.0-5.4","557","","","","","make choice","1015","3","","","catch","sh","sw","l","173","159","195","199","287","227","spektor","null","null","null","null","null","null","null","null","null","null","null","","180","200","260","200","36000","52000","[1,3]","","",""
"","canvas-keyboard-response","40","172863","0.0-6.0-6.4","557","","","","","clear_screen","null","null","","","catch","sh","sw","l","173","159","195","199","287","227","spektor","null","null","null","null","null","null","null","null","null","null","null","","180","200","260","200","36000","52000","[1,3]","","",""
"","canvas-keyboard-response","41","173065","0.0-6.0-0.5","557","","","","","pre trial waiting period","null","null","","","critical","c","t","d","240","164","164","240","162.6685","237.1485","trueblood","0.02","h","164","240","240","164","162.6685","237.1485","39360","39360","38576.5967","dc","null","null","null","null","null","null","[3,1]","502.1267685699367","442.6347243519177","430.5091873705774"
"","canvas-keyboard-response","42","173083","0.0-6.0-1.5","557","","","","","clear_screen","null","null","","","critical","c","t","d","240","164","164","240","162.6685","237.1485","trueblood","0.02","h","164","240","240","164","162.6685","237.1485","39360","39360","38576.5967","dc","null","null","null","null","null","null","[3,1]","502.1267685699367","442.6347243519177","430.5091873705774"
"","canvas-keyboard-response","43","173592","0.0-6.0-2.5","557","","","","","rectangles no change","null","null","","","critical","c","t","d","240","164","164","240","162.6685","237.1485","trueblood","0.02","h","164","240","240","164","162.6685","237.1485","39360","39360","38576.5967","dc","null","null","null","null","null","null","[3,1]","502.1267685699367","442.6347243519177","430.5091873705774"
"","canvas-keyboard-response","44","174927","0.0-6.0-3.5","557","","","","","rectangles with change","null","null","","","critical","c","t","d","240","164","164","240","162.6685","237.1485","trueblood","0.02","h","164","240","240","164","162.6685","237.1485","39360","39360","38576.5967","dc","null","null","null","null","null","null","[3,1]","502.1267685699367","442.6347243519177","430.5091873705774"
"","canvas-keyboard-response","45","174944","0.0-6.0-4.5","557","","","","","clear_screen","null","null","","","critical","c","t","d","240","164","164","240","162.6685","237.1485","trueblood","0.02","h","164","240","240","164","162.6685","237.1485","39360","39360","38576.5967","dc","null","null","null","null","null","null","[3,1]","502.1267685699367","442.6347243519177","430.5091873705774"
"","canvas-keyboard-response","46","175666","0.0-6.0-5.5","557","","","","","make choice","715","1","","","critical","c","t","d","240","164","164","240","162.6685","237.1485","trueblood","0.02","h","164","240","240","164","162.6685","237.1485","39360","39360","38576.5967","dc","null","null","null","null","null","null","[3,1]","","",""
"","canvas-keyboard-response","47","175684","0.0-6.0-6.5","557","","","","","clear_screen","null","null","","","critical","c","t","d","240","164","164","240","162.6685","237.1485","trueblood","0.02","h","164","240","240","164","162.6685","237.1485","39360","39360","38576.5967","dc","null","null","null","null","null","null","[3,1]","","",""
"","canvas-keyboard-response","48","175884","0.0-6.0-0.6","557","","","","","pre trial waiting period","null","null","","","catch","sh","l","sw","175","147","217","243","153","173","trueblood","null","null","null","null","null","null","null","null","null","null","null","","180","200","260","200","36000","52000","[2,3]","517.7109645261481","426.10575928201166","479.52948157234164"
"","canvas-keyboard-response","49","175905","0.0-6.0-1.6","557","","","","","clear_screen","null","null","","","catch","sh","l","sw","175","147","217","243","153","173","trueblood","null","null","null","null","null","null","null","null","null","null","null","","180","200","260","200","36000","52000","[2,3]","517.7109645261481","426.10575928201166","479.52948157234164"
"","canvas-keyboard-response","50","176415","0.0-6.0-2.6","557","","","","","rectangles no change","null","null","","","catch","sh","l","sw","175","147","217","243","153","173","trueblood","null","null","null","null","null","null","null","null","null","null","null","","180","200","260","200","36000","52000","[2,3]","517.7109645261481","426.10575928201166","479.52948157234164"
"","canvas-keyboard-response","51","177749","0.0-6.0-3.6","557","","","","","rectangles with change","null","null","","","catch","sh","l","sw","175","147","217","243","153","173","trueblood","null","null","null","null","null","null","null","null","null","null","null","","180","200","260","200","36000","52000","[2,3]","517.7109645261481","426.10575928201166","479.52948157234164"
"","canvas-keyboard-response","52","177767","0.0-6.0-4.6","557","","","","","clear_screen","null","null","","","catch","sh","l","sw","175","147","217","243","153","173","trueblood","null","null","null","null","null","null","null","null","null","null","null","","180","200","260","200","36000","52000","[2,3]","517.7109645261481","426.10575928201166","479.52948157234164"
"","canvas-keyboard-response","53","178554","0.0-6.0-5.6","557","","","","","make choice","779","2","","","catch","sh","l","sw","175","147","217","243","153","173","trueblood","null","null","null","null","null","null","null","null","null","null","null","","180","200","260","200","36000","52000","[2,3]","","",""
"","canvas-keyboard-response","54","178574","0.0-6.0-6.6","557","","","","","clear_screen","null","null","","","catch","sh","l","sw","175","147","217","243","153","173","trueblood","null","null","null","null","null","null","null","null","null","null","null","","180","200","260","200","36000","52000","[2,3]","","",""
"","canvas-keyboard-response","55","178777","0.0-6.0-0.7","557","","","","","pre trial waiting period","null","null","","","catch","l","sh","sw","219","224","166","160","211","235","spektor","null","null","null","null","null","null","null","null","null","null","null","","180","200","260","200","36000","52000","[1,2]","489.9152108297685","170.30649083073217","473.1619806838492"
"","canvas-keyboard-response","56","178798","0.0-6.0-1.7","557","","","","","clear_screen","null","null","","","catch","l","sh","sw","219","224","166","160","211","235","spektor","null","null","null","null","null","null","null","null","null","null","null","","180","200","260","200","36000","52000","[1,2]","489.9152108297685","170.30649083073217","473.1619806838492"
"","canvas-keyboard-response","57","179307","0.0-6.0-2.7","557","","","","","rectangles no change","null","null","","","catch","l","sh","sw","219","224","166","160","211","235","spektor","null","null","null","null","null","null","null","null","null","null","null","","180","200","260","200","36000","52000","[1,2]","489.9152108297685","170.30649083073217","473.1619806838492"
"","canvas-keyboard-response","58","180644","0.0-6.0-3.7","557","","","","","rectangles with change","null","null","","","catch","l","sh","sw","219","224","166","160","211","235","spektor","null","null","null","null","null","null","null","null","null","null","null","","180","200","260","200","36000","52000","[1,2]","489.9152108297685","170.30649083073217","473.1619806838492"
"","canvas-keyboard-response","59","180662","0.0-6.0-4.7","557","","","","","clear_screen","null","null","","","catch","l","sh","sw","219","224","166","160","211","235","spektor","null","null","null","null","null","null","null","null","null","null","null","","180","200","260","200","36000","52000","[1,2]","489.9152108297685","170.30649083073217","473.1619806838492"
"","canvas-keyboard-response","60","181297","0.0-6.0-5.7","557","","","","","make choice","629","1","","","catch","l","sh","sw","219","224","166","160","211","235","spektor","null","null","null","null","null","null","null","null","null","null","null","","180","200","260","200","36000","52000","[1,2]","","",""
"","canvas-keyboard-response","61","181317","0.0-6.0-6.7","557","","","","","clear_screen","null","null","","","catch","l","sh","sw","219","224","166","160","211","235","spektor","null","null","null","null","null","null","null","null","null","null","null","","180","200","260","200","36000","52000","[1,2]","","",""
"","canvas-keyboard-response","62","181518","0.0-6.0-0.8","557","","","","","pre trial waiting period","null","null","","","critical","c","d","t","240","164","158.0083","227.1683","164","240","spektor","0.09","h","164","240","240","164","158.0083","227.1683","39360","39360","35894.4834","tc","null","null","null","null","null","null","[3,1]","525.6703126776472","103.88051266828019","473.84911944907816"
"","canvas-keyboard-response","63","181539","0.0-6.0-1.8","557","","","","","clear_screen","null","null","","","critical","c","d","t","240","164","158.0083","227.1683","164","240","spektor","0.09","h","164","240","240","164","158.0083","227.1683","39360","39360","35894.4834","tc","null","null","null","null","null","null","[3,1]","525.6703126776472","103.88051266828019","473.84911944907816"
"","canvas-keyboard-response","64","182051","0.0-6.0-2.8","557","","","","","rectangles no change","null","null","","","critical","c","d","t","240","164","158.0083","227.1683","164","240","spektor","0.09","h","164","240","240","164","158.0083","227.1683","39360","39360","35894.4834","tc","null","null","null","null","null","null","[3,1]","525.6703126776472","103.88051266828019","473.84911944907816"
"","canvas-keyboard-response","65","183387","0.0-6.0-3.8","557","","","","","rectangles with change","null","null","","","critical","c","d","t","240","164","158.0083","227.1683","164","240","spektor","0.09","h","164","240","240","164","158.0083","227.1683","39360","39360","35894.4834","tc","null","null","null","null","null","null","[3,1]","525.6703126776472","103.88051266828019","473.84911944907816"
"","canvas-keyboard-response","66","183406","0.0-6.0-4.8","557","","","","","clear_screen","null","null","","","critical","c","d","t","240","164","158.0083","227.1683","164","240","spektor","0.09","h","164","240","240","164","158.0083","227.1683","39360","39360","35894.4834","tc","null","null","null","null","null","null","[3,1]","525.6703126776472","103.88051266828019","473.84911944907816"
"","canvas-keyboard-response","67","183850","0.0-6.0-5.8","557","","","","","make choice","436","3","","","critical","c","d","t","240","164","158.0083","227.1683","164","240","spektor","0.09","h","164","240","240","164","158.0083","227.1683","39360","39360","35894.4834","tc","null","null","null","null","null","null","[3,1]","","",""
"","canvas-keyboard-response","68","183870","0.0-6.0-6.8","557","","","","","clear_screen","null","null","","","critical","c","d","t","240","164","158.0083","227.1683","164","240","spektor","0.09","h","164","240","240","164","158.0083","227.1683","39360","39360","35894.4834","tc","null","null","null","null","null","null","[3,1]","","",""
"","canvas-keyboard-response","69","184071","0.0-6.0-0.9","557","","","","","pre trial waiting period","null","null","","","critical","c","t","d","240","164","164","240","160.6713","232.8713","trueblood","0.05","h","164","240","240","164","160.6713","232.8713","39360","39360","37415.7294","td","null","null","null","null","null","null","[2,3]","484.15099753198973","423.0020718862375","447.1967086371022"
"","canvas-keyboard-response","70","184090","0.0-6.0-1.9","557","","","","","clear_screen","null","null","","","critical","c","t","d","240","164","164","240","160.6713","232.8713","trueblood","0.05","h","164","240","240","164","160.6713","232.8713","39360","39360","37415.7294","td","null","null","null","null","null","null","[2,3]","484.15099753198973","423.0020718862375","447.1967086371022"
"","canvas-keyboard-response","71","184600","0.0-6.0-2.9","557","","","","","rectangles no change","null","null","","","critical","c","t","d","240","164","164","240","160.6713","232.8713","trueblood","0.05","h","164","240","240","164","160.6713","232.8713","39360","39360","37415.7294","td","null","null","null","null","null","null","[2,3]","484.15099753198973","423.0020718862375","447.1967086371022"
"","canvas-keyboard-response","72","185935","0.0-6.0-3.9","557","","","","","rectangles with change","null","null","","","critical","c","t","d","240","164","164","240","160.6713","232.8713","trueblood","0.05","h","164","240","240","164","160.6713","232.8713","39360","39360","37415.7294","td","null","null","null","null","null","null","[2,3]","484.15099753198973","423.0020718862375","447.1967086371022"
"","canvas-keyboard-response","73","185955","0.0-6.0-4.9","557","","","","","clear_screen","null","null","","","critical","c","t","d","240","164","164","240","160.6713","232.8713","trueblood","0.05","h","164","240","240","164","160.6713","232.8713","39360","39360","37415.7294","td","null","null","null","null","null","null","[2,3]","484.15099753198973","423.0020718862375","447.1967086371022"
"","canvas-keyboard-response","74","186498","0.0-6.0-5.9","557","","","","","make choice","535","2","","","critical","c","t","d","240","164","164","240","160.6713","232.8713","trueblood","0.05","h","164","240","240","164","160.6713","232.8713","39360","39360","37415.7294","td","null","null","null","null","null","null","[2,3]","","",""
"","canvas-keyboard-response","75","186516","0.0-6.0-6.9","557","","","","","clear_screen","null","null","","","critical","c","t","d","240","164","164","240","160.6713","232.8713","trueblood","0.05","h","164","240","240","164","160.6713","232.8713","39360","39360","37415.7294","td","null","null","null","null","null","null","[2,3]","","",""
"","canvas-keyboard-response","76","186717","0.0-6.0-0.10","557","","","","","pre trial waiting period","null","null","","","critical","d","t","c","227.1683","158.0083","240","164","164","240","trueblood","0.09","w","240","164","164","240","227.1683","158.0083","39360","39360","35894.4834","dc","null","null","null","null","null","null","[1,3]","485.7628308679462","512.1482181883187","450.2275740104269"
"","canvas-keyboard-response","77","186738","0.0-6.0-1.10","557","","","","","clear_screen","null","null","","","critical","d","t","c","227.1683","158.0083","240","164","164","240","trueblood","0.09","w","240","164","164","240","227.1683","158.0083","39360","39360","35894.4834","dc","null","null","null","null","null","null","[1,3]","485.7628308679462","512.1482181883187","450.2275740104269"
"","canvas-keyboard-response","78","187253","0.0-6.0-2.10","557","","","","","rectangles no change","null","null","","","critical","d","t","c","227.1683","158.0083","240","164","164","240","trueblood","0.09","w","240","164","164","240","227.1683","158.0083","39360","39360","35894.4834","dc","null","null","null","null","null","null","[1,3]","485.7628308679462","512.1482181883187","450.2275740104269"
"","canvas-keyboard-response","79","188588","0.0-6.0-3.10","557","","","","","rectangles with change","null","null","","","critical","d","t","c","227.1683","158.0083","240","164","164","240","trueblood","0.09","w","240","164","164","240","227.1683","158.0083","39360","39360","35894.4834","dc","null","null","null","null","null","null","[1,3]","485.7628308679462","512.1482181883187","450.2275740104269"
"","canvas-keyboard-response","80","188606","0.0-6.0-4.10","557","","","","","clear_screen","null","null","","","critical","d","t","c","227.1683","158.0083","240","164","164","240","trueblood","0.09","w","240","164","164","240","227.1683","158.0083","39360","39360","35894.4834","dc","null","null","null","null","null","null","[1,3]","485.7628308679462","512.1482181883187","450.2275740104269"
"","canvas-keyboard-response","81","189298","0.0-6.0-5.10","557","","","","","make choice","682","3","","","critical","d","t","c","227.1683","158.0083","240","164","164","240","trueblood","0.09","w","240","164","164","240","227.1683","158.0083","39360","39360","35894.4834","dc","null","null","null","null","null","null","[1,3]","","",""
"","canvas-keyboard-response","82","189316","0.0-6.0-6.10","557","","","","","clear_screen","null","null","","","critical","d","t","c","227.1683","158.0083","240","164","164","240","trueblood","0.09","w","240","164","164","240","227.1683","158.0083","39360","39360","35894.4834","dc","null","null","null","null","null","null","[1,3]","","",""
"","canvas-keyboard-response","83","189516","0.0-6.0-0.11","557","","","","","pre trial waiting period","null","null","","","catch","sw","sh","l","180","200","184","165","280","190","spektor","null","null","null","null","null","null","null","null","null","null","null","","180","200","260","200","36000","52000","[2,3]","475.33071057583123","175.92688596402587","529.8753953131775"
"","canvas-keyboard-response","84","189536","0.0-6.0-1.11","557","","","","","clear_screen","null","null","","","catch","sw","sh","l","180","200","184","165","280","190","spektor","null","null","null","null","null","null","null","null","null","null","null","","180","200","260","200","36000","52000","[2,3]","475.33071057583123","175.92688596402587","529.8753953131775"
"","canvas-keyboard-response","85","190048","0.0-6.0-2.11","557","","","","","rectangles no change","null","null","","","catch","sw","sh","l","180","200","184","165","280","190","spektor","null","null","null","null","null","null","null","null","null","null","null","","180","200","260","200","36000","52000","[2,3]","475.33071057583123","175.92688596402587","529.8753953131775"
"","canvas-keyboard-response","86","191383","0.0-6.0-3.11","557","","","","","rectangles with change","null","null","","","catch","sw","sh","l","180","200","184","165","280","190","spektor","null","null","null","null","null","null","null","null","null","null","null","","180","200","260","200","36000","52000","[2,3]","475.33071057583123","175.92688596402587","529.8753953131775"
"","canvas-keyboard-response","87","191401","0.0-6.0-4.11","557","","","","","clear_screen","null","null","","","catch","sw","sh","l","180","200","184","165","280","190","spektor","null","null","null","null","null","null","null","null","null","null","null","","180","200","260","200","36000","52000","[2,3]","475.33071057583123","175.92688596402587","529.8753953131775"
"","canvas-keyboard-response","88","192106","0.0-6.0-5.11","557","","","","","make choice","696","3","","","catch","sw","sh","l","180","200","184","165","280","190","spektor","null","null","null","null","null","null","null","null","null","null","null","","180","200","260","200","36000","52000","[2,3]","","",""
"","canvas-keyboard-response","89","192124","0.0-6.0-6.11","557","","","","","clear_screen","null","null","","","catch","sw","sh","l","180","200","184","165","280","190","spektor","null","null","null","null","null","null","null","null","null","null","null","","180","200","260","200","36000","52000","[2,3]","","",""
"","canvas-keyboard-response","90","192325","0.0-6.0-0.12","557","","","","","pre trial waiting period","null","null","","","critical","d","t","c","164","240","164","240","240","164","trueblood","0","h","164","240","240","164","164","240","39360","39360","39360","tc","null","null","null","null","null","null","[2,3]","440.2071729970779","458.0729968523824","512.7117817968913"
"","canvas-keyboard-response","91","192344","0.0-6.0-1.12","557","","","","","clear_screen","null","null","","","critical","d","t","c","164","240","164","240","240","164","trueblood","0","h","164","240","240","164","164","240","39360","39360","39360","tc","null","null","null","null","null","null","[2,3]","440.2071729970779","458.0729968523824","512.7117817968913"
"","canvas-keyboard-response","92","192853","0.0-6.0-2.12","557","","","","","rectangles no change","null","null","","","critical","d","t","c","164","240","164","240","240","164","trueblood","0","h","164","240","240","164","164","240","39360","39360","39360","tc","null","null","null","null","null","null","[2,3]","440.2071729970779","458.0729968523824","512.7117817968913"
"","canvas-keyboard-response","93","194188","0.0-6.0-3.12","557","","","","","rectangles with change","null","null","","","critical","d","t","c","164","240","164","240","240","164","trueblood","0","h","164","240","240","164","164","240","39360","39360","39360","tc","null","null","null","null","null","null","[2,3]","440.2071729970779","458.0729968523824","512.7117817968913"
"","canvas-keyboard-response","94","194205","0.0-6.0-4.12","557","","","","","clear_screen","null","null","","","critical","d","t","c","164","240","164","240","240","164","trueblood","0","h","164","240","240","164","164","240","39360","39360","39360","tc","null","null","null","null","null","null","[2,3]","440.2071729970779","458.0729968523824","512.7117817968913"
"","canvas-keyboard-response","95","194986","0.0-6.0-5.12","557","","","","","make choice","772","3","","","critical","d","t","c","164","240","164","240","240","164","trueblood","0","h","164","240","240","164","164","240","39360","39360","39360","tc","null","null","null","null","null","null","[2,3]","","",""
"","canvas-keyboard-response","96","195004","0.0-6.0-6.12","557","","","","","clear_screen","null","null","","","critical","d","t","c","164","240","164","240","240","164","trueblood","0","h","164","240","240","164","164","240","39360","39360","39360","tc","null","null","null","null","null","null","[2,3]","","",""
"","canvas-keyboard-response","97","195205","0.0-6.0-0.13","557","","","","","pre trial waiting period","null","null","","","catch","sw","sh","l","180","200","171","184","203","272","spektor","null","null","null","null","null","null","null","null","null","null","null","","180","200","260","200","36000","52000","[2,3]","500.0152084694747","175.23891357930302","471.8483349503823"
"","canvas-keyboard-response","98","195224","0.0-6.0-1.13","557","","","","","clear_screen","null","null","","","catch","sw","sh","l","180","200","171","184","203","272","spektor","null","null","null","null","null","null","null","null","null","null","null","","180","200","260","200","36000","52000","[2,3]","500.0152084694747","175.23891357930302","471.8483349503823"
"","canvas-keyboard-response","99","195734","0.0-6.0-2.13","557","","","","","rectangles no change","null","null","","","catch","sw","sh","l","180","200","171","184","203","272","spektor","null","null","null","null","null","null","null","null","null","null","null","","180","200","260","200","36000","52000","[2,3]","500.0152084694747","175.23891357930302","471.8483349503823"
"","canvas-keyboard-response","100","197067","0.0-6.0-3.13","557","","","","","rectangles with change","null","null","","","catch","sw","sh","l","180","200","171","184","203","272","spektor","null","null","null","null","null","null","null","null","null","null","null","","180","200","260","200","36000","52000","[2,3]","500.0152084694747","175.23891357930302","471.8483349503823"
"","canvas-keyboard-response","101","197085","0.0-6.0-4.13","557","","","","","clear_screen","null","null","","","catch","sw","sh","l","180","200","171","184","203","272","spektor","null","null","null","null","null","null","null","null","null","null","null","","180","200","260","200","36000","52000","[2,3]","500.0152084694747","175.23891357930302","471.8483349503823"
"","canvas-keyboard-response","102","197529","0.0-6.0-5.13","557","","","","","make choice","433","3","","","catch","sw","sh","l","180","200","171","184","203","272","spektor","null","null","null","null","null","null","null","null","null","null","null","","180","200","260","200","36000","52000","[2,3]","","",""
"","canvas-keyboard-response","103","197547","0.0-6.0-6.13","557","","","","","clear_screen","null","null","","","catch","sw","sh","l","180","200","171","184","203","272","spektor","null","null","null","null","null","null","null","null","null","null","null","","180","200","260","200","36000","52000","[2,3]","","",""
"","canvas-keyboard-response","104","197749","0.0-6.0-0.14","557","","","","","pre trial waiting period","null","null","","","critical","d","t","c","237.1485","162.6685","240","164","164","240","spektor","0.02","w","240","164","164","240","237.1485","162.6685","39360","39360","38576.5967","td","null","null","null","null","null","null","[2,1]","532.8963457768008","183.57198274988696","487.7057908390253"
"","canvas-keyboard-response","105","197767","0.0-6.0-1.14","557","","","","","clear_screen","null","null","","","critical","d","t","c","237.1485","162.6685","240","164","164","240","spektor","0.02","w","240","164","164","240","237.1485","162.6685","39360","39360","38576.5967","td","null","null","null","null","null","null","[2,1]","532.8963457768008","183.57198274988696","487.7057908390253"
"","canvas-keyboard-response","106","198277","0.0-6.0-2.14","557","","","","","rectangles no change","null","null","","","critical","d","t","c","237.1485","162.6685","240","164","164","240","spektor","0.02","w","240","164","164","240","237.1485","162.6685","39360","39360","38576.5967","td","null","null","null","null","null","null","[2,1]","532.8963457768008","183.57198274988696","487.7057908390253"
"","canvas-keyboard-response","107","199612","0.0-6.0-3.14","557","","","","","rectangles with change","null","null","","","critical","d","t","c","237.1485","162.6685","240","164","164","240","spektor","0.02","w","240","164","164","240","237.1485","162.6685","39360","39360","38576.5967","td","null","null","null","null","null","null","[2,1]","532.8963457768008","183.57198274988696","487.7057908390253"
"","canvas-keyboard-response","108","199629","0.0-6.0-4.14","557","","","","","clear_screen","null","null","","","critical","d","t","c","237.1485","162.6685","240","164","164","240","spektor","0.02","w","240","164","164","240","237.1485","162.6685","39360","39360","38576.5967","td","null","null","null","null","null","null","[2,1]","532.8963457768008","183.57198274988696","487.7057908390253"
"","canvas-keyboard-response","109","200130","0.0-6.0-5.14","557","","","","","make choice","491","1","","","critical","d","t","c","237.1485","162.6685","240","164","164","240","spektor","0.02","w","240","164","164","240","237.1485","162.6685","39360","39360","38576.5967","td","null","null","null","null","null","null","[2,1]","","",""
"","canvas-keyboard-response","110","200147","0.0-6.0-6.14","557","","","","","clear_screen","null","null","","","critical","d","t","c","237.1485","162.6685","240","164","164","240","spektor","0.02","w","240","164","164","240","237.1485","162.6685","39360","39360","38576.5967","td","null","null","null","null","null","null","[2,1]","","",""
"","canvas-keyboard-response","111","200348","0.0-6.0-0.15","557","","","","","pre trial waiting period","null","null","","","critical","t","d","c","164","240","164","240","240","164","spektor","0","h","164","240","240","164","164","240","39360","39360","39360","dc","null","null","null","null","null","null","[2,3]","499.7019500998866","109.01698151248398","520.14011398897"
"","canvas-keyboard-response","112","200365","0.0-6.0-1.15","557","","","","","clear_screen","null","null","","","critical","t","d","c","164","240","164","240","240","164","spektor","0","h","164","240","240","164","164","240","39360","39360","39360","dc","null","null","null","null","null","null","[2,3]","499.7019500998866","109.01698151248398","520.14011398897"
"","canvas-keyboard-response","113","200879","0.0-6.0-2.15","557","","","","","rectangles no change","null","null","","","critical","t","d","c","164","240","164","240","240","164","spektor","0","h","164","240","240","164","164","240","39360","39360","39360","dc","null","null","null","null","null","null","[2,3]","499.7019500998866","109.01698151248398","520.14011398897"
"","canvas-keyboard-response","114","202213","0.0-6.0-3.15","557","","","","","rectangles with change","null","null","","","critical","t","d","c","164","240","164","240","240","164","spektor","0","h","164","240","240","164","164","240","39360","39360","39360","dc","null","null","null","null","null","null","[2,3]","499.7019500998866","109.01698151248398","520.14011398897"
"","canvas-keyboard-response","115","202231","0.0-6.0-4.15","557","","","","","clear_screen","null","null","","","critical","t","d","c","164","240","164","240","240","164","spektor","0","h","164","240","240","164","164","240","39360","39360","39360","dc","null","null","null","null","null","null","[2,3]","499.7019500998866","109.01698151248398","520.14011398897"
"","canvas-keyboard-response","116","204849","0.0-6.0-5.15","557","","","","","make choice","2610","3","","","critical","t","d","c","164","240","164","240","240","164","spektor","0","h","164","240","240","164","164","240","39360","39360","39360","dc","null","null","null","null","null","null","[2,3]","","",""
"","canvas-keyboard-response","117","204866","0.0-6.0-6.15","557","","","","","clear_screen","null","null","","","critical","t","d","c","164","240","164","240","240","164","spektor","0","h","164","240","240","164","164","240","39360","39360","39360","dc","null","null","null","null","null","null","[2,3]","","",""
"","canvas-keyboard-response","118","205068","0.0-6.0-0.16","557","","","","","pre trial waiting period","null","null","","","critical","t","d","c","164","240","158.0083","227.1683","240","164","trueblood","0.09","h","164","240","240","164","158.0083","227.1683","39360","39360","35894.4834","dc","null","null","null","null","null","null","[2,3]","439.9108086167293","461.4323247973402","510.18874734108863"
"","canvas-keyboard-response","119","205085","0.0-6.0-1.16","557","","","","","clear_screen","null","null","","","critical","t","d","c","164","240","158.0083","227.1683","240","164","trueblood","0.09","h","164","240","240","164","158.0083","227.1683","39360","39360","35894.4834","dc","null","null","null","null","null","null","[2,3]","439.9108086167293","461.4323247973402","510.18874734108863"
"","canvas-keyboard-response","120","205597","0.0-6.0-2.16","557","","","","","rectangles no change","null","null","","","critical","t","d","c","164","240","158.0083","227.1683","240","164","trueblood","0.09","h","164","240","240","164","158.0083","227.1683","39360","39360","35894.4834","dc","null","null","null","null","null","null","[2,3]","439.9108086167293","461.4323247973402","510.18874734108863"
"","canvas-keyboard-response","121","206930","0.0-6.0-3.16","557","","","","","rectangles with change","null","null","","","critical","t","d","c","164","240","158.0083","227.1683","240","164","trueblood","0.09","h","164","240","240","164","158.0083","227.1683","39360","39360","35894.4834","dc","null","null","null","null","null","null","[2,3]","439.9108086167293","461.4323247973402","510.18874734108863"
"","canvas-keyboard-response","122","206947","0.0-6.0-4.16","557","","","","","clear_screen","null","null","","","critical","t","d","c","164","240","158.0083","227.1683","240","164","trueblood","0.09","h","164","240","240","164","158.0083","227.1683","39360","39360","35894.4834","dc","null","null","null","null","null","null","[2,3]","439.9108086167293","461.4323247973402","510.18874734108863"
"","canvas-keyboard-response","123","208058","0.0-6.0-5.16","557","","","","","make choice","1103","2","","","critical","t","d","c","164","240","158.0083","227.1683","240","164","trueblood","0.09","h","164","240","240","164","158.0083","227.1683","39360","39360","35894.4834","dc","null","null","null","null","null","null","[2,3]","","",""
"","canvas-keyboard-response","124","208074","0.0-6.0-6.16","557","","","","","clear_screen","null","null","","","critical","t","d","c","164","240","158.0083","227.1683","240","164","trueblood","0.09","h","164","240","240","164","158.0083","227.1683","39360","39360","35894.4834","dc","null","null","null","null","null","null","[2,3]","","",""
"","canvas-keyboard-response","125","208276","0.0-6.0-0.17","557","","","","","pre trial waiting period","null","null","","","critical","c","t","d","164","240","240","164","220.0396","154.6796","trueblood","0.14","w","240","164","164","240","220.0396","154.6796","39360","39360","34035.6388","td","null","null","null","null","null","null","[2,3]","451.09273100833315","469.672166371882","514.0291986041493"
"","canvas-keyboard-response","126","208295","0.0-6.0-1.17","557","","","","","clear_screen","null","null","","","critical","c","t","d","164","240","240","164","220.0396","154.6796","trueblood","0.14","w","240","164","164","240","220.0396","154.6796","39360","39360","34035.6388","td","null","null","null","null","null","null","[2,3]","451.09273100833315","469.672166371882","514.0291986041493"
"","canvas-keyboard-response","127","208809","0.0-6.0-2.17","557","","","","","rectangles no change","null","null","","","critical","c","t","d","164","240","240","164","220.0396","154.6796","trueblood","0.14","w","240","164","164","240","220.0396","154.6796","39360","39360","34035.6388","td","null","null","null","null","null","null","[2,3]","451.09273100833315","469.672166371882","514.0291986041493"
"","canvas-keyboard-response","128","210143","0.0-6.0-3.17","557","","","","","rectangles with change","null","null","","","critical","c","t","d","164","240","240","164","220.0396","154.6796","trueblood","0.14","w","240","164","164","240","220.0396","154.6796","39360","39360","34035.6388","td","null","null","null","null","null","null","[2,3]","451.09273100833315","469.672166371882","514.0291986041493"
"","canvas-keyboard-response","129","210161","0.0-6.0-4.17","557","","","","","clear_screen","null","null","","","critical","c","t","d","164","240","240","164","220.0396","154.6796","trueblood","0.14","w","240","164","164","240","220.0396","154.6796","39360","39360","34035.6388","td","null","null","null","null","null","null","[2,3]","451.09273100833315","469.672166371882","514.0291986041493"
"","canvas-keyboard-response","130","210689","0.0-6.0-5.17","557","","","","","make choice","520","2","","","critical","c","t","d","164","240","240","164","220.0396","154.6796","trueblood","0.14","w","240","164","164","240","220.0396","154.6796","39360","39360","34035.6388","td","null","null","null","null","null","null","[2,3]","","",""
"","canvas-keyboard-response","131","210706","0.0-6.0-6.17","557","","","","","clear_screen","null","null","","","critical","c","t","d","164","240","240","164","220.0396","154.6796","trueblood","0.14","w","240","164","164","240","220.0396","154.6796","39360","39360","34035.6388","td","null","null","null","null","null","null","[2,3]","","",""
"","canvas-keyboard-response","132","210908","0.0-6.0-0.18","557","","","","","pre trial waiting period","null","null","","","catch","sw","l","sh","180","200","274","208","205","150","trueblood","null","null","null","null","null","null","null","null","null","null","null","","180","200","260","200","36000","52000","[2,3]","451.203493208567","485.7753219263593","486.83863616976004"
"","canvas-keyboard-response","133","210926","0.0-6.0-1.18","557","","","","","clear_screen","null","null","","","catch","sw","l","sh","180","200","274","208","205","150","trueblood","null","null","null","null","null","null","null","null","null","null","null","","180","200","260","200","36000","52000","[2,3]","451.203493208567","485.7753219263593","486.83863616976004"
"","canvas-keyboard-response","134","211435","0.0-6.0-2.18","557","","","","","rectangles no change","null","null","","","catch","sw","l","sh","180","200","274","208","205","150","trueblood","null","null","null","null","null","null","null","null","null","null","null","","180","200","260","200","36000","52000","[2,3]","451.203493208567","485.7753219263593","486.83863616976004"
"","canvas-keyboard-response","135","212769","0.0-6.0-3.18","557","","","","","rectangles with change","null","null","","","catch","sw","l","sh","180","200","274","208","205","150","trueblood","null","null","null","null","null","null","null","null","null","null","null","","180","200","260","200","36000","52000","[2,3]","451.203493208567","485.7753219263593","486.83863616976004"
"","canvas-keyboard-response","136","212794","0.0-6.0-4.18","557","","","","","clear_screen","null","null","","","catch","sw","l","sh","180","200","274","208","205","150","trueblood","null","null","null","null","null","null","null","null","null","null","null","","180","200","260","200","36000","52000","[2,3]","451.203493208567","485.7753219263593","486.83863616976004"
"","canvas-keyboard-response","137","213353","0.0-6.0-5.18","557","","","","","make choice","553","2","","","catch","sw","l","sh","180","200","274","208","205","150","trueblood","null","null","null","null","null","null","null","null","null","null","null","","180","200","260","200","36000","52000","[2,3]","","",""
"","canvas-keyboard-response","138","213370","0.0-6.0-6.18","557","","","","","clear_screen","null","null","","","catch","sw","l","sh","180","200","274","208","205","150","trueblood","null","null","null","null","null","null","null","null","null","null","null","","180","200","260","200","36000","52000","[2,3]","","",""
"","canvas-keyboard-response","139","213571","0.0-6.0-0.19","557","","","","","pre trial waiting period","null","null","","","critical","c","d","t","164","240","220.0396","154.6796","240","164","spektor","0.14","w","240","164","164","240","220.0396","154.6796","39360","39360","34035.6388","dc","null","null","null","null","null","null","[2,1]","494.55948908887194","193.6176199549525","496.1675607040945"
"","canvas-keyboard-response","140","213589","0.0-6.0-1.19","557","","","","","clear_screen","null","null","","","critical","c","d","t","164","240","220.0396","154.6796","240","164","spektor","0.14","w","240","164","164","240","220.0396","154.6796","39360","39360","34035.6388","dc","null","null","null","null","null","null","[2,1]","494.55948908887194","193.6176199549525","496.1675607040945"
"","canvas-keyboard-response","141","214100","0.0-6.0-2.19","557","","","","","rectangles no change","null","null","","","critical","c","d","t","164","240","220.0396","154.6796","240","164","spektor","0.14","w","240","164","164","240","220.0396","154.6796","39360","39360","34035.6388","dc","null","null","null","null","null","null","[2,1]","494.55948908887194","193.6176199549525","496.1675607040945"
"","canvas-keyboard-response","142","215435","0.0-6.0-3.19","557","","","","","rectangles with change","null","null","","","critical","c","d","t","164","240","220.0396","154.6796","240","164","spektor","0.14","w","240","164","164","240","220.0396","154.6796","39360","39360","34035.6388","dc","null","null","null","null","null","null","[2,1]","494.55948908887194","193.6176199549525","496.1675607040945"
"","canvas-keyboard-response","143","215452","0.0-6.0-4.19","557","","","","","clear_screen","null","null","","","critical","c","d","t","164","240","220.0396","154.6796","240","164","spektor","0.14","w","240","164","164","240","220.0396","154.6796","39360","39360","34035.6388","dc","null","null","null","null","null","null","[2,1]","494.55948908887194","193.6176199549525","496.1675607040945"
"","canvas-keyboard-response","144","215825","0.0-6.0-5.19","557","","","","","make choice","364","1","","","critical","c","d","t","164","240","220.0396","154.6796","240","164","spektor","0.14","w","240","164","164","240","220.0396","154.6796","39360","39360","34035.6388","dc","null","null","null","null","null","null","[2,1]","","",""
"","canvas-keyboard-response","145","215842","0.0-6.0-6.19","557","","","","","clear_screen","null","null","","","critical","c","d","t","164","240","220.0396","154.6796","240","164","spektor","0.14","w","240","164","164","240","220.0396","154.6796","39360","39360","34035.6388","dc","null","null","null","null","null","null","[2,1]","","",""
"","canvas-keyboard-response","146","216044","0.0-6.0-0.20","557","","","","","pre trial waiting period","null","null","","","critical","c","t","d","240","164","164","240","154.6796","220.0396","trueblood","0.14","h","164","240","240","164","154.6796","220.0396","39360","39360","34035.6388","tc","null","null","null","null","null","null","[2,1]","513.2359429491156","433.28051606363664","479.8728202653878"
"","canvas-keyboard-response","147","216062","0.0-6.0-1.20","557","","","","","clear_screen","null","null","","","critical","c","t","d","240","164","164","240","154.6796","220.0396","trueblood","0.14","h","164","240","240","164","154.6796","220.0396","39360","39360","34035.6388","tc","null","null","null","null","null","null","[2,1]","513.2359429491156","433.28051606363664","479.8728202653878"
"","canvas-keyboard-response","148","216569","0.0-6.0-2.20","557","","","","","rectangles no change","null","null","","","critical","c","t","d","240","164","164","240","154.6796","220.0396","trueblood","0.14","h","164","240","240","164","154.6796","220.0396","39360","39360","34035.6388","tc","null","null","null","null","null","null","[2,1]","513.2359429491156","433.28051606363664","479.8728202653878"
"","canvas-keyboard-response","149","217904","0.0-6.0-3.20","557","","","","","rectangles with change","null","null","","","critical","c","t","d","240","164","164","240","154.6796","220.0396","trueblood","0.14","h","164","240","240","164","154.6796","220.0396","39360","39360","34035.6388","tc","null","null","null","null","null","null","[2,1]","513.2359429491156","433.28051606363664","479.8728202653878"
"","canvas-keyboard-response","150","217925","0.0-6.0-4.20","557","","","","","clear_screen","null","null","","","critical","c","t","d","240","164","164","240","154.6796","220.0396","trueblood","0.14","h","164","240","240","164","154.6796","220.0396","39360","39360","34035.6388","tc","null","null","null","null","null","null","[2,1]","513.2359429491156","433.28051606363664","479.8728202653878"
"","canvas-keyboard-response","151","218417","0.0-6.0-5.20","557","","","","","make choice","485","1","","","critical","c","t","d","240","164","164","240","154.6796","220.0396","trueblood","0.14","h","164","240","240","164","154.6796","220.0396","39360","39360","34035.6388","tc","null","null","null","null","null","null","[2,1]","","",""
"","canvas-keyboard-response","152","218435","0.0-6.0-6.20","557","","","","","clear_screen","null","null","","","critical","c","t","d","240","164","164","240","154.6796","220.0396","trueblood","0.14","h","164","240","240","164","154.6796","220.0396","39360","39360","34035.6388","tc","null","null","null","null","null","null","[2,1]","","",""
"","canvas-keyboard-response","153","218639","0.0-6.0-0.21","557","","","","","pre trial waiting period","null","null","","","critical","t","c","d","164","240","240","164","154.6796","220.0396","spektor","0.14","h","164","240","240","164","154.6796","220.0396","39360","39360","34035.6388","tc","null","null","null","null","null","null","[1,2]","474.6662033779772","168.0132467930651","511.4877974334926"
"","canvas-keyboard-response","154","218657","0.0-6.0-1.21","557","","","","","clear_screen","null","null","","","critical","t","c","d","164","240","240","164","154.6796","220.0396","spektor","0.14","h","164","240","240","164","154.6796","220.0396","39360","39360","34035.6388","tc","null","null","null","null","null","null","[1,2]","474.6662033779772","168.0132467930651","511.4877974334926"
"","canvas-keyboard-response","155","219168","0.0-6.0-2.21","557","","","","","rectangles no change","null","null","","","critical","t","c","d","164","240","240","164","154.6796","220.0396","spektor","0.14","h","164","240","240","164","154.6796","220.0396","39360","39360","34035.6388","tc","null","null","null","null","null","null","[1,2]","474.6662033779772","168.0132467930651","511.4877974334926"
"","canvas-keyboard-response","156","220502","0.0-6.0-3.21","557","","","","","rectangles with change","null","null","","","critical","t","c","d","164","240","240","164","154.6796","220.0396","spektor","0.14","h","164","240","240","164","154.6796","220.0396","39360","39360","34035.6388","tc","null","null","null","null","null","null","[1,2]","474.6662033779772","168.0132467930651","511.4877974334926"
"","canvas-keyboard-response","157","220524","0.0-6.0-4.21","557","","","","","clear_screen","null","null","","","critical","t","c","d","164","240","240","164","154.6796","220.0396","spektor","0.14","h","164","240","240","164","154.6796","220.0396","39360","39360","34035.6388","tc","null","null","null","null","null","null","[1,2]","474.6662033779772","168.0132467930651","511.4877974334926"
"","canvas-keyboard-response","158","220985","0.0-6.0-5.21","557","","","","","make choice","452","2","","","critical","t","c","d","164","240","240","164","154.6796","220.0396","spektor","0.14","h","164","240","240","164","154.6796","220.0396","39360","39360","34035.6388","tc","null","null","null","null","null","null","[1,2]","","",""
"","canvas-keyboard-response","159","221004","0.0-6.0-6.21","557","","","","","clear_screen","null","null","","","critical","t","c","d","164","240","240","164","154.6796","220.0396","spektor","0.14","h","164","240","240","164","154.6796","220.0396","39360","39360","34035.6388","tc","null","null","null","null","null","null","[1,2]","","",""
"","canvas-keyboard-response","160","221206","0.0-6.0-0.22","557","","","","","pre trial waiting period","null","null","","","critical","t","c","d","240","164","164","240","220.0396","154.6796","spektor","0.14","w","240","164","164","240","220.0396","154.6796","39360","39360","34035.6388","tc","null","null","null","null","null","null","[1,2]","497.1450934486748","155.8811249279683","527.7966923352373"
"","canvas-keyboard-response","161","221227","0.0-6.0-1.22","557","","","","","clear_screen","null","null","","","critical","t","c","d","240","164","164","240","220.0396","154.6796","spektor","0.14","w","240","164","164","240","220.0396","154.6796","39360","39360","34035.6388","tc","null","null","null","null","null","null","[1,2]","497.1450934486748","155.8811249279683","527.7966923352373"
"","canvas-keyboard-response","162","221737","0.0-6.0-2.22","557","","","","","rectangles no change","null","null","","","critical","t","c","d","240","164","164","240","220.0396","154.6796","spektor","0.14","w","240","164","164","240","220.0396","154.6796","39360","39360","34035.6388","tc","null","null","null","null","null","null","[1,2]","497.1450934486748","155.8811249279683","527.7966923352373"
"","canvas-keyboard-response","163","223074","0.0-6.0-3.22","557","","","","","rectangles with change","null","null","","","critical","t","c","d","240","164","164","240","220.0396","154.6796","spektor","0.14","w","240","164","164","240","220.0396","154.6796","39360","39360","34035.6388","tc","null","null","null","null","null","null","[1,2]","497.1450934486748","155.8811249279683","527.7966923352373"
"","canvas-keyboard-response","164","223092","0.0-6.0-4.22","557","","","","","clear_screen","null","null","","","critical","t","c","d","240","164","164","240","220.0396","154.6796","spektor","0.14","w","240","164","164","240","220.0396","154.6796","39360","39360","34035.6388","tc","null","null","null","null","null","null","[1,2]","497.1450934486748","155.8811249279683","527.7966923352373"
"","canvas-keyboard-response","165","223721","0.0-6.0-5.22","557","","","","","make choice","624","1","","","critical","t","c","d","240","164","164","240","220.0396","154.6796","spektor","0.14","w","240","164","164","240","220.0396","154.6796","39360","39360","34035.6388","tc","null","null","null","null","null","null","[1,2]","","",""
"","canvas-keyboard-response","166","223739","0.0-6.0-6.22","557","","","","","clear_screen","null","null","","","critical","t","c","d","240","164","164","240","220.0396","154.6796","spektor","0.14","w","240","164","164","240","220.0396","154.6796","39360","39360","34035.6388","tc","null","null","null","null","null","null","[1,2]","","",""
"","canvas-keyboard-response","167","223942","0.0-6.0-0.23","557","","","","","pre trial waiting period","null","null","","","critical","d","t","c","240","164","240","164","164","240","trueblood","0","w","240","164","164","240","240","164","39360","39360","39360","dc","null","null","null","null","null","null","[1,3]","507.073634625247","473.7971996960554","434.476123640534"
"","canvas-keyboard-response","168","223962","0.0-6.0-1.23","557","","","","","clear_screen","null","null","","","critical","d","t","c","240","164","240","164","164","240","trueblood","0","w","240","164","164","240","240","164","39360","39360","39360","dc","null","null","null","null","null","null","[1,3]","507.073634625247","473.7971996960554","434.476123640534"
"","canvas-keyboard-response","169","224477","0.0-6.0-2.23","557","","","","","rectangles no change","null","null","","","critical","d","t","c","240","164","240","164","164","240","trueblood","0","w","240","164","164","240","240","164","39360","39360","39360","dc","null","null","null","null","null","null","[1,3]","507.073634625247","473.7971996960554","434.476123640534"
"","canvas-keyboard-response","170","225813","0.0-6.0-3.23","557","","","","","rectangles with change","null","null","","","critical","d","t","c","240","164","240","164","164","240","trueblood","0","w","240","164","164","240","240","164","39360","39360","39360","dc","null","null","null","null","null","null","[1,3]","507.073634625247","473.7971996960554","434.476123640534"
"","canvas-keyboard-response","171","225830","0.0-6.0-4.23","557","","","","","clear_screen","null","null","","","critical","d","t","c","240","164","240","164","164","240","trueblood","0","w","240","164","164","240","240","164","39360","39360","39360","dc","null","null","null","null","null","null","[1,3]","507.073634625247","473.7971996960554","434.476123640534"
"","canvas-keyboard-response","172","226281","0.0-6.0-5.23","557","","","","","make choice","440","1","","","critical","d","t","c","240","164","240","164","164","240","trueblood","0","w","240","164","164","240","240","164","39360","39360","39360","dc","null","null","null","null","null","null","[1,3]","","",""
"","canvas-keyboard-response","173","226299","0.0-6.0-6.23","557","","","","","clear_screen","null","null","","","critical","d","t","c","240","164","240","164","164","240","trueblood","0","w","240","164","164","240","240","164","39360","39360","39360","dc","null","null","null","null","null","null","[1,3]","","",""
"","canvas-keyboard-response","174","226500","0.0-6.0-0.24","557","","","","","pre trial waiting period","null","null","","","critical","c","d","t","164","240","220.0396","154.6796","240","164","spektor","0.14","w","240","164","164","240","220.0396","154.6796","39360","39360","34035.6388","td","null","null","null","null","null","null","[3,2]","456.6602900575838","198.41935617203018","501.69282142438624"
"","canvas-keyboard-response","175","226520","0.0-6.0-1.24","557","","","","","clear_screen","null","null","","","critical","c","d","t","164","240","220.0396","154.6796","240","164","spektor","0.14","w","240","164","164","240","220.0396","154.6796","39360","39360","34035.6388","td","null","null","null","null","null","null","[3,2]","456.6602900575838","198.41935617203018","501.69282142438624"
"","canvas-keyboard-response","176","227033","0.0-6.0-2.24","557","","","","","rectangles no change","null","null","","","critical","c","d","t","164","240","220.0396","154.6796","240","164","spektor","0.14","w","240","164","164","240","220.0396","154.6796","39360","39360","34035.6388","td","null","null","null","null","null","null","[3,2]","456.6602900575838","198.41935617203018","501.69282142438624"
"","canvas-keyboard-response","177","228368","0.0-6.0-3.24","557","","","","","rectangles with change","null","null","","","critical","c","d","t","164","240","220.0396","154.6796","240","164","spektor","0.14","w","240","164","164","240","220.0396","154.6796","39360","39360","34035.6388","td","null","null","null","null","null","null","[3,2]","456.6602900575838","198.41935617203018","501.69282142438624"
"","canvas-keyboard-response","178","228387","0.0-6.0-4.24","557","","","","","clear_screen","null","null","","","critical","c","d","t","164","240","220.0396","154.6796","240","164","spektor","0.14","w","240","164","164","240","220.0396","154.6796","39360","39360","34035.6388","td","null","null","null","null","null","null","[3,2]","456.6602900575838","198.41935617203018","501.69282142438624"
"","canvas-keyboard-response","179","229017","0.0-6.0-5.24","557","","","","","make choice","622","3","","","critical","c","d","t","164","240","220.0396","154.6796","240","164","spektor","0.14","w","240","164","164","240","220.0396","154.6796","39360","39360","34035.6388","td","null","null","null","null","null","null","[3,2]","","",""
"","canvas-keyboard-response","180","229037","0.0-6.0-6.24","557","","","","","clear_screen","null","null","","","critical","c","d","t","164","240","220.0396","154.6796","240","164","spektor","0.14","w","240","164","164","240","220.0396","154.6796","39360","39360","34035.6388","td","null","null","null","null","null","null","[3,2]","","",""
"","canvas-keyboard-response","181","229238","0.0-6.0-0.25","557","","","","","pre trial waiting period","null","null","","","critical","d","c","t","240","164","164","240","240","164","spektor","0","w","240","164","164","240","240","164","39360","39360","39360","tc","null","null","null","null","null","null","[3,2]","494.9347440803608","126.45977056487668","527.5728104502774"
"","canvas-keyboard-response","182","229259","0.0-6.0-1.25","557","","","","","clear_screen","null","null","","","critical","d","c","t","240","164","164","240","240","164","spektor","0","w","240","164","164","240","240","164","39360","39360","39360","tc","null","null","null","null","null","null","[3,2]","494.9347440803608","126.45977056487668","527.5728104502774"
"","canvas-keyboard-response","183","229772","0.0-6.0-2.25","557","","","","","rectangles no change","null","null","","","critical","d","c","t","240","164","164","240","240","164","spektor","0","w","240","164","164","240","240","164","39360","39360","39360","tc","null","null","null","null","null","null","[3,2]","494.9347440803608","126.45977056487668","527.5728104502774"
"","canvas-keyboard-response","184","231107","0.0-6.0-3.25","557","","","","","rectangles with change","null","null","","","critical","d","c","t","240","164","164","240","240","164","spektor","0","w","240","164","164","240","240","164","39360","39360","39360","tc","null","null","null","null","null","null","[3,2]","494.9347440803608","126.45977056487668","527.5728104502774"
"","canvas-keyboard-response","185","231124","0.0-6.0-4.25","557","","","","","clear_screen","null","null","","","critical","d","c","t","240","164","164","240","240","164","spektor","0","w","240","164","164","240","240","164","39360","39360","39360","tc","null","null","null","null","null","null","[3,2]","494.9347440803608","126.45977056487668","527.5728104502774"
"","canvas-keyboard-response","186","231626","0.0-6.0-5.25","557","","","","","make choice","494","3","","","critical","d","c","t","240","164","164","240","240","164","spektor","0","w","240","164","164","240","240","164","39360","39360","39360","tc","null","null","null","null","null","null","[3,2]","","",""
"","canvas-keyboard-response","187","231643","0.0-6.0-6.25","557","","","","","clear_screen","null","null","","","critical","d","c","t","240","164","164","240","240","164","spektor","0","w","240","164","164","240","240","164","39360","39360","39360","tc","null","null","null","null","null","null","[3,2]","","",""
"","canvas-keyboard-response","188","231844","0.0-6.0-0.26","557","","","","","pre trial waiting period","null","null","","","critical","t","d","c","240","164","227.1683","158.0083","164","240","spektor","0.09","w","240","164","164","240","227.1683","158.0083","39360","39360","35894.4834","dc","null","null","null","null","null","null","[2,3]","515.8888533982059","204.74863707884865","470.836614201991"
"","canvas-keyboard-response","189","231862","0.0-6.0-1.26","557","","","","","clear_screen","null","null","","","critical","t","d","c","240","164","227.1683","158.0083","164","240","spektor","0.09","w","240","164","164","240","227.1683","158.0083","39360","39360","35894.4834","dc","null","null","null","null","null","null","[2,3]","515.8888533982059","204.74863707884865","470.836614201991"
"","canvas-keyboard-response","190","232376","0.0-6.0-2.26","557","","","","","rectangles no change","null","null","","","critical","t","d","c","240","164","227.1683","158.0083","164","240","spektor","0.09","w","240","164","164","240","227.1683","158.0083","39360","39360","35894.4834","dc","null","null","null","null","null","null","[2,3]","515.8888533982059","204.74863707884865","470.836614201991"
"","canvas-keyboard-response","191","233712","0.0-6.0-3.26","557","","","","","rectangles with change","null","null","","","critical","t","d","c","240","164","227.1683","158.0083","164","240","spektor","0.09","w","240","164","164","240","227.1683","158.0083","39360","39360","35894.4834","dc","null","null","null","null","null","null","[2,3]","515.8888533982059","204.74863707884865","470.836614201991"
"","canvas-keyboard-response","192","233734","0.0-6.0-4.26","557","","","","","clear_screen","null","null","","","critical","t","d","c","240","164","227.1683","158.0083","164","240","spektor","0.09","w","240","164","164","240","227.1683","158.0083","39360","39360","35894.4834","dc","null","null","null","null","null","null","[2,3]","515.8888533982059","204.74863707884865","470.836614201991"
"","canvas-keyboard-response","193","234293","0.0-6.0-5.26","557","","","","","make choice","550","3","","","critical","t","d","c","240","164","227.1683","158.0083","164","240","spektor","0.09","w","240","164","164","240","227.1683","158.0083","39360","39360","35894.4834","dc","null","null","null","null","null","null","[2,3]","","",""
"","canvas-keyboard-response","194","234310","0.0-6.0-6.26","557","","","","","clear_screen","null","null","","","critical","t","d","c","240","164","227.1683","158.0083","164","240","spektor","0.09","w","240","164","164","240","227.1683","158.0083","39360","39360","35894.4834","dc","null","null","null","null","null","null","[2,3]","","",""
"","canvas-keyboard-response","195","234512","0.0-6.0-0.27","557","","","","","pre trial waiting period","null","null","","","catch","l","sh","sw","177","280","178","156","178","169","spektor","null","null","null","null","null","null","null","null","null","null","null","","180","200","260","200","36000","52000","[1,3]","445.94866303660325","163.79414317162394","522.6714295083954"
"","canvas-keyboard-response","196","234530","0.0-6.0-1.27","557","","","","","clear_screen","null","null","","","catch","l","sh","sw","177","280","178","156","178","169","spektor","null","null","null","null","null","null","null","null","null","null","null","","180","200","260","200","36000","52000","[1,3]","445.94866303660325","163.79414317162394","522.6714295083954"
"","canvas-keyboard-response","197","235040","0.0-6.0-2.27","557","","","","","rectangles no change","null","null","","","catch","l","sh","sw","177","280","178","156","178","169","spektor","null","null","null","null","null","null","null","null","null","null","null","","180","200","260","200","36000","52000","[1,3]","445.94866303660325","163.79414317162394","522.6714295083954"
"","canvas-keyboard-response","198","236376","0.0-6.0-3.27","557","","","","","rectangles with change","null","null","","","catch","l","sh","sw","177","280","178","156","178","169","spektor","null","null","null","null","null","null","null","null","null","null","null","","180","200","260","200","36000","52000","[1,3]","445.94866303660325","163.79414317162394","522.6714295083954"
"","canvas-keyboard-response","199","236394","0.0-6.0-4.27","557","","","","","clear_screen","null","null","","","catch","l","sh","sw","177","280","178","156","178","169","spektor","null","null","null","null","null","null","null","null","null","null","null","","180","200","260","200","36000","52000","[1,3]","445.94866303660325","163.79414317162394","522.6714295083954"
"","canvas-keyboard-response","200","237178","0.0-6.0-5.27","557","","","","","make choice","777","1","","","catch","l","sh","sw","177","280","178","156","178","169","spektor","null","null","null","null","null","null","null","null","null","null","null","","180","200","260","200","36000","52000","[1,3]","","",""
"","canvas-keyboard-response","201","237195","0.0-6.0-6.27","557","","","","","clear_screen","null","null","","","catch","l","sh","sw","177","280","178","156","178","169","spektor","null","null","null","null","null","null","null","null","null","null","null","","180","200","260","200","36000","52000","[1,3]","","",""
"","canvas-keyboard-response","202","237396","0.0-6.0-0.28","557","","","","","pre trial waiting period","null","null","","","catch","l","sh","sw","254","174","209","204","156","183","spektor","null","null","null","null","null","null","null","null","null","null","null","","180","200","260","200","36000","52000","[1,3]","528.6512033706437","157.72698399536606","483.6526290680009"
"","canvas-keyboard-response","203","237415","0.0-6.0-1.28","557","","","","","clear_screen","null","null","","","catch","l","sh","sw","254","174","209","204","156","183","spektor","null","null","null","null","null","null","null","null","null","null","null","","180","200","260","200","36000","52000","[1,3]","528.6512033706437","157.72698399536606","483.6526290680009"
"","canvas-keyboard-response","204","237926","0.0-6.0-2.28","557","","","","","rectangles no change","null","null","","","catch","l","sh","sw","254","174","209","204","156","183","spektor","null","null","null","null","null","null","null","null","null","null","null","","180","200","260","200","36000","52000","[1,3]","528.6512033706437","157.72698399536606","483.6526290680009"
"","canvas-keyboard-response","205","239263","0.0-6.0-3.28","557","","","","","rectangles with change","null","null","","","catch","l","sh","sw","254","174","209","204","156","183","spektor","null","null","null","null","null","null","null","null","null","null","null","","180","200","260","200","36000","52000","[1,3]","528.6512033706437","157.72698399536606","483.6526290680009"
"","canvas-keyboard-response","206","239282","0.0-6.0-4.28","557","","","","","clear_screen","null","null","","","catch","l","sh","sw","254","174","209","204","156","183","spektor","null","null","null","null","null","null","null","null","null","null","null","","180","200","260","200","36000","52000","[1,3]","528.6512033706437","157.72698399536606","483.6526290680009"
"","canvas-keyboard-response","207","241985","0.0-6.0-5.28","557","","","","","make choice","2696","1","","","catch","l","sh","sw","254","174","209","204","156","183","spektor","null","null","null","null","null","null","null","null","null","null","null","","180","200","260","200","36000","52000","[1,3]","","",""
"","canvas-keyboard-response","208","242002","0.0-6.0-6.28","557","","","","","clear_screen","null","null","","","catch","l","sh","sw","254","174","209","204","156","183","spektor","null","null","null","null","null","null","null","null","null","null","null","","180","200","260","200","36000","52000","[1,3]","","",""
"","canvas-keyboard-response","209","242204","0.0-6.0-0.29","557","","","","","pre trial waiting period","null","null","","","catch","l","sw","sh","247","188","219","201","219","192","spektor","null","null","null","null","null","null","null","null","null","null","null","","180","200","260","200","36000","52000","[1,2]","510.12643804166163","138.2989418407681","506.38705999622863"
"","canvas-keyboard-response","210","242222","0.0-6.0-1.29","557","","","","","clear_screen","null","null","","","catch","l","sw","sh","247","188","219","201","219","192","spektor","null","null","null","null","null","null","null","null","null","null","null","","180","200","260","200","36000","52000","[1,2]","510.12643804166163","138.2989418407681","506.38705999622863"
"","canvas-keyboard-response","211","242733","0.0-6.0-2.29","557","","","","","rectangles no change","null","null","","","catch","l","sw","sh","247","188","219","201","219","192","spektor","null","null","null","null","null","null","null","null","null","null","null","","180","200","260","200","36000","52000","[1,2]","510.12643804166163","138.2989418407681","506.38705999622863"
"","canvas-keyboard-response","212","244068","0.0-6.0-3.29","557","","","","","rectangles with change","null","null","","","catch","l","sw","sh","247","188","219","201","219","192","spektor","null","null","null","null","null","null","null","null","null","null","null","","180","200","260","200","36000","52000","[1,2]","510.12643804166163","138.2989418407681","506.38705999622863"
"","canvas-keyboard-response","213","244085","0.0-6.0-4.29","557","","","","","clear_screen","null","null","","","catch","l","sw","sh","247","188","219","201","219","192","spektor","null","null","null","null","null","null","null","null","null","null","null","","180","200","260","200","36000","52000","[1,2]","510.12643804166163","138.2989418407681","506.38705999622863"
"","canvas-keyboard-response","214","244449","0.0-6.0-5.29","557","","","","","make choice","356","1","","","catch","l","sw","sh","247","188","219","201","219","192","spektor","null","null","null","null","null","null","null","null","null","null","null","","180","200","260","200","36000","52000","[1,2]","","",""
"","canvas-keyboard-response","215","244466","0.0-6.0-6.29","557","","","","","clear_screen","null","null","","","catch","l","sw","sh","247","188","219","201","219","192","spektor","null","null","null","null","null","null","null","null","null","null","null","","180","200","260","200","36000","52000","[1,2]","","",""
"","canvas-keyboard-response","216","244668","0.0-6.0-0.30","557","","","","","pre trial waiting period","null","null","","","critical","t","d","c","164","240","154.6796","220.0396","240","164","trueblood","0.14","h","164","240","240","164","154.6796","220.0396","39360","39360","34035.6388","td","null","null","null","null","null","null","[1,2]","430.14165040211276","443.43658980209284","487.8212049380236"
"","canvas-keyboard-response","217","244687","0.0-6.0-1.30","557","","","","","clear_screen","null","null","","","critical","t","d","c","164","240","154.6796","220.0396","240","164","trueblood","0.14","h","164","240","240","164","154.6796","220.0396","39360","39360","34035.6388","td","null","null","null","null","null","null","[1,2]","430.14165040211276","443.43658980209284","487.8212049380236"
"","canvas-keyboard-response","218","245198","0.0-6.0-2.30","557","","","","","rectangles no change","null","null","","","critical","t","d","c","164","240","154.6796","220.0396","240","164","trueblood","0.14","h","164","240","240","164","154.6796","220.0396","39360","39360","34035.6388","td","null","null","null","null","null","null","[1,2]","430.14165040211276","443.43658980209284","487.8212049380236"
"","canvas-keyboard-response","219","246532","0.0-6.0-3.30","557","","","","","rectangles with change","null","null","","","critical","t","d","c","164","240","154.6796","220.0396","240","164","trueblood","0.14","h","164","240","240","164","154.6796","220.0396","39360","39360","34035.6388","td","null","null","null","null","null","null","[1,2]","430.14165040211276","443.43658980209284","487.8212049380236"
"","canvas-keyboard-response","220","246549","0.0-6.0-4.30","557","","","","","clear_screen","null","null","","","critical","t","d","c","164","240","154.6796","220.0396","240","164","trueblood","0.14","h","164","240","240","164","154.6796","220.0396","39360","39360","34035.6388","td","null","null","null","null","null","null","[1,2]","430.14165040211276","443.43658980209284","487.8212049380236"
"","canvas-keyboard-response","221","246929","0.0-6.0-5.30","557","","","","","make choice","374","1","","","critical","t","d","c","164","240","154.6796","220.0396","240","164","trueblood","0.14","h","164","240","240","164","154.6796","220.0396","39360","39360","34035.6388","td","null","null","null","null","null","null","[1,2]","","",""
"","canvas-keyboard-response","222","246947","0.0-6.0-6.30","557","","","","","clear_screen","null","null","","","critical","t","d","c","164","240","154.6796","220.0396","240","164","trueblood","0.14","h","164","240","240","164","154.6796","220.0396","39360","39360","34035.6388","td","null","null","null","null","null","null","[1,2]","","",""
"","canvas-keyboard-response","223","247148","0.0-6.0-0.31","557","","","","","pre trial waiting period","null","null","","","catch","sw","l","sh","180","200","236","298","231","142","trueblood","null","null","null","null","null","null","null","null","null","null","null","","180","200","260","200","36000","52000","[1,2]","445.9549345053622","425.63050519325054","493.1893928550846"
"","canvas-keyboard-response","224","247167","0.0-6.0-1.31","557","","","","","clear_screen","null","null","","","catch","sw","l","sh","180","200","236","298","231","142","trueblood","null","null","null","null","null","null","null","null","null","null","null","","180","200","260","200","36000","52000","[1,2]","445.9549345053622","425.63050519325054","493.1893928550846"
"","canvas-keyboard-response","225","247679","0.0-6.0-2.31","557","","","","","rectangles no change","null","null","","","catch","sw","l","sh","180","200","236","298","231","142","trueblood","null","null","null","null","null","null","null","null","null","null","null","","180","200","260","200","36000","52000","[1,2]","445.9549345053622","425.63050519325054","493.1893928550846"
"","canvas-keyboard-response","226","249014","0.0-6.0-3.31","557","","","","","rectangles with change","null","null","","","catch","sw","l","sh","180","200","236","298","231","142","trueblood","null","null","null","null","null","null","null","null","null","null","null","","180","200","260","200","36000","52000","[1,2]","445.9549345053622","425.63050519325054","493.1893928550846"
"","canvas-keyboard-response","227","249031","0.0-6.0-4.31","557","","","","","clear_screen","null","null","","","catch","sw","l","sh","180","200","236","298","231","142","trueblood","null","null","null","null","null","null","null","null","null","null","null","","180","200","260","200","36000","52000","[1,2]","445.9549345053622","425.63050519325054","493.1893928550846"
"","canvas-keyboard-response","228","249610","0.0-6.0-5.31","557","","","","","make choice","570","2","","","catch","sw","l","sh","180","200","236","298","231","142","trueblood","null","null","null","null","null","null","null","null","null","null","null","","180","200","260","200","36000","52000","[1,2]","","",""
"","canvas-keyboard-response","229","249627","0.0-6.0-6.31","557","","","","","clear_screen","null","null","","","catch","sw","l","sh","180","200","236","298","231","142","trueblood","null","null","null","null","null","null","null","null","null","null","null","","180","200","260","200","36000","52000","[1,2]","","",""
"","canvas-keyboard-response","230","249828","0.0-6.0-0.32","557","","","","","pre trial waiting period","null","null","","","critical","c","d","t","240","164","154.6796","220.0396","164","240","spektor","0.14","h","164","240","240","164","154.6796","220.0396","39360","39360","34035.6388","td","null","null","null","null","null","null","[3,2]","503.47613424295037","122.0305421951645","503.0658487630791"
"","canvas-keyboard-response","231","249847","0.0-6.0-1.32","557","","","","","clear_screen","null","null","","","critical","c","d","t","240","164","154.6796","220.0396","164","240","spektor","0.14","h","164","240","240","164","154.6796","220.0396","39360","39360","34035.6388","td","null","null","null","null","null","null","[3,2]","503.47613424295037","122.0305421951645","503.0658487630791"
"","canvas-keyboard-response","232","250358","0.0-6.0-2.32","557","","","","","rectangles no change","null","null","","","critical","c","d","t","240","164","154.6796","220.0396","164","240","spektor","0.14","h","164","240","240","164","154.6796","220.0396","39360","39360","34035.6388","td","null","null","null","null","null","null","[3,2]","503.47613424295037","122.0305421951645","503.0658487630791"
"","canvas-keyboard-response","233","251693","0.0-6.0-3.32","557","","","","","rectangles with change","null","null","","","critical","c","d","t","240","164","154.6796","220.0396","164","240","spektor","0.14","h","164","240","240","164","154.6796","220.0396","39360","39360","34035.6388","td","null","null","null","null","null","null","[3,2]","503.47613424295037","122.0305421951645","503.0658487630791"
"","canvas-keyboard-response","234","251711","0.0-6.0-4.32","557","","","","","clear_screen","null","null","","","critical","c","d","t","240","164","154.6796","220.0396","164","240","spektor","0.14","h","164","240","240","164","154.6796","220.0396","39360","39360","34035.6388","td","null","null","null","null","null","null","[3,2]","503.47613424295037","122.0305421951645","503.0658487630791"
"","canvas-keyboard-response","235","251897","0.0-6.0-5.32","557","","","","","make choice","181","3","","","critical","c","d","t","240","164","154.6796","220.0396","164","240","spektor","0.14","h","164","240","240","164","154.6796","220.0396","39360","39360","34035.6388","td","null","null","null","null","null","null","[3,2]","","",""
"","canvas-keyboard-response","236","251914","0.0-6.0-6.32","557","","","","","clear_screen","null","null","","","critical","c","d","t","240","164","154.6796","220.0396","164","240","spektor","0.14","h","164","240","240","164","154.6796","220.0396","39360","39360","34035.6388","td","null","null","null","null","null","null","[3,2]","","",""
"","canvas-keyboard-response","237","252115","0.0-6.0-0.33","557","","","","","pre trial waiting period","null","null","","","catch","l","sh","sw","160","258","200","161","174","213","spektor","null","null","null","null","null","null","null","null","null","null","null","","180","200","260","200","36000","52000","[1,2]","483.73127601321346","161.63823120146535","471.7929808171225"
"","canvas-keyboard-response","238","252133","0.0-6.0-1.33","557","","","","","clear_screen","null","null","","","catch","l","sh","sw","160","258","200","161","174","213","spektor","null","null","null","null","null","null","null","null","null","null","null","","180","200","260","200","36000","52000","[1,2]","483.73127601321346","161.63823120146535","471.7929808171225"
"","canvas-keyboard-response","239","252643","0.0-6.0-2.33","557","","","","","rectangles no change","null","null","","","catch","l","sh","sw","160","258","200","161","174","213","spektor","null","null","null","null","null","null","null","null","null","null","null","","180","200","260","200","36000","52000","[1,2]","483.73127601321346","161.63823120146535","471.7929808171225"
"","canvas-keyboard-response","240","253977","0.0-6.0-3.33","557","","","","","rectangles with change","null","null","","","catch","l","sh","sw","160","258","200","161","174","213","spektor","null","null","null","null","null","null","null","null","null","null","null","","180","200","260","200","36000","52000","[1,2]","483.73127601321346","161.63823120146535","471.7929808171225"
"","canvas-keyboard-response","241","253995","0.0-6.0-4.33","557","","","","","clear_screen","null","null","","","catch","l","sh","sw","160","258","200","161","174","213","spektor","null","null","null","null","null","null","null","null","null","null","null","","180","200","260","200","36000","52000","[1,2]","483.73127601321346","161.63823120146535","471.7929808171225"
"","canvas-keyboard-response","242","254528","0.0-6.0-5.33","557","","","","","make choice","524","1","","","catch","l","sh","sw","160","258","200","161","174","213","spektor","null","null","null","null","null","null","null","null","null","null","null","","180","200","260","200","36000","52000","[1,2]","","",""
"","canvas-keyboard-response","243","254546","0.0-6.0-6.33","557","","","","","clear_screen","null","null","","","catch","l","sh","sw","160","258","200","161","174","213","spektor","null","null","null","null","null","null","null","null","null","null","null","","180","200","260","200","36000","52000","[1,2]","","",""
"","canvas-keyboard-response","244","254748","0.0-6.0-0.34","557","","","","","pre trial waiting period","null","null","","","critical","c","t","d","240","164","164","240","162.6685","237.1485","spektor","0.02","h","164","240","240","164","162.6685","237.1485","39360","39360","38576.5967","dc","null","null","null","null","null","null","[3,1]","515.0750092441295","134.64434686879375","491.94069918093913"
"","canvas-keyboard-response","245","254766","0.0-6.0-1.34","557","","","","","clear_screen","null","null","","","critical","c","t","d","240","164","164","240","162.6685","237.1485","spektor","0.02","h","164","240","240","164","162.6685","237.1485","39360","39360","38576.5967","dc","null","null","null","null","null","null","[3,1]","515.0750092441295","134.64434686879375","491.94069918093913"
"","canvas-keyboard-response","246","255279","0.0-6.0-2.34","557","","","","","rectangles no change","null","null","","","critical","c","t","d","240","164","164","240","162.6685","237.1485","spektor","0.02","h","164","240","240","164","162.6685","237.1485","39360","39360","38576.5967","dc","null","null","null","null","null","null","[3,1]","515.0750092441295","134.64434686879375","491.94069918093913"
"","canvas-keyboard-response","247","256614","0.0-6.0-3.34","557","","","","","rectangles with change","null","null","","","critical","c","t","d","240","164","164","240","162.6685","237.1485","spektor","0.02","h","164","240","240","164","162.6685","237.1485","39360","39360","38576.5967","dc","null","null","null","null","null","null","[3,1]","515.0750092441295","134.64434686879375","491.94069918093913"
"","canvas-keyboard-response","248","256632","0.0-6.0-4.34","557","","","","","clear_screen","null","null","","","critical","c","t","d","240","164","164","240","162.6685","237.1485","spektor","0.02","h","164","240","240","164","162.6685","237.1485","39360","39360","38576.5967","dc","null","null","null","null","null","null","[3,1]","515.0750092441295","134.64434686879375","491.94069918093913"
"","canvas-keyboard-response","249","257064","0.0-6.0-5.34","557","","","","","make choice","426","3","","","critical","c","t","d","240","164","164","240","162.6685","237.1485","spektor","0.02","h","164","240","240","164","162.6685","237.1485","39360","39360","38576.5967","dc","null","null","null","null","null","null","[3,1]","","",""
"","canvas-keyboard-response","250","257082","0.0-6.0-6.34","557","","","","","clear_screen","null","null","","","critical","c","t","d","240","164","164","240","162.6685","237.1485","spektor","0.02","h","164","240","240","164","162.6685","237.1485","39360","39360","38576.5967","dc","null","null","null","null","null","null","[3,1]","","",""
"","canvas-keyboard-response","251","257284","0.0-6.0-0.35","557","","","","","pre trial waiting period","null","null","","","catch","sw","l","sh","180","200","190","292","238","176","spektor","null","null","null","null","null","null","null","null","null","null","null","","180","200","260","200","36000","52000","[2,3]","489.0297475596768","86.17272914567722","519.60411966981"
"","canvas-keyboard-response","252","257303","0.0-6.0-1.35","557","","","","","clear_screen","null","null","","","catch","sw","l","sh","180","200","190","292","238","176","spektor","null","null","null","null","null","null","null","null","null","null","null","","180","200","260","200","36000","52000","[2,3]","489.0297475596768","86.17272914567722","519.60411966981"
"","canvas-keyboard-response","253","257814","0.0-6.0-2.35","557","","","","","rectangles no change","null","null","","","catch","sw","l","sh","180","200","190","292","238","176","spektor","null","null","null","null","null","null","null","null","null","null","null","","180","200","260","200","36000","52000","[2,3]","489.0297475596768","86.17272914567722","519.60411966981"
"","canvas-keyboard-response","254","259149","0.0-6.0-3.35","557","","","","","rectangles with change","null","null","","","catch","sw","l","sh","180","200","190","292","238","176","spektor","null","null","null","null","null","null","null","null","null","null","null","","180","200","260","200","36000","52000","[2,3]","489.0297475596768","86.17272914567722","519.60411966981"
"","canvas-keyboard-response","255","259167","0.0-6.0-4.35","557","","","","","clear_screen","null","null","","","catch","sw","l","sh","180","200","190","292","238","176","spektor","null","null","null","null","null","null","null","null","null","null","null","","180","200","260","200","36000","52000","[2,3]","489.0297475596768","86.17272914567722","519.60411966981"
"","canvas-keyboard-response","256","260457","0.0-6.0-5.35","557","","","","","make choice","1281","2","","","catch","sw","l","sh","180","200","190","292","238","176","spektor","null","null","null","null","null","null","null","null","null","null","null","","180","200","260","200","36000","52000","[2,3]","","",""
"","canvas-keyboard-response","257","260475","0.0-6.0-6.35","557","","","","","clear_screen","null","null","","","catch","sw","l","sh","180","200","190","292","238","176","spektor","null","null","null","null","null","null","null","null","null","null","null","","180","200","260","200","36000","52000","[2,3]","","",""
"","canvas-keyboard-response","258","260676","0.0-6.0-0.36","557","","","","","pre trial waiting period","null","null","","","critical","d","t","c","240","164","240","164","164","240","trueblood","0","w","240","164","164","240","240","164","39360","39360","39360","tc","null","null","null","null","null","null","[2,3]","483.4693394044132","487.2720092144793","430.8382883687341"
"","canvas-keyboard-response","259","260694","0.0-6.0-1.36","557","","","","","clear_screen","null","null","","","critical","d","t","c","240","164","240","164","164","240","trueblood","0","w","240","164","164","240","240","164","39360","39360","39360","tc","null","null","null","null","null","null","[2,3]","483.4693394044132","487.2720092144793","430.8382883687341"
"","canvas-keyboard-response","260","261204","0.0-6.0-2.36","557","","","","","rectangles no change","null","null","","","critical","d","t","c","240","164","240","164","164","240","trueblood","0","w","240","164","164","240","240","164","39360","39360","39360","tc","null","null","null","null","null","null","[2,3]","483.4693394044132","487.2720092144793","430.8382883687341"
"","canvas-keyboard-response","261","262539","0.0-6.0-3.36","557","","","","","rectangles with change","null","null","","","critical","d","t","c","240","164","240","164","164","240","trueblood","0","w","240","164","164","240","240","164","39360","39360","39360","tc","null","null","null","null","null","null","[2,3]","483.4693394044132","487.2720092144793","430.8382883687341"
"","canvas-keyboard-response","262","262555","0.0-6.0-4.36","557","","","","","clear_screen","null","null","","","critical","d","t","c","240","164","240","164","164","240","trueblood","0","w","240","164","164","240","240","164","39360","39360","39360","tc","null","null","null","null","null","null","[2,3]","483.4693394044132","487.2720092144793","430.8382883687341"
"","canvas-keyboard-response","263","263217","0.0-6.0-5.36","557","","","","","make choice","654","2","","","critical","d","t","c","240","164","240","164","164","240","trueblood","0","w","240","164","164","240","240","164","39360","39360","39360","tc","null","null","null","null","null","null","[2,3]","","",""
"","canvas-keyboard-response","264","263234","0.0-6.0-6.36","557","","","","","clear_screen","null","null","","","critical","d","t","c","240","164","240","164","164","240","trueblood","0","w","240","164","164","240","240","164","39360","39360","39360","tc","null","null","null","null","null","null","[2,3]","","",""
"","canvas-keyboard-response","265","263435","0.0-6.0-0.37","557","","","","","pre trial waiting period","null","null","","","critical","d","c","t","232.8713","160.6713","164","240","240","164","trueblood","0.05","w","240","164","164","240","232.8713","160.6713","39360","39360","37415.7294","tc","null","null","null","null","null","null","[3,2]","488.37678769193883","436.4284806369483","478.53723447391474"
"","canvas-keyboard-response","266","263458","0.0-6.0-1.37","557","","","","","clear_screen","null","null","","","critical","d","c","t","232.8713","160.6713","164","240","240","164","trueblood","0.05","w","240","164","164","240","232.8713","160.6713","39360","39360","37415.7294","tc","null","null","null","null","null","null","[3,2]","488.37678769193883","436.4284806369483","478.53723447391474"
