"success","trial_type","trial_index","time_elapsed","internal_node_id","sub_n","timeout","failed_images","failed_audio","failed_video","screen_id","rt","response","stimulus","view_history","trial","r1","r2","r3","w1","h1","w2","h2","w3","h3","display","tdd","tdo","tw","th","cw","ch","dw","dh","ta","ca","da","probe","csls","csss","clls","clss","sa","la","probe_rects","r1yloc","r2yloc","r3yloc"
"true","fullscreen","0","3717","0.0-0.0","571","","","","","","","","","","","","","","","","","","","","","","","","","","","","","","","","","","","","","","","","","",""
"true","preload","1","3735","0.0-1.0","571","false","[]","[]","[]","img preload","","","","","","","","","","","","","","","","","","","","","","","","","","","","","","","","","","","","",""
"","survey-html-form","2","5904","0.0-2.0","571","","","","","enter-sub-number","2161","{""response"":""571""}","","","","","","","","","","","","","","","","","","","","","","","","","","","","","","","","","","",""
"","image-button-response","3","52236","0.0-3.0","571","","","","","","46262","0","consent.png","","","","","","","","","","","","","","","","","","","","","","","","","","","","","","","","","",""
"","html-button-response","4","55156","0.0-4.0","571","","","","","intro mssg","2917","0","<div style= ""font-size:25px;"" <p> <strong> Welcome! </strong><br> <p style=""color:#8B0000; font-size:25px;""><strong> Please do NOT exit full screen until you are done with the experiment. </strong> </p><p style=""font-size:25px;color:#8B0000;""> <strong> Your data will be lost <br> if you try to go back or refresh the page after the experiment starts. Feel free to click ""previous"" during the instructions, however.</strong> </p><br><p> <strong> Thanks in advance for your contribution to our research! </strong></p>","","","","","","","","","","","","","","","","","","","","","","","","","","","","","","","","","",""
"","instructions","5","98964","0.0-5.0","571","","","","","instructions","43801","","","[{""page_index"":0,""viewing_time"":8545},{""page_index"":1,""viewing_time"":6504},{""page_index"":2,""viewing_time"":2296},{""page_index"":3,""viewing_time"":13760},{""page_index"":4,""viewing_time"":6224},{""page_index"":5,""viewing_time"":2784},{""page_index"":6,""viewing_time"":2240},{""page_index"":7,""viewing_time"":1447}]","","","","","","","","","","","","","","","","","","","","","","","","","","","","","","","","",""
"","canvas-keyboard-response","6","99171","0.0-6.0-0.0","571","","","","","pre trial waiting period","null","null","","","critical","c","t","d","240","164","164","240","154.6796","220.0396","spektor","0.14","h","164","240","240","164","154.6796","220.0396","39360","39360","34035.6388","dc","null","null","null","null","null","null","[3,1]","521.0509101218297","101.1596837095809","500.3053972233025"
"","canvas-keyboard-response","7","99198","0.0-6.0-1.0","571","","","","","clear_screen","null","null","","","critical","c","t","d","240","164","164","240","154.6796","220.0396","spektor","0.14","h","164","240","240","164","154.6796","220.0396","39360","39360","34035.6388","dc","null","null","null","null","null","null","[3,1]","521.0509101218297","101.1596837095809","500.3053972233025"
"","canvas-keyboard-response","8","99708","0.0-6.0-2.0","571","","","","","rectangles no change","null","null","","","critical","c","t","d","240","164","164","240","154.6796","220.0396","spektor","0.14","h","164","240","240","164","154.6796","220.0396","39360","39360","34035.6388","dc","null","null","null","null","null","null","[3,1]","521.0509101218297","101.1596837095809","500.3053972233025"
"","canvas-keyboard-response","9","101048","0.0-6.0-3.0","571","","","","","rectangles with change","null","null","","","critical","c","t","d","240","164","164","240","154.6796","220.0396","spektor","0.14","h","164","240","240","164","154.6796","220.0396","39360","39360","34035.6388","dc","null","null","null","null","null","null","[3,1]","521.0509101218297","101.1596837095809","500.3053972233025"
"","canvas-keyboard-response","10","101070","0.0-6.0-4.0","571","","","","","clear_screen","null","null","","","critical","c","t","d","240","164","164","240","154.6796","220.0396","spektor","0.14","h","164","240","240","164","154.6796","220.0396","39360","39360","34035.6388","dc","null","null","null","null","null","null","[3,1]","521.0509101218297","101.1596837095809","500.3053972233025"
"","canvas-keyboard-response","11","109020","0.0-6.0-5.0","571","","","","","make choice","7942","1","","","critical","c","t","d","240","164","164","240","154.6796","220.0396","spektor","0.14","h","164","240","240","164","154.6796","220.0396","39360","39360","34035.6388","dc","null","null","null","null","null","null","[3,1]","","",""
"","canvas-keyboard-response","12","109037","0.0-6.0-6.0","571","","","","","clear_screen","null","null","","","critical","c","t","d","240","164","164","240","154.6796","220.0396","spektor","0.14","h","164","240","240","164","154.6796","220.0396","39360","39360","34035.6388","dc","null","null","null","null","null","null","[3,1]","","",""
"","canvas-keyboard-response","13","109239","0.0-6.0-0.1","571","","","","","pre trial waiting period","null","null","","","critical","d","t","c","240","164","240","164","164","240","spektor","0","w","240","164","164","240","240","164","39360","39360","39360","dc","null","null","null","null","null","null","[1,3]","508.04990947573276","195.7742050164009","491.2117142915076"
"","canvas-keyboard-response","14","109259","0.0-6.0-1.1","571","","","","","clear_screen","null","null","","","critical","d","t","c","240","164","240","164","164","240","spektor","0","w","240","164","164","240","240","164","39360","39360","39360","dc","null","null","null","null","null","null","[1,3]","508.04990947573276","195.7742050164009","491.2117142915076"
"","canvas-keyboard-response","15","109765","0.0-6.0-2.1","571","","","","","rectangles no change","null","null","","","critical","d","t","c","240","164","240","164","164","240","spektor","0","w","240","164","164","240","240","164","39360","39360","39360","dc","null","null","null","null","null","null","[1,3]","508.04990947573276","195.7742050164009","491.2117142915076"
"","canvas-keyboard-response","16","111104","0.0-6.0-3.1","571","","","","","rectangles with change","null","null","","","critical","d","t","c","240","164","240","164","164","240","spektor","0","w","240","164","164","240","240","164","39360","39360","39360","dc","null","null","null","null","null","null","[1,3]","508.04990947573276","195.7742050164009","491.2117142915076"
"","canvas-keyboard-response","17","111127","0.0-6.0-4.1","571","","","","","clear_screen","null","null","","","critical","d","t","c","240","164","240","164","164","240","spektor","0","w","240","164","164","240","240","164","39360","39360","39360","dc","null","null","null","null","null","null","[1,3]","508.04990947573276","195.7742050164009","491.2117142915076"
"","canvas-keyboard-response","18","115003","0.0-6.0-5.1","571","","","","","make choice","3870","1","","","critical","d","t","c","240","164","240","164","164","240","spektor","0","w","240","164","164","240","240","164","39360","39360","39360","dc","null","null","null","null","null","null","[1,3]","","",""
"","canvas-keyboard-response","19","115023","0.0-6.0-6.1","571","","","","","clear_screen","null","null","","","critical","d","t","c","240","164","240","164","164","240","spektor","0","w","240","164","164","240","240","164","39360","39360","39360","dc","null","null","null","null","null","null","[1,3]","","",""
"","canvas-keyboard-response","20","115225","0.0-6.0-0.2","571","","","","","pre trial waiting period","null","null","","","catch","l","sw","sh","281","202","147","177","220","143","spektor","null","null","null","null","null","null","null","null","null","null","null","","180","200","260","200","36000","52000","[1,3]","493.60277909734583","202.79879193644632","506.2328232679342"
"","canvas-keyboard-response","21","115246","0.0-6.0-1.2","571","","","","","clear_screen","null","null","","","catch","l","sw","sh","281","202","147","177","220","143","spektor","null","null","null","null","null","null","null","null","null","null","null","","180","200","260","200","36000","52000","[1,3]","493.60277909734583","202.79879193644632","506.2328232679342"
"","canvas-keyboard-response","22","115754","0.0-6.0-2.2","571","","","","","rectangles no change","null","null","","","catch","l","sw","sh","281","202","147","177","220","143","spektor","null","null","null","null","null","null","null","null","null","null","null","","180","200","260","200","36000","52000","[1,3]","493.60277909734583","202.79879193644632","506.2328232679342"
"","canvas-keyboard-response","23","117092","0.0-6.0-3.2","571","","","","","rectangles with change","null","null","","","catch","l","sw","sh","281","202","147","177","220","143","spektor","null","null","null","null","null","null","null","null","null","null","null","","180","200","260","200","36000","52000","[1,3]","493.60277909734583","202.79879193644632","506.2328232679342"
"","canvas-keyboard-response","24","117113","0.0-6.0-4.2","571","","","","","clear_screen","null","null","","","catch","l","sw","sh","281","202","147","177","220","143","spektor","null","null","null","null","null","null","null","null","null","null","null","","180","200","260","200","36000","52000","[1,3]","493.60277909734583","202.79879193644632","506.2328232679342"
"","canvas-keyboard-response","25","117963","0.0-6.0-5.2","571","","","","","make choice","844","1","","","catch","l","sw","sh","281","202","147","177","220","143","spektor","null","null","null","null","null","null","null","null","null","null","null","","180","200","260","200","36000","52000","[1,3]","","",""
"","canvas-keyboard-response","26","117984","0.0-6.0-6.2","571","","","","","clear_screen","null","null","","","catch","l","sw","sh","281","202","147","177","220","143","spektor","null","null","null","null","null","null","null","null","null","null","null","","180","200","260","200","36000","52000","[1,3]","","",""
"","canvas-keyboard-response","27","118185","0.0-6.0-0.3","571","","","","","pre trial waiting period","null","null","","","catch","l","sw","sh","271","174","215","221","192","155","spektor","null","null","null","null","null","null","null","null","null","null","null","","180","200","260","200","36000","52000","[1,3]","531.0594547050563","148.36242781646482","500.7228883877671"
"","canvas-keyboard-response","28","118209","0.0-6.0-1.3","571","","","","","clear_screen","null","null","","","catch","l","sw","sh","271","174","215","221","192","155","spektor","null","null","null","null","null","null","null","null","null","null","null","","180","200","260","200","36000","52000","[1,3]","531.0594547050563","148.36242781646482","500.7228883877671"
"","canvas-keyboard-response","29","118715","0.0-6.0-2.3","571","","","","","rectangles no change","null","null","","","catch","l","sw","sh","271","174","215","221","192","155","spektor","null","null","null","null","null","null","null","null","null","null","null","","180","200","260","200","36000","52000","[1,3]","531.0594547050563","148.36242781646482","500.7228883877671"
"","canvas-keyboard-response","30","120056","0.0-6.0-3.3","571","","","","","rectangles with change","null","null","","","catch","l","sw","sh","271","174","215","221","192","155","spektor","null","null","null","null","null","null","null","null","null","null","null","","180","200","260","200","36000","52000","[1,3]","531.0594547050563","148.36242781646482","500.7228883877671"
"","canvas-keyboard-response","31","120080","0.0-6.0-4.3","571","","","","","clear_screen","null","null","","","catch","l","sw","sh","271","174","215","221","192","155","spektor","null","null","null","null","null","null","null","null","null","null","null","","180","200","260","200","36000","52000","[1,3]","531.0594547050563","148.36242781646482","500.7228883877671"
"","canvas-keyboard-response","32","121116","0.0-6.0-5.3","571","","","","","make choice","1033","1","","","catch","l","sw","sh","271","174","215","221","192","155","spektor","null","null","null","null","null","null","null","null","null","null","null","","180","200","260","200","36000","52000","[1,3]","","",""
"","canvas-keyboard-response","33","121137","0.0-6.0-6.3","571","","","","","clear_screen","null","null","","","catch","l","sw","sh","271","174","215","221","192","155","spektor","null","null","null","null","null","null","null","null","null","null","null","","180","200","260","200","36000","52000","[1,3]","","",""
"","canvas-keyboard-response","34","121338","0.0-6.0-0.4","571","","","","","pre trial waiting period","null","null","","","critical","t","c","d","240","164","164","240","220.0396","154.6796","spektor","0.14","w","240","164","164","240","220.0396","154.6796","39360","39360","34035.6388","dc","null","null","null","null","null","null","[3,2]","496.66965390105247","137.9224289493296","517.0446317625576"
"","canvas-keyboard-response","35","121361","0.0-6.0-1.4","571","","","","","clear_screen","null","null","","","critical","t","c","d","240","164","164","240","220.0396","154.6796","spektor","0.14","w","240","164","164","240","220.0396","154.6796","39360","39360","34035.6388","dc","null","null","null","null","null","null","[3,2]","496.66965390105247","137.9224289493296","517.0446317625576"
"","canvas-keyboard-response","36","121867","0.0-6.0-2.4","571","","","","","rectangles no change","null","null","","","critical","t","c","d","240","164","164","240","220.0396","154.6796","spektor","0.14","w","240","164","164","240","220.0396","154.6796","39360","39360","34035.6388","dc","null","null","null","null","null","null","[3,2]","496.66965390105247","137.9224289493296","517.0446317625576"
"","canvas-keyboard-response","37","123203","0.0-6.0-3.4","571","","","","","rectangles with change","null","null","","","critical","t","c","d","240","164","164","240","220.0396","154.6796","spektor","0.14","w","240","164","164","240","220.0396","154.6796","39360","39360","34035.6388","dc","null","null","null","null","null","null","[3,2]","496.66965390105247","137.9224289493296","517.0446317625576"
"","canvas-keyboard-response","38","123222","0.0-6.0-4.4","571","","","","","clear_screen","null","null","","","critical","t","c","d","240","164","164","240","220.0396","154.6796","spektor","0.14","w","240","164","164","240","220.0396","154.6796","39360","39360","34035.6388","dc","null","null","null","null","null","null","[3,2]","496.66965390105247","137.9224289493296","517.0446317625576"
"","canvas-keyboard-response","39","124476","0.0-6.0-5.4","571","","","","","make choice","1246","3","","","critical","t","c","d","240","164","164","240","220.0396","154.6796","spektor","0.14","w","240","164","164","240","220.0396","154.6796","39360","39360","34035.6388","dc","null","null","null","null","null","null","[3,2]","","",""
"","canvas-keyboard-response","40","124493","0.0-6.0-6.4","571","","","","","clear_screen","null","null","","","critical","t","c","d","240","164","164","240","220.0396","154.6796","spektor","0.14","w","240","164","164","240","220.0396","154.6796","39360","39360","34035.6388","dc","null","null","null","null","null","null","[3,2]","","",""
"","canvas-keyboard-response","41","124695","0.0-6.0-0.5","571","","","","","pre trial waiting period","null","null","","","catch","l","sh","sw","234","245","209","149","144","224","trueblood","null","null","null","null","null","null","null","null","null","null","null","","180","200","260","200","36000","52000","[1,3]","449.2313574193836","524.625872257145","454.05451060948104"
"","canvas-keyboard-response","42","124715","0.0-6.0-1.5","571","","","","","clear_screen","null","null","","","catch","l","sh","sw","234","245","209","149","144","224","trueblood","null","null","null","null","null","null","null","null","null","null","null","","180","200","260","200","36000","52000","[1,3]","449.2313574193836","524.625872257145","454.05451060948104"
"","canvas-keyboard-response","43","125223","0.0-6.0-2.5","571","","","","","rectangles no change","null","null","","","catch","l","sh","sw","234","245","209","149","144","224","trueblood","null","null","null","null","null","null","null","null","null","null","null","","180","200","260","200","36000","52000","[1,3]","449.2313574193836","524.625872257145","454.05451060948104"
"","canvas-keyboard-response","44","126560","0.0-6.0-3.5","571","","","","","rectangles with change","null","null","","","catch","l","sh","sw","234","245","209","149","144","224","trueblood","null","null","null","null","null","null","null","null","null","null","null","","180","200","260","200","36000","52000","[1,3]","449.2313574193836","524.625872257145","454.05451060948104"
"","canvas-keyboard-response","45","126584","0.0-6.0-4.5","571","","","","","clear_screen","null","null","","","catch","l","sh","sw","234","245","209","149","144","224","trueblood","null","null","null","null","null","null","null","null","null","null","null","","180","200","260","200","36000","52000","[1,3]","449.2313574193836","524.625872257145","454.05451060948104"
"","canvas-keyboard-response","46","127427","0.0-6.0-5.5","571","","","","","make choice","840","1","","","catch","l","sh","sw","234","245","209","149","144","224","trueblood","null","null","null","null","null","null","null","null","null","null","null","","180","200","260","200","36000","52000","[1,3]","","",""
"","canvas-keyboard-response","47","127444","0.0-6.0-6.5","571","","","","","clear_screen","null","null","","","catch","l","sh","sw","234","245","209","149","144","224","trueblood","null","null","null","null","null","null","null","null","null","null","null","","180","200","260","200","36000","52000","[1,3]","","",""
"","canvas-keyboard-response","48","127645","0.0-6.0-0.6","571","","","","","pre trial waiting period","null","null","","","catch","sw","sh","l","180","200","182","201","184","241","spektor","null","null","null","null","null","null","null","null","null","null","null","","180","200","260","200","36000","52000","[2,3]","524.6187375007344","129.42945916225318","454.87523407286784"
"","canvas-keyboard-response","49","127663","0.0-6.0-1.6","571","","","","","clear_screen","null","null","","","catch","sw","sh","l","180","200","182","201","184","241","spektor","null","null","null","null","null","null","null","null","null","null","null","","180","200","260","200","36000","52000","[2,3]","524.6187375007344","129.42945916225318","454.87523407286784"
"","canvas-keyboard-response","50","128171","0.0-6.0-2.6","571","","","","","rectangles no change","null","null","","","catch","sw","sh","l","180","200","182","201","184","241","spektor","null","null","null","null","null","null","null","null","null","null","null","","180","200","260","200","36000","52000","[2,3]","524.6187375007344","129.42945916225318","454.87523407286784"
"","canvas-keyboard-response","51","129512","0.0-6.0-3.6","571","","","","","rectangles with change","null","null","","","catch","sw","sh","l","180","200","182","201","184","241","spektor","null","null","null","null","null","null","null","null","null","null","null","","180","200","260","200","36000","52000","[2,3]","524.6187375007344","129.42945916225318","454.87523407286784"
"","canvas-keyboard-response","52","129531","0.0-6.0-4.6","571","","","","","clear_screen","null","null","","","catch","sw","sh","l","180","200","182","201","184","241","spektor","null","null","null","null","null","null","null","null","null","null","null","","180","200","260","200","36000","52000","[2,3]","524.6187375007344","129.42945916225318","454.87523407286784"
"","canvas-keyboard-response","53","130267","0.0-6.0-5.6","571","","","","","make choice","731","3","","","catch","sw","sh","l","180","200","182","201","184","241","spektor","null","null","null","null","null","null","null","null","null","null","null","","180","200","260","200","36000","52000","[2,3]","","",""
"","canvas-keyboard-response","54","130284","0.0-6.0-6.6","571","","","","","clear_screen","null","null","","","catch","sw","sh","l","180","200","182","201","184","241","spektor","null","null","null","null","null","null","null","null","null","null","null","","180","200","260","200","36000","52000","[2,3]","","",""
"","canvas-keyboard-response","55","130485","0.0-6.0-0.7","571","","","","","pre trial waiting period","null","null","","","critical","c","d","t","164","240","220.0396","154.6796","240","164","spektor","0.14","w","240","164","164","240","220.0396","154.6796","39360","39360","34035.6388","tc","null","null","null","null","null","null","[3,1]","475.8901166579905","187.27788648756393","506.7425909012225"
"","canvas-keyboard-response","56","130504","0.0-6.0-1.7","571","","","","","clear_screen","null","null","","","critical","c","d","t","164","240","220.0396","154.6796","240","164","spektor","0.14","w","240","164","164","240","220.0396","154.6796","39360","39360","34035.6388","tc","null","null","null","null","null","null","[3,1]","475.8901166579905","187.27788648756393","506.7425909012225"
"","canvas-keyboard-response","57","131010","0.0-6.0-2.7","571","","","","","rectangles no change","null","null","","","critical","c","d","t","164","240","220.0396","154.6796","240","164","spektor","0.14","w","240","164","164","240","220.0396","154.6796","39360","39360","34035.6388","tc","null","null","null","null","null","null","[3,1]","475.8901166579905","187.27788648756393","506.7425909012225"
"","canvas-keyboard-response","58","132346","0.0-6.0-3.7","571","","","","","rectangles with change","null","null","","","critical","c","d","t","164","240","220.0396","154.6796","240","164","spektor","0.14","w","240","164","164","240","220.0396","154.6796","39360","39360","34035.6388","tc","null","null","null","null","null","null","[3,1]","475.8901166579905","187.27788648756393","506.7425909012225"
"","canvas-keyboard-response","59","132365","0.0-6.0-4.7","571","","","","","clear_screen","null","null","","","critical","c","d","t","164","240","220.0396","154.6796","240","164","spektor","0.14","w","240","164","164","240","220.0396","154.6796","39360","39360","34035.6388","tc","null","null","null","null","null","null","[3,1]","475.8901166579905","187.27788648756393","506.7425909012225"
"","canvas-keyboard-response","60","133003","0.0-6.0-5.7","571","","","","","make choice","633","3","","","critical","c","d","t","164","240","220.0396","154.6796","240","164","spektor","0.14","w","240","164","164","240","220.0396","154.6796","39360","39360","34035.6388","tc","null","null","null","null","null","null","[3,1]","","",""
"","canvas-keyboard-response","61","133023","0.0-6.0-6.7","571","","","","","clear_screen","null","null","","","critical","c","d","t","164","240","220.0396","154.6796","240","164","spektor","0.14","w","240","164","164","240","220.0396","154.6796","39360","39360","34035.6388","tc","null","null","null","null","null","null","[3,1]","","",""
"","canvas-keyboard-response","62","133224","0.0-6.0-0.8","571","","","","","pre trial waiting period","null","null","","","catch","sh","sw","l","183","163","191","195","230","165","spektor","null","null","null","null","null","null","null","null","null","null","null","","180","200","260","200","36000","52000","[2,3]","505.80264103800477","169.52078091368801","524.5260122982181"
"","canvas-keyboard-response","63","133245","0.0-6.0-1.8","571","","","","","clear_screen","null","null","","","catch","sh","sw","l","183","163","191","195","230","165","spektor","null","null","null","null","null","null","null","null","null","null","null","","180","200","260","200","36000","52000","[2,3]","505.80264103800477","169.52078091368801","524.5260122982181"
"","canvas-keyboard-response","64","133752","0.0-6.0-2.8","571","","","","","rectangles no change","null","null","","","catch","sh","sw","l","183","163","191","195","230","165","spektor","null","null","null","null","null","null","null","null","null","null","null","","180","200","260","200","36000","52000","[2,3]","505.80264103800477","169.52078091368801","524.5260122982181"
"","canvas-keyboard-response","65","135087","0.0-6.0-3.8","571","","","","","rectangles with change","null","null","","","catch","sh","sw","l","183","163","191","195","230","165","spektor","null","null","null","null","null","null","null","null","null","null","null","","180","200","260","200","36000","52000","[2,3]","505.80264103800477","169.52078091368801","524.5260122982181"
"","canvas-keyboard-response","66","135107","0.0-6.0-4.8","571","","","","","clear_screen","null","null","","","catch","sh","sw","l","183","163","191","195","230","165","spektor","null","null","null","null","null","null","null","null","null","null","null","","180","200","260","200","36000","52000","[2,3]","505.80264103800477","169.52078091368801","524.5260122982181"
"","canvas-keyboard-response","67","136251","0.0-6.0-5.8","571","","","","","make choice","1138","3","","","catch","sh","sw","l","183","163","191","195","230","165","spektor","null","null","null","null","null","null","null","null","null","null","null","","180","200","260","200","36000","52000","[2,3]","","",""
"","canvas-keyboard-response","68","136270","0.0-6.0-6.8","571","","","","","clear_screen","null","null","","","catch","sh","sw","l","183","163","191","195","230","165","spektor","null","null","null","null","null","null","null","null","null","null","null","","180","200","260","200","36000","52000","[2,3]","","",""
"","canvas-keyboard-response","69","136471","0.0-6.0-0.9","571","","","","","pre trial waiting period","null","null","","","critical","t","c","d","240","164","164","240","232.8713","160.6713","trueblood","0.05","w","240","164","164","240","232.8713","160.6713","39360","39360","37415.7294","tc","null","null","null","null","null","null","[1,2]","469.70974024084455","433.93823656668087","474.42579538599864"
"","canvas-keyboard-response","70","136491","0.0-6.0-1.9","571","","","","","clear_screen","null","null","","","critical","t","c","d","240","164","164","240","232.8713","160.6713","trueblood","0.05","w","240","164","164","240","232.8713","160.6713","39360","39360","37415.7294","tc","null","null","null","null","null","null","[1,2]","469.70974024084455","433.93823656668087","474.42579538599864"
"","canvas-keyboard-response","71","136996","0.0-6.0-2.9","571","","","","","rectangles no change","null","null","","","critical","t","c","d","240","164","164","240","232.8713","160.6713","trueblood","0.05","w","240","164","164","240","232.8713","160.6713","39360","39360","37415.7294","tc","null","null","null","null","null","null","[1,2]","469.70974024084455","433.93823656668087","474.42579538599864"
"","canvas-keyboard-response","72","138330","0.0-6.0-3.9","571","","","","","rectangles with change","null","null","","","critical","t","c","d","240","164","164","240","232.8713","160.6713","trueblood","0.05","w","240","164","164","240","232.8713","160.6713","39360","39360","37415.7294","tc","null","null","null","null","null","null","[1,2]","469.70974024084455","433.93823656668087","474.42579538599864"
"","canvas-keyboard-response","73","138350","0.0-6.0-4.9","571","","","","","clear_screen","null","null","","","critical","t","c","d","240","164","164","240","232.8713","160.6713","trueblood","0.05","w","240","164","164","240","232.8713","160.6713","39360","39360","37415.7294","tc","null","null","null","null","null","null","[1,2]","469.70974024084455","433.93823656668087","474.42579538599864"
"","canvas-keyboard-response","74","138971","0.0-6.0-5.9","571","","","","","make choice","617","1","","","critical","t","c","d","240","164","164","240","232.8713","160.6713","trueblood","0.05","w","240","164","164","240","232.8713","160.6713","39360","39360","37415.7294","tc","null","null","null","null","null","null","[1,2]","","",""
"","canvas-keyboard-response","75","138992","0.0-6.0-6.9","571","","","","","clear_screen","null","null","","","critical","t","c","d","240","164","164","240","232.8713","160.6713","trueblood","0.05","w","240","164","164","240","232.8713","160.6713","39360","39360","37415.7294","tc","null","null","null","null","null","null","[1,2]","","",""
"","canvas-keyboard-response","76","139193","0.0-6.0-0.10","571","","","","","pre trial waiting period","null","null","","","catch","l","sw","sh","241","164","190","165","194","191","trueblood","null","null","null","null","null","null","null","null","null","null","null","","180","200","260","200","36000","52000","[1,3]","478.8354317504085","506.83732233102273","486.2191098478222"
"","canvas-keyboard-response","77","139214","0.0-6.0-1.10","571","","","","","clear_screen","null","null","","","catch","l","sw","sh","241","164","190","165","194","191","trueblood","null","null","null","null","null","null","null","null","null","null","null","","180","200","260","200","36000","52000","[1,3]","478.8354317504085","506.83732233102273","486.2191098478222"
"","canvas-keyboard-response","78","139721","0.0-6.0-2.10","571","","","","","rectangles no change","null","null","","","catch","l","sw","sh","241","164","190","165","194","191","trueblood","null","null","null","null","null","null","null","null","null","null","null","","180","200","260","200","36000","52000","[1,3]","478.8354317504085","506.83732233102273","486.2191098478222"
"","canvas-keyboard-response","79","141060","0.0-6.0-3.10","571","","","","","rectangles with change","null","null","","","catch","l","sw","sh","241","164","190","165","194","191","trueblood","null","null","null","null","null","null","null","null","null","null","null","","180","200","260","200","36000","52000","[1,3]","478.8354317504085","506.83732233102273","486.2191098478222"
"","canvas-keyboard-response","80","141079","0.0-6.0-4.10","571","","","","","clear_screen","null","null","","","catch","l","sw","sh","241","164","190","165","194","191","trueblood","null","null","null","null","null","null","null","null","null","null","null","","180","200","260","200","36000","52000","[1,3]","478.8354317504085","506.83732233102273","486.2191098478222"
"","canvas-keyboard-response","81","141694","0.0-6.0-5.10","571","","","","","make choice","606","1","","","catch","l","sw","sh","241","164","190","165","194","191","trueblood","null","null","null","null","null","null","null","null","null","null","null","","180","200","260","200","36000","52000","[1,3]","","",""
"","canvas-keyboard-response","82","141712","0.0-6.0-6.10","571","","","","","clear_screen","null","null","","","catch","l","sw","sh","241","164","190","165","194","191","trueblood","null","null","null","null","null","null","null","null","null","null","null","","180","200","260","200","36000","52000","[1,3]","","",""
"","canvas-keyboard-response","83","141912","0.0-6.0-0.11","571","","","","","pre trial waiting period","null","null","","","critical","t","c","d","240","164","164","240","232.8713","160.6713","spektor","0.05","w","240","164","164","240","232.8713","160.6713","39360","39360","37415.7294","tc","null","null","null","null","null","null","[1,2]","538.3591034088926","127.39436901628557","514.0367289742666"
"","canvas-keyboard-response","84","141931","0.0-6.0-1.11","571","","","","","clear_screen","null","null","","","critical","t","c","d","240","164","164","240","232.8713","160.6713","spektor","0.05","w","240","164","164","240","232.8713","160.6713","39360","39360","37415.7294","tc","null","null","null","null","null","null","[1,2]","538.3591034088926","127.39436901628557","514.0367289742666"
"","canvas-keyboard-response","85","142440","0.0-6.0-2.11","571","","","","","rectangles no change","null","null","","","critical","t","c","d","240","164","164","240","232.8713","160.6713","spektor","0.05","w","240","164","164","240","232.8713","160.6713","39360","39360","37415.7294","tc","null","null","null","null","null","null","[1,2]","538.3591034088926","127.39436901628557","514.0367289742666"
"","canvas-keyboard-response","86","143780","0.0-6.0-3.11","571","","","","","rectangles with change","null","null","","","critical","t","c","d","240","164","164","240","232.8713","160.6713","spektor","0.05","w","240","164","164","240","232.8713","160.6713","39360","39360","37415.7294","tc","null","null","null","null","null","null","[1,2]","538.3591034088926","127.39436901628557","514.0367289742666"
"","canvas-keyboard-response","87","143801","0.0-6.0-4.11","571","","","","","clear_screen","null","null","","","critical","t","c","d","240","164","164","240","232.8713","160.6713","spektor","0.05","w","240","164","164","240","232.8713","160.6713","39360","39360","37415.7294","tc","null","null","null","null","null","null","[1,2]","538.3591034088926","127.39436901628557","514.0367289742666"
"","canvas-keyboard-response","88","144315","0.0-6.0-5.11","571","","","","","make choice","510","1","","","critical","t","c","d","240","164","164","240","232.8713","160.6713","spektor","0.05","w","240","164","164","240","232.8713","160.6713","39360","39360","37415.7294","tc","null","null","null","null","null","null","[1,2]","","",""
"","canvas-keyboard-response","89","144336","0.0-6.0-6.11","571","","","","","clear_screen","null","null","","","critical","t","c","d","240","164","164","240","232.8713","160.6713","spektor","0.05","w","240","164","164","240","232.8713","160.6713","39360","39360","37415.7294","tc","null","null","null","null","null","null","[1,2]","","",""
"","canvas-keyboard-response","90","144537","0.0-6.0-0.12","571","","","","","pre trial waiting period","null","null","","","critical","t","c","d","164","240","240","164","158.0083","227.1683","spektor","0.09","h","164","240","240","164","158.0083","227.1683","39360","39360","35894.4834","dc","null","null","null","null","null","null","[3,2]","503.3948137839542","154.20677875711513","474.0098753554471"
"","canvas-keyboard-response","91","144556","0.0-6.0-1.12","571","","","","","clear_screen","null","null","","","critical","t","c","d","164","240","240","164","158.0083","227.1683","spektor","0.09","h","164","240","240","164","158.0083","227.1683","39360","39360","35894.4834","dc","null","null","null","null","null","null","[3,2]","503.3948137839542","154.20677875711513","474.0098753554471"
"","canvas-keyboard-response","92","145068","0.0-6.0-2.12","571","","","","","rectangles no change","null","null","","","critical","t","c","d","164","240","240","164","158.0083","227.1683","spektor","0.09","h","164","240","240","164","158.0083","227.1683","39360","39360","35894.4834","dc","null","null","null","null","null","null","[3,2]","503.3948137839542","154.20677875711513","474.0098753554471"
"","canvas-keyboard-response","93","146403","0.0-6.0-3.12","571","","","","","rectangles with change","null","null","","","critical","t","c","d","164","240","240","164","158.0083","227.1683","spektor","0.09","h","164","240","240","164","158.0083","227.1683","39360","39360","35894.4834","dc","null","null","null","null","null","null","[3,2]","503.3948137839542","154.20677875711513","474.0098753554471"
"","canvas-keyboard-response","94","146422","0.0-6.0-4.12","571","","","","","clear_screen","null","null","","","critical","t","c","d","164","240","240","164","158.0083","227.1683","spektor","0.09","h","164","240","240","164","158.0083","227.1683","39360","39360","35894.4834","dc","null","null","null","null","null","null","[3,2]","503.3948137839542","154.20677875711513","474.0098753554471"
"","canvas-keyboard-response","95","148171","0.0-6.0-5.12","571","","","","","make choice","1743","2","","","critical","t","c","d","164","240","240","164","158.0083","227.1683","spektor","0.09","h","164","240","240","164","158.0083","227.1683","39360","39360","35894.4834","dc","null","null","null","null","null","null","[3,2]","","",""
"","canvas-keyboard-response","96","148192","0.0-6.0-6.12","571","","","","","clear_screen","null","null","","","critical","t","c","d","164","240","240","164","158.0083","227.1683","spektor","0.09","h","164","240","240","164","158.0083","227.1683","39360","39360","35894.4834","dc","null","null","null","null","null","null","[3,2]","","",""
"","canvas-keyboard-response","97","148394","0.0-6.0-0.13","571","","","","","pre trial waiting period","null","null","","","critical","t","c","d","240","164","164","240","240","164","trueblood","0","w","240","164","164","240","240","164","39360","39360","39360","dc","null","null","null","null","null","null","[3,2]","499.66871416200206","436.15138285040894","468.6772274818021"
"","canvas-keyboard-response","98","148412","0.0-6.0-1.13","571","","","","","clear_screen","null","null","","","critical","t","c","d","240","164","164","240","240","164","trueblood","0","w","240","164","164","240","240","164","39360","39360","39360","dc","null","null","null","null","null","null","[3,2]","499.66871416200206","436.15138285040894","468.6772274818021"
"","canvas-keyboard-response","99","148921","0.0-6.0-2.13","571","","","","","rectangles no change","null","null","","","critical","t","c","d","240","164","164","240","240","164","trueblood","0","w","240","164","164","240","240","164","39360","39360","39360","dc","null","null","null","null","null","null","[3,2]","499.66871416200206","436.15138285040894","468.6772274818021"
"","canvas-keyboard-response","100","150255","0.0-6.0-3.13","571","","","","","rectangles with change","null","null","","","critical","t","c","d","240","164","164","240","240","164","trueblood","0","w","240","164","164","240","240","164","39360","39360","39360","dc","null","null","null","null","null","null","[3,2]","499.66871416200206","436.15138285040894","468.6772274818021"
"","canvas-keyboard-response","101","150273","0.0-6.0-4.13","571","","","","","clear_screen","null","null","","","critical","t","c","d","240","164","164","240","240","164","trueblood","0","w","240","164","164","240","240","164","39360","39360","39360","dc","null","null","null","null","null","null","[3,2]","499.66871416200206","436.15138285040894","468.6772274818021"
"","canvas-keyboard-response","102","150764","0.0-6.0-5.13","571","","","","","make choice","485","3","","","critical","t","c","d","240","164","164","240","240","164","trueblood","0","w","240","164","164","240","240","164","39360","39360","39360","dc","null","null","null","null","null","null","[3,2]","","",""
"","canvas-keyboard-response","103","150781","0.0-6.0-6.13","571","","","","","clear_screen","null","null","","","critical","t","c","d","240","164","164","240","240","164","trueblood","0","w","240","164","164","240","240","164","39360","39360","39360","dc","null","null","null","null","null","null","[3,2]","","",""
"","canvas-keyboard-response","104","150982","0.0-6.0-0.14","571","","","","","pre trial waiting period","null","null","","","critical","t","d","c","164","240","164","240","240","164","trueblood","0","h","164","240","240","164","164","240","39360","39360","39360","td","null","null","null","null","null","null","[1,2]","424.0340612779334","468.20064055686436","504.77648471341826"
"","canvas-keyboard-response","105","151002","0.0-6.0-1.14","571","","","","","clear_screen","null","null","","","critical","t","d","c","164","240","164","240","240","164","trueblood","0","h","164","240","240","164","164","240","39360","39360","39360","td","null","null","null","null","null","null","[1,2]","424.0340612779334","468.20064055686436","504.77648471341826"
"","canvas-keyboard-response","106","151510","0.0-6.0-2.14","571","","","","","rectangles no change","null","null","","","critical","t","d","c","164","240","164","240","240","164","trueblood","0","h","164","240","240","164","164","240","39360","39360","39360","td","null","null","null","null","null","null","[1,2]","424.0340612779334","468.20064055686436","504.77648471341826"
"","canvas-keyboard-response","107","152846","0.0-6.0-3.14","571","","","","","rectangles with change","null","null","","","critical","t","d","c","164","240","164","240","240","164","trueblood","0","h","164","240","240","164","164","240","39360","39360","39360","td","null","null","null","null","null","null","[1,2]","424.0340612779334","468.20064055686436","504.77648471341826"
"","canvas-keyboard-response","108","152865","0.0-6.0-4.14","571","","","","","clear_screen","null","null","","","critical","t","d","c","164","240","164","240","240","164","trueblood","0","h","164","240","240","164","164","240","39360","39360","39360","td","null","null","null","null","null","null","[1,2]","424.0340612779334","468.20064055686436","504.77648471341826"
"","canvas-keyboard-response","109","154779","0.0-6.0-5.14","571","","","","","make choice","1908","1","","","critical","t","d","c","164","240","164","240","240","164","trueblood","0","h","164","240","240","164","164","240","39360","39360","39360","td","null","null","null","null","null","null","[1,2]","","",""
"","canvas-keyboard-response","110","154800","0.0-6.0-6.14","571","","","","","clear_screen","null","null","","","critical","t","d","c","164","240","164","240","240","164","trueblood","0","h","164","240","240","164","164","240","39360","39360","39360","td","null","null","null","null","null","null","[1,2]","","",""
"","canvas-keyboard-response","111","155001","0.0-6.0-0.15","571","","","","","pre trial waiting period","null","null","","","critical","c","t","d","164","240","240","164","232.8713","160.6713","trueblood","0.05","w","240","164","164","240","232.8713","160.6713","39360","39360","37415.7294","dc","null","null","null","null","null","null","[3,1]","421.2693825687417","473.23715282623175","497.65137361875406"
"","canvas-keyboard-response","112","155024","0.0-6.0-1.15","571","","","","","clear_screen","null","null","","","critical","c","t","d","164","240","240","164","232.8713","160.6713","trueblood","0.05","w","240","164","164","240","232.8713","160.6713","39360","39360","37415.7294","dc","null","null","null","null","null","null","[3,1]","421.2693825687417","473.23715282623175","497.65137361875406"
"","canvas-keyboard-response","113","155529","0.0-6.0-2.15","571","","","","","rectangles no change","null","null","","","critical","c","t","d","164","240","240","164","232.8713","160.6713","trueblood","0.05","w","240","164","164","240","232.8713","160.6713","39360","39360","37415.7294","dc","null","null","null","null","null","null","[3,1]","421.2693825687417","473.23715282623175","497.65137361875406"
"","canvas-keyboard-response","114","156865","0.0-6.0-3.15","571","","","","","rectangles with change","null","null","","","critical","c","t","d","164","240","240","164","232.8713","160.6713","trueblood","0.05","w","240","164","164","240","232.8713","160.6713","39360","39360","37415.7294","dc","null","null","null","null","null","null","[3,1]","421.2693825687417","473.23715282623175","497.65137361875406"
"","canvas-keyboard-response","115","156885","0.0-6.0-4.15","571","","","","","clear_screen","null","null","","","critical","c","t","d","164","240","240","164","232.8713","160.6713","trueblood","0.05","w","240","164","164","240","232.8713","160.6713","39360","39360","37415.7294","dc","null","null","null","null","null","null","[3,1]","421.2693825687417","473.23715282623175","497.65137361875406"
"","canvas-keyboard-response","116","157332","0.0-6.0-5.15","571","","","","","make choice","439","3","","","critical","c","t","d","164","240","240","164","232.8713","160.6713","trueblood","0.05","w","240","164","164","240","232.8713","160.6713","39360","39360","37415.7294","dc","null","null","null","null","null","null","[3,1]","","",""
"","canvas-keyboard-response","117","157353","0.0-6.0-6.15","571","","","","","clear_screen","null","null","","","critical","c","t","d","164","240","240","164","232.8713","160.6713","trueblood","0.05","w","240","164","164","240","232.8713","160.6713","39360","39360","37415.7294","dc","null","null","null","null","null","null","[3,1]","","",""
"","canvas-keyboard-response","118","157555","0.0-6.0-0.16","571","","","","","pre trial waiting period","null","null","","","critical","d","c","t","158.0083","227.1683","240","164","164","240","trueblood","0.09","h","164","240","240","164","158.0083","227.1683","39360","39360","35894.4834","tc","null","null","null","null","null","null","[3,2]","443.68870479723387","474.51183643551605","451.09119727353027"
"","canvas-keyboard-response","119","157578","0.0-6.0-1.16","571","","","","","clear_screen","null","null","","","critical","d","c","t","158.0083","227.1683","240","164","164","240","trueblood","0.09","h","164","240","240","164","158.0083","227.1683","39360","39360","35894.4834","tc","null","null","null","null","null","null","[3,2]","443.68870479723387","474.51183643551605","451.09119727353027"
"","canvas-keyboard-response","120","158085","0.0-6.0-2.16","571","","","","","rectangles no change","null","null","","","critical","d","c","t","158.0083","227.1683","240","164","164","240","trueblood","0.09","h","164","240","240","164","158.0083","227.1683","39360","39360","35894.4834","tc","null","null","null","null","null","null","[3,2]","443.68870479723387","474.51183643551605","451.09119727353027"
"","canvas-keyboard-response","121","159419","0.0-6.0-3.16","571","","","","","rectangles with change","null","null","","","critical","d","c","t","158.0083","227.1683","240","164","164","240","trueblood","0.09","h","164","240","240","164","158.0083","227.1683","39360","39360","35894.4834","tc","null","null","null","null","null","null","[3,2]","443.68870479723387","474.51183643551605","451.09119727353027"
"","canvas-keyboard-response","122","159439","0.0-6.0-4.16","571","","","","","clear_screen","null","null","","","critical","d","c","t","158.0083","227.1683","240","164","164","240","trueblood","0.09","h","164","240","240","164","158.0083","227.1683","39360","39360","35894.4834","tc","null","null","null","null","null","null","[3,2]","443.68870479723387","474.51183643551605","451.09119727353027"
"","canvas-keyboard-response","123","159916","0.0-6.0-5.16","571","","","","","make choice","472","2","","","critical","d","c","t","158.0083","227.1683","240","164","164","240","trueblood","0.09","h","164","240","240","164","158.0083","227.1683","39360","39360","35894.4834","tc","null","null","null","null","null","null","[3,2]","","",""
"","canvas-keyboard-response","124","159933","0.0-6.0-6.16","571","","","","","clear_screen","null","null","","","critical","d","c","t","158.0083","227.1683","240","164","164","240","trueblood","0.09","h","164","240","240","164","158.0083","227.1683","39360","39360","35894.4834","tc","null","null","null","null","null","null","[3,2]","","",""
"","canvas-keyboard-response","125","160135","0.0-6.0-0.17","571","","","","","pre trial waiting period","null","null","","","critical","t","c","d","164","240","240","164","164","240","trueblood","0","h","164","240","240","164","164","240","39360","39360","39360","tc","null","null","null","null","null","null","[1,2]","419.61200599037784","478.198091277413","461.7846000686748"
"","canvas-keyboard-response","126","160155","0.0-6.0-1.17","571","","","","","clear_screen","null","null","","","critical","t","c","d","164","240","240","164","164","240","trueblood","0","h","164","240","240","164","164","240","39360","39360","39360","tc","null","null","null","null","null","null","[1,2]","419.61200599037784","478.198091277413","461.7846000686748"
"","canvas-keyboard-response","127","160663","0.0-6.0-2.17","571","","","","","rectangles no change","null","null","","","critical","t","c","d","164","240","240","164","164","240","trueblood","0","h","164","240","240","164","164","240","39360","39360","39360","tc","null","null","null","null","null","null","[1,2]","419.61200599037784","478.198091277413","461.7846000686748"
"","canvas-keyboard-response","128","162001","0.0-6.0-3.17","571","","","","","rectangles with change","null","null","","","critical","t","c","d","164","240","240","164","164","240","trueblood","0","h","164","240","240","164","164","240","39360","39360","39360","tc","null","null","null","null","null","null","[1,2]","419.61200599037784","478.198091277413","461.7846000686748"
"","canvas-keyboard-response","129","162020","0.0-6.0-4.17","571","","","","","clear_screen","null","null","","","critical","t","c","d","164","240","240","164","164","240","trueblood","0","h","164","240","240","164","164","240","39360","39360","39360","tc","null","null","null","null","null","null","[1,2]","419.61200599037784","478.198091277413","461.7846000686748"
"","canvas-keyboard-response","130","164099","0.0-6.0-5.17","571","","","","","make choice","2072","2","","","critical","t","c","d","164","240","240","164","164","240","trueblood","0","h","164","240","240","164","164","240","39360","39360","39360","tc","null","null","null","null","null","null","[1,2]","","",""
"","canvas-keyboard-response","131","164120","0.0-6.0-6.17","571","","","","","clear_screen","null","null","","","critical","t","c","d","164","240","240","164","164","240","trueblood","0","h","164","240","240","164","164","240","39360","39360","39360","tc","null","null","null","null","null","null","[1,2]","","",""
"","canvas-keyboard-response","132","164321","0.0-6.0-0.18","571","","","","","pre trial waiting period","null","null","","","catch","l","sw","sh","179","278","188","215","202","174","trueblood","null","null","null","null","null","null","null","null","null","null","null","","180","200","260","200","36000","52000","[1,2]","442.9322221025318","473.4691464523296","466.05013993563244"
"","canvas-keyboard-response","133","164343","0.0-6.0-1.18","571","","","","","clear_screen","null","null","","","catch","l","sw","sh","179","278","188","215","202","174","trueblood","null","null","null","null","null","null","null","null","null","null","null","","180","200","260","200","36000","52000","[1,2]","442.9322221025318","473.4691464523296","466.05013993563244"
"","canvas-keyboard-response","134","164849","0.0-6.0-2.18","571","","","","","rectangles no change","null","null","","","catch","l","sw","sh","179","278","188","215","202","174","trueblood","null","null","null","null","null","null","null","null","null","null","null","","180","200","260","200","36000","52000","[1,2]","442.9322221025318","473.4691464523296","466.05013993563244"
"","canvas-keyboard-response","135","166185","0.0-6.0-3.18","571","","","","","rectangles with change","null","null","","","catch","l","sw","sh","179","278","188","215","202","174","trueblood","null","null","null","null","null","null","null","null","null","null","null","","180","200","260","200","36000","52000","[1,2]","442.9322221025318","473.4691464523296","466.05013993563244"
"","canvas-keyboard-response","136","166205","0.0-6.0-4.18","571","","","","","clear_screen","null","null","","","catch","l","sw","sh","179","278","188","215","202","174","trueblood","null","null","null","null","null","null","null","null","null","null","null","","180","200","260","200","36000","52000","[1,2]","442.9322221025318","473.4691464523296","466.05013993563244"
"","canvas-keyboard-response","137","166612","0.0-6.0-5.18","571","","","","","make choice","398","1","","","catch","l","sw","sh","179","278","188","215","202","174","trueblood","null","null","null","null","null","null","null","null","null","null","null","","180","200","260","200","36000","52000","[1,2]","","",""
"","canvas-keyboard-response","138","166630","0.0-6.0-6.18","571","","","","","clear_screen","null","null","","","catch","l","sw","sh","179","278","188","215","202","174","trueblood","null","null","null","null","null","null","null","null","null","null","null","","180","200","260","200","36000","52000","[1,2]","","",""
"","canvas-keyboard-response","139","166831","0.0-6.0-0.19","571","","","","","pre trial waiting period","null","null","","","critical","t","c","d","240","164","164","240","237.1485","162.6685","trueblood","0.02","w","240","164","164","240","237.1485","162.6685","39360","39360","38576.5967","tc","null","null","null","null","null","null","[1,2]","479.999325956728","421.44348944040604","511.7744075514695"
"","canvas-keyboard-response","140","166853","0.0-6.0-1.19","571","","","","","clear_screen","null","null","","","critical","t","c","d","240","164","164","240","237.1485","162.6685","trueblood","0.02","w","240","164","164","240","237.1485","162.6685","39360","39360","38576.5967","tc","null","null","null","null","null","null","[1,2]","479.999325956728","421.44348944040604","511.7744075514695"
"","canvas-keyboard-response","141","167360","0.0-6.0-2.19","571","","","","","rectangles no change","null","null","","","critical","t","c","d","240","164","164","240","237.1485","162.6685","trueblood","0.02","w","240","164","164","240","237.1485","162.6685","39360","39360","38576.5967","tc","null","null","null","null","null","null","[1,2]","479.999325956728","421.44348944040604","511.7744075514695"
"","canvas-keyboard-response","142","168698","0.0-6.0-3.19","571","","","","","rectangles with change","null","null","","","critical","t","c","d","240","164","164","240","237.1485","162.6685","trueblood","0.02","w","240","164","164","240","237.1485","162.6685","39360","39360","38576.5967","tc","null","null","null","null","null","null","[1,2]","479.999325956728","421.44348944040604","511.7744075514695"
"","canvas-keyboard-response","143","168719","0.0-6.0-4.19","571","","","","","clear_screen","null","null","","","critical","t","c","d","240","164","164","240","237.1485","162.6685","trueblood","0.02","w","240","164","164","240","237.1485","162.6685","39360","39360","38576.5967","tc","null","null","null","null","null","null","[1,2]","479.999325956728","421.44348944040604","511.7744075514695"
"","canvas-keyboard-response","144","169124","0.0-6.0-5.19","571","","","","","make choice","400","1","","","critical","t","c","d","240","164","164","240","237.1485","162.6685","trueblood","0.02","w","240","164","164","240","237.1485","162.6685","39360","39360","38576.5967","tc","null","null","null","null","null","null","[1,2]","","",""
"","canvas-keyboard-response","145","169145","0.0-6.0-6.19","571","","","","","clear_screen","null","null","","","critical","t","c","d","240","164","164","240","237.1485","162.6685","trueblood","0.02","w","240","164","164","240","237.1485","162.6685","39360","39360","38576.5967","tc","null","null","null","null","null","null","[1,2]","","",""
"","canvas-keyboard-response","146","169345","0.0-6.0-0.20","571","","","","","pre trial waiting period","null","null","","","catch","l","sh","sw","288","191","197","203","217","224","spektor","null","null","null","null","null","null","null","null","null","null","null","","180","200","260","200","36000","52000","[1,3]","524.397956510628","173.4242085757721","478.2521942464478"
"","canvas-keyboard-response","147","169366","0.0-6.0-1.20","571","","","","","clear_screen","null","null","","","catch","l","sh","sw","288","191","197","203","217","224","spektor","null","null","null","null","null","null","null","null","null","null","null","","180","200","260","200","36000","52000","[1,3]","524.397956510628","173.4242085757721","478.2521942464478"
"","canvas-keyboard-response","148","169875","0.0-6.0-2.20","571","","","","","rectangles no change","null","null","","","catch","l","sh","sw","288","191","197","203","217","224","spektor","null","null","null","null","null","null","null","null","null","null","null","","180","200","260","200","36000","52000","[1,3]","524.397956510628","173.4242085757721","478.2521942464478"
"","canvas-keyboard-response","149","171216","0.0-6.0-3.20","571","","","","","rectangles with change","null","null","","","catch","l","sh","sw","288","191","197","203","217","224","spektor","null","null","null","null","null","null","null","null","null","null","null","","180","200","260","200","36000","52000","[1,3]","524.397956510628","173.4242085757721","478.2521942464478"
"","canvas-keyboard-response","150","171248","0.0-6.0-4.20","571","","","","","clear_screen","null","null","","","catch","l","sh","sw","288","191","197","203","217","224","spektor","null","null","null","null","null","null","null","null","null","null","null","","180","200","260","200","36000","52000","[1,3]","524.397956510628","173.4242085757721","478.2521942464478"
"","canvas-keyboard-response","151","171899","0.0-6.0-5.20","571","","","","","make choice","647","1","","","catch","l","sh","sw","288","191","197","203","217","224","spektor","null","null","null","null","null","null","null","null","null","null","null","","180","200","260","200","36000","52000","[1,3]","","",""
"","canvas-keyboard-response","152","171921","0.0-6.0-6.20","571","","","","","clear_screen","null","null","","","catch","l","sh","sw","288","191","197","203","217","224","spektor","null","null","null","null","null","null","null","null","null","null","null","","180","200","260","200","36000","52000","[1,3]","","",""
"","canvas-keyboard-response","153","172123","0.0-6.0-0.21","571","","","","","pre trial waiting period","null","null","","","critical","t","c","d","164","240","240","164","154.6796","220.0396","spektor","0.14","h","164","240","240","164","154.6796","220.0396","39360","39360","34035.6388","td","null","null","null","null","null","null","[1,3]","498.0248667185313","166.6918693903855","470.2710964656449"
"","canvas-keyboard-response","154","172143","0.0-6.0-1.21","571","","","","","clear_screen","null","null","","","critical","t","c","d","164","240","240","164","154.6796","220.0396","spektor","0.14","h","164","240","240","164","154.6796","220.0396","39360","39360","34035.6388","td","null","null","null","null","null","null","[1,3]","498.0248667185313","166.6918693903855","470.2710964656449"
"","canvas-keyboard-response","155","172652","0.0-6.0-2.21","571","","","","","rectangles no change","null","null","","","critical","t","c","d","164","240","240","164","154.6796","220.0396","spektor","0.14","h","164","240","240","164","154.6796","220.0396","39360","39360","34035.6388","td","null","null","null","null","null","null","[1,3]","498.0248667185313","166.6918693903855","470.2710964656449"
"","canvas-keyboard-response","156","173989","0.0-6.0-3.21","571","","","","","rectangles with change","null","null","","","critical","t","c","d","164","240","240","164","154.6796","220.0396","spektor","0.14","h","164","240","240","164","154.6796","220.0396","39360","39360","34035.6388","td","null","null","null","null","null","null","[1,3]","498.0248667185313","166.6918693903855","470.2710964656449"
"","canvas-keyboard-response","157","174010","0.0-6.0-4.21","571","","","","","clear_screen","null","null","","","critical","t","c","d","164","240","240","164","154.6796","220.0396","spektor","0.14","h","164","240","240","164","154.6796","220.0396","39360","39360","34035.6388","td","null","null","null","null","null","null","[1,3]","498.0248667185313","166.6918693903855","470.2710964656449"
"","canvas-keyboard-response","158","174316","0.0-6.0-5.21","571","","","","","make choice","300","1","","","critical","t","c","d","164","240","240","164","154.6796","220.0396","spektor","0.14","h","164","240","240","164","154.6796","220.0396","39360","39360","34035.6388","td","null","null","null","null","null","null","[1,3]","","",""
"","canvas-keyboard-response","159","174335","0.0-6.0-6.21","571","","","","","clear_screen","null","null","","","critical","t","c","d","164","240","240","164","154.6796","220.0396","spektor","0.14","h","164","240","240","164","154.6796","220.0396","39360","39360","34035.6388","td","null","null","null","null","null","null","[1,3]","","",""
"","canvas-keyboard-response","160","174537","0.0-6.0-0.22","571","","","","","pre trial waiting period","null","null","","","critical","d","t","c","164","240","164","240","240","164","spektor","0","h","164","240","240","164","164","240","39360","39360","39360","tc","null","null","null","null","null","null","[2,3]","489.1019971561364","135.88032390005023","501.6918406336438"
"","canvas-keyboard-response","161","174561","0.0-6.0-1.22","571","","","","","clear_screen","null","null","","","critical","d","t","c","164","240","164","240","240","164","spektor","0","h","164","240","240","164","164","240","39360","39360","39360","tc","null","null","null","null","null","null","[2,3]","489.1019971561364","135.88032390005023","501.6918406336438"
"","canvas-keyboard-response","162","175069","0.0-6.0-2.22","571","","","","","rectangles no change","null","null","","","critical","d","t","c","164","240","164","240","240","164","spektor","0","h","164","240","240","164","164","240","39360","39360","39360","tc","null","null","null","null","null","null","[2,3]","489.1019971561364","135.88032390005023","501.6918406336438"
"","canvas-keyboard-response","163","176406","0.0-6.0-3.22","571","","","","","rectangles with change","null","null","","","critical","d","t","c","164","240","164","240","240","164","spektor","0","h","164","240","240","164","164","240","39360","39360","39360","tc","null","null","null","null","null","null","[2,3]","489.1019971561364","135.88032390005023","501.6918406336438"
"","canvas-keyboard-response","164","176419","0.0-6.0-4.22","571","","","","","clear_screen","1","3","","","critical","d","t","c","164","240","164","240","240","164","spektor","0","h","164","240","240","164","164","240","39360","39360","39360","tc","null","null","null","null","null","null","[2,3]","489.1019971561364","135.88032390005023","501.6918406336438"
"","canvas-keyboard-response","165","177035","0.0-6.0-5.22","571","","","","","make choice","613","3","","","critical","d","t","c","164","240","164","240","240","164","spektor","0","h","164","240","240","164","164","240","39360","39360","39360","tc","null","null","null","null","null","null","[2,3]","","",""
"","canvas-keyboard-response","166","177056","0.0-6.0-6.22","571","","","","","clear_screen","null","null","","","critical","d","t","c","164","240","164","240","240","164","spektor","0","h","164","240","240","164","164","240","39360","39360","39360","tc","null","null","null","null","null","null","[2,3]","","",""
"","canvas-keyboard-response","167","177258","0.0-6.0-0.23","571","","","","","pre trial waiting period","null","null","","","catch","sw","l","sh","180","200","242","178","197","152","spektor","null","null","null","null","null","null","null","null","null","null","null","","180","200","260","200","36000","52000","[2,3]","487.40030673522165","210.67716923594926","538.9077126284357"
"","canvas-keyboard-response","168","177278","0.0-6.0-1.23","571","","","","","clear_screen","null","null","","","catch","sw","l","sh","180","200","242","178","197","152","spektor","null","null","null","null","null","null","null","null","null","null","null","","180","200","260","200","36000","52000","[2,3]","487.40030673522165","210.67716923594926","538.9077126284357"
"","canvas-keyboard-response","169","177786","0.0-6.0-2.23","571","","","","","rectangles no change","null","null","","","catch","sw","l","sh","180","200","242","178","197","152","spektor","null","null","null","null","null","null","null","null","null","null","null","","180","200","260","200","36000","52000","[2,3]","487.40030673522165","210.67716923594926","538.9077126284357"
"","canvas-keyboard-response","170","179122","0.0-6.0-3.23","571","","","","","rectangles with change","null","null","","","catch","sw","l","sh","180","200","242","178","197","152","spektor","null","null","null","null","null","null","null","null","null","null","null","","180","200","260","200","36000","52000","[2,3]","487.40030673522165","210.67716923594926","538.9077126284357"
"","canvas-keyboard-response","171","179143","0.0-6.0-4.23","571","","","","","clear_screen","null","null","","","catch","sw","l","sh","180","200","242","178","197","152","spektor","null","null","null","null","null","null","null","null","null","null","null","","180","200","260","200","36000","52000","[2,3]","487.40030673522165","210.67716923594926","538.9077126284357"
"","canvas-keyboard-response","172","179412","0.0-6.0-5.23","571","","","","","make choice","263","2","","","catch","sw","l","sh","180","200","242","178","197","152","spektor","null","null","null","null","null","null","null","null","null","null","null","","180","200","260","200","36000","52000","[2,3]","","",""
"","canvas-keyboard-response","173","179429","0.0-6.0-6.23","571","","","","","clear_screen","null","null","","","catch","sw","l","sh","180","200","242","178","197","152","spektor","null","null","null","null","null","null","null","null","null","null","null","","180","200","260","200","36000","52000","[2,3]","","",""
"","canvas-keyboard-response","174","179630","0.0-6.0-0.24","571","","","","","pre trial waiting period","null","null","","","critical","d","c","t","154.6796","220.0396","240","164","164","240","trueblood","0.14","h","164","240","240","164","154.6796","220.0396","39360","39360","34035.6388","td","null","null","null","null","null","null","[3,1]","435.31001634631303","470.3130913346541","435.2120244358872"
"","canvas-keyboard-response","175","179651","0.0-6.0-1.24","571","","","","","clear_screen","null","null","","","critical","d","c","t","154.6796","220.0396","240","164","164","240","trueblood","0.14","h","164","240","240","164","154.6796","220.0396","39360","39360","34035.6388","td","null","null","null","null","null","null","[3,1]","435.31001634631303","470.3130913346541","435.2120244358872"
"","canvas-keyboard-response","176","180158","0.0-6.0-2.24","571","","","","","rectangles no change","null","null","","","critical","d","c","t","154.6796","220.0396","240","164","164","240","trueblood","0.14","h","164","240","240","164","154.6796","220.0396","39360","39360","34035.6388","td","null","null","null","null","null","null","[3,1]","435.31001634631303","470.3130913346541","435.2120244358872"
"","canvas-keyboard-response","177","181496","0.0-6.0-3.24","571","","","","","rectangles with change","null","null","","","critical","d","c","t","154.6796","220.0396","240","164","164","240","trueblood","0.14","h","164","240","240","164","154.6796","220.0396","39360","39360","34035.6388","td","null","null","null","null","null","null","[3,1]","435.31001634631303","470.3130913346541","435.2120244358872"
"","canvas-keyboard-response","178","181514","0.0-6.0-4.24","571","","","","","clear_screen","null","null","","","critical","d","c","t","154.6796","220.0396","240","164","164","240","trueblood","0.14","h","164","240","240","164","154.6796","220.0396","39360","39360","34035.6388","td","null","null","null","null","null","null","[3,1]","435.31001634631303","470.3130913346541","435.2120244358872"
"","canvas-keyboard-response","179","181835","0.0-6.0-5.24","571","","","","","make choice","314","3","","","critical","d","c","t","154.6796","220.0396","240","164","164","240","trueblood","0.14","h","164","240","240","164","154.6796","220.0396","39360","39360","34035.6388","td","null","null","null","null","null","null","[3,1]","","",""
"","canvas-keyboard-response","180","181857","0.0-6.0-6.24","571","","","","","clear_screen","null","null","","","critical","d","c","t","154.6796","220.0396","240","164","164","240","trueblood","0.14","h","164","240","240","164","154.6796","220.0396","39360","39360","34035.6388","td","null","null","null","null","null","null","[3,1]","","",""
"","canvas-keyboard-response","181","182058","0.0-6.0-0.25","571","","","","","pre trial waiting period","null","null","","","critical","d","t","c","232.8713","160.6713","240","164","164","240","spektor","0.05","w","240","164","164","240","232.8713","160.6713","39360","39360","37415.7294","dc","null","null","null","null","null","null","[1,3]","503.0998149517292","201.93267803511736","495.6933704659524"
"","canvas-keyboard-response","182","182080","0.0-6.0-1.25","571","","","","","clear_screen","null","null","","","critical","d","t","c","232.8713","160.6713","240","164","164","240","spektor","0.05","w","240","164","164","240","232.8713","160.6713","39360","39360","37415.7294","dc","null","null","null","null","null","null","[1,3]","503.0998149517292","201.93267803511736","495.6933704659524"
"","canvas-keyboard-response","183","182587","0.0-6.0-2.25","571","","","","","rectangles no change","null","null","","","critical","d","t","c","232.8713","160.6713","240","164","164","240","spektor","0.05","w","240","164","164","240","232.8713","160.6713","39360","39360","37415.7294","dc","null","null","null","null","null","null","[1,3]","503.0998149517292","201.93267803511736","495.6933704659524"
"","canvas-keyboard-response","184","183927","0.0-6.0-3.25","571","","","","","rectangles with change","null","null","","","critical","d","t","c","232.8713","160.6713","240","164","164","240","spektor","0.05","w","240","164","164","240","232.8713","160.6713","39360","39360","37415.7294","dc","null","null","null","null","null","null","[1,3]","503.0998149517292","201.93267803511736","495.6933704659524"
"","canvas-keyboard-response","185","183946","0.0-6.0-4.25","571","","","","","clear_screen","null","null","","","critical","d","t","c","232.8713","160.6713","240","164","164","240","spektor","0.05","w","240","164","164","240","232.8713","160.6713","39360","39360","37415.7294","dc","null","null","null","null","null","null","[1,3]","503.0998149517292","201.93267803511736","495.6933704659524"
"","canvas-keyboard-response","186","184459","0.0-6.0-5.25","571","","","","","make choice","508","1","","","critical","d","t","c","232.8713","160.6713","240","164","164","240","spektor","0.05","w","240","164","164","240","232.8713","160.6713","39360","39360","37415.7294","dc","null","null","null","null","null","null","[1,3]","","",""
"","canvas-keyboard-response","187","184479","0.0-6.0-6.25","571","","","","","clear_screen","null","null","","","critical","d","t","c","232.8713","160.6713","240","164","164","240","spektor","0.05","w","240","164","164","240","232.8713","160.6713","39360","39360","37415.7294","dc","null","null","null","null","null","null","[1,3]","","",""
"","canvas-keyboard-response","188","184681","0.0-6.0-0.26","571","","","","","pre trial waiting period","null","null","","","critical","c","t","d","240","164","164","240","162.6685","237.1485","trueblood","0.02","h","164","240","240","164","162.6685","237.1485","39360","39360","38576.5967","td","null","null","null","null","null","null","[2,3]","516.797095250069","461.45785689613643","461.1757110701895"
"","canvas-keyboard-response","189","184702","0.0-6.0-1.26","571","","","","","clear_screen","null","null","","","critical","c","t","d","240","164","164","240","162.6685","237.1485","trueblood","0.02","h","164","240","240","164","162.6685","237.1485","39360","39360","38576.5967","td","null","null","null","null","null","null","[2,3]","516.797095250069","461.45785689613643","461.1757110701895"
"","canvas-keyboard-response","190","185209","0.0-6.0-2.26","571","","","","","rectangles no change","null","null","","","critical","c","t","d","240","164","164","240","162.6685","237.1485","trueblood","0.02","h","164","240","240","164","162.6685","237.1485","39360","39360","38576.5967","td","null","null","null","null","null","null","[2,3]","516.797095250069","461.45785689613643","461.1757110701895"
"","canvas-keyboard-response","191","186544","0.0-6.0-3.26","571","","","","","rectangles with change","null","null","","","critical","c","t","d","240","164","164","240","162.6685","237.1485","trueblood","0.02","h","164","240","240","164","162.6685","237.1485","39360","39360","38576.5967","td","null","null","null","null","null","null","[2,3]","516.797095250069","461.45785689613643","461.1757110701895"
"","canvas-keyboard-response","192","186567","0.0-6.0-4.26","571","","","","","clear_screen","null","null","","","critical","c","t","d","240","164","164","240","162.6685","237.1485","trueblood","0.02","h","164","240","240","164","162.6685","237.1485","39360","39360","38576.5967","td","null","null","null","null","null","null","[2,3]","516.797095250069","461.45785689613643","461.1757110701895"
"","canvas-keyboard-response","193","187955","0.0-6.0-5.26","571","","","","","make choice","1384","2","","","critical","c","t","d","240","164","164","240","162.6685","237.1485","trueblood","0.02","h","164","240","240","164","162.6685","237.1485","39360","39360","38576.5967","td","null","null","null","null","null","null","[2,3]","","",""
"","canvas-keyboard-response","194","187973","0.0-6.0-6.26","571","","","","","clear_screen","null","null","","","critical","c","t","d","240","164","164","240","162.6685","237.1485","trueblood","0.02","h","164","240","240","164","162.6685","237.1485","39360","39360","38576.5967","td","null","null","null","null","null","null","[2,3]","","",""
"","canvas-keyboard-response","195","188174","0.0-6.0-0.27","571","","","","","pre trial waiting period","null","null","","","critical","c","d","t","164","240","220.0396","154.6796","240","164","spektor","0.14","w","240","164","164","240","220.0396","154.6796","39360","39360","34035.6388","td","null","null","null","null","null","null","[3,2]","490.0949723158927","184.06047441834852","512.6801127756091"
"","canvas-keyboard-response","196","188197","0.0-6.0-1.27","571","","","","","clear_screen","null","null","","","critical","c","d","t","164","240","220.0396","154.6796","240","164","spektor","0.14","w","240","164","164","240","220.0396","154.6796","39360","39360","34035.6388","td","null","null","null","null","null","null","[3,2]","490.0949723158927","184.06047441834852","512.6801127756091"
"","canvas-keyboard-response","197","188702","0.0-6.0-2.27","571","","","","","rectangles no change","null","null","","","critical","c","d","t","164","240","220.0396","154.6796","240","164","spektor","0.14","w","240","164","164","240","220.0396","154.6796","39360","39360","34035.6388","td","null","null","null","null","null","null","[3,2]","490.0949723158927","184.06047441834852","512.6801127756091"
"","canvas-keyboard-response","198","190040","0.0-6.0-3.27","571","","","","","rectangles with change","null","null","","","critical","c","d","t","164","240","220.0396","154.6796","240","164","spektor","0.14","w","240","164","164","240","220.0396","154.6796","39360","39360","34035.6388","td","null","null","null","null","null","null","[3,2]","490.0949723158927","184.06047441834852","512.6801127756091"
"","canvas-keyboard-response","199","190064","0.0-6.0-4.27","571","","","","","clear_screen","null","null","","","critical","c","d","t","164","240","220.0396","154.6796","240","164","spektor","0.14","w","240","164","164","240","220.0396","154.6796","39360","39360","34035.6388","td","null","null","null","null","null","null","[3,2]","490.0949723158927","184.06047441834852","512.6801127756091"
"","canvas-keyboard-response","200","190499","0.0-6.0-5.27","571","","","","","make choice","426","3","","","critical","c","d","t","164","240","220.0396","154.6796","240","164","spektor","0.14","w","240","164","164","240","220.0396","154.6796","39360","39360","34035.6388","td","null","null","null","null","null","null","[3,2]","","",""
"","canvas-keyboard-response","201","190517","0.0-6.0-6.27","571","","","","","clear_screen","null","null","","","critical","c","d","t","164","240","220.0396","154.6796","240","164","spektor","0.14","w","240","164","164","240","220.0396","154.6796","39360","39360","34035.6388","td","null","null","null","null","null","null","[3,2]","","",""
"","canvas-keyboard-response","202","190719","0.0-6.0-0.28","571","","","","","pre trial waiting period","null","null","","","catch","sw","l","sh","180","200","235","282","239","175","spektor","null","null","null","null","null","null","null","null","null","null","null","","180","200","260","200","36000","52000","[2,3]","523.3199291634808","83.523615736041","502.56708117915616"
"","canvas-keyboard-response","203","190741","0.0-6.0-1.28","571","","","","","clear_screen","null","null","","","catch","sw","l","sh","180","200","235","282","239","175","spektor","null","null","null","null","null","null","null","null","null","null","null","","180","200","260","200","36000","52000","[2,3]","523.3199291634808","83.523615736041","502.56708117915616"
"","canvas-keyboard-response","204","191249","0.0-6.0-2.28","571","","","","","rectangles no change","null","null","","","catch","sw","l","sh","180","200","235","282","239","175","spektor","null","null","null","null","null","null","null","null","null","null","null","","180","200","260","200","36000","52000","[2,3]","523.3199291634808","83.523615736041","502.56708117915616"
"","canvas-keyboard-response","205","192586","0.0-6.0-3.28","571","","","","","rectangles with change","null","null","","","catch","sw","l","sh","180","200","235","282","239","175","spektor","null","null","null","null","null","null","null","null","null","null","null","","180","200","260","200","36000","52000","[2,3]","523.3199291634808","83.523615736041","502.56708117915616"
"","canvas-keyboard-response","206","192604","0.0-6.0-4.28","571","","","","","clear_screen","null","null","","","catch","sw","l","sh","180","200","235","282","239","175","spektor","null","null","null","null","null","null","null","null","null","null","null","","180","200","260","200","36000","52000","[2,3]","523.3199291634808","83.523615736041","502.56708117915616"
"","canvas-keyboard-response","207","192811","0.0-6.0-5.28","571","","","","","make choice","203","2","","","catch","sw","l","sh","180","200","235","282","239","175","spektor","null","null","null","null","null","null","null","null","null","null","null","","180","200","260","200","36000","52000","[2,3]","","",""
"","canvas-keyboard-response","208","192833","0.0-6.0-6.28","571","","","","","clear_screen","null","null","","","catch","sw","l","sh","180","200","235","282","239","175","spektor","null","null","null","null","null","null","null","null","null","null","null","","180","200","260","200","36000","52000","[2,3]","","",""
"","canvas-keyboard-response","209","193034","0.0-6.0-0.29","571","","","","","pre trial waiting period","null","null","","","critical","d","c","t","164","240","240","164","164","240","spektor","0","h","164","240","240","164","164","240","39360","39360","39360","td","null","null","null","null","null","null","[3,1]","457.392747386876","160.5330625264289","457.77843285966736"
"","canvas-keyboard-response","210","193056","0.0-6.0-1.29","571","","","","","clear_screen","null","null","","","critical","d","c","t","164","240","240","164","164","240","spektor","0","h","164","240","240","164","164","240","39360","39360","39360","td","null","null","null","null","null","null","[3,1]","457.392747386876","160.5330625264289","457.77843285966736"
"","canvas-keyboard-response","211","193564","0.0-6.0-2.29","571","","","","","rectangles no change","null","null","","","critical","d","c","t","164","240","240","164","164","240","spektor","0","h","164","240","240","164","164","240","39360","39360","39360","td","null","null","null","null","null","null","[3,1]","457.392747386876","160.5330625264289","457.77843285966736"
"","canvas-keyboard-response","212","194899","0.0-6.0-3.29","571","","","","","rectangles with change","null","null","","","critical","d","c","t","164","240","240","164","164","240","spektor","0","h","164","240","240","164","164","240","39360","39360","39360","td","null","null","null","null","null","null","[3,1]","457.392747386876","160.5330625264289","457.77843285966736"
"","canvas-keyboard-response","213","194920","0.0-6.0-4.29","571","","","","","clear_screen","null","null","","","critical","d","c","t","164","240","240","164","164","240","spektor","0","h","164","240","240","164","164","240","39360","39360","39360","td","null","null","null","null","null","null","[3,1]","457.392747386876","160.5330625264289","457.77843285966736"
"","canvas-keyboard-response","214","196883","0.0-6.0-5.29","571","","","","","make choice","1959","1","","","critical","d","c","t","164","240","240","164","164","240","spektor","0","h","164","240","240","164","164","240","39360","39360","39360","td","null","null","null","null","null","null","[3,1]","","",""
"","canvas-keyboard-response","215","196902","0.0-6.0-6.29","571","","","","","clear_screen","null","null","","","critical","d","c","t","164","240","240","164","164","240","spektor","0","h","164","240","240","164","164","240","39360","39360","39360","td","null","null","null","null","null","null","[3,1]","","",""
"","canvas-keyboard-response","216","197103","0.0-6.0-0.30","571","","","","","pre trial waiting period","null","null","","","catch","sh","l","sw","200","194","174","268","143","177","spektor","null","null","null","null","null","null","null","null","null","null","null","","180","200","260","200","36000","52000","[1,2]","478.04105831307993","86.01105964449998","488.0921303353896"
"","canvas-keyboard-response","217","197122","0.0-6.0-1.30","571","","","","","clear_screen","null","null","","","catch","sh","l","sw","200","194","174","268","143","177","spektor","null","null","null","null","null","null","null","null","null","null","null","","180","200","260","200","36000","52000","[1,2]","478.04105831307993","86.01105964449998","488.0921303353896"
"","canvas-keyboard-response","218","197631","0.0-6.0-2.30","571","","","","","rectangles no change","null","null","","","catch","sh","l","sw","200","194","174","268","143","177","spektor","null","null","null","null","null","null","null","null","null","null","null","","180","200","260","200","36000","52000","[1,2]","478.04105831307993","86.01105964449998","488.0921303353896"
"","canvas-keyboard-response","219","198968","0.0-6.0-3.30","571","","","","","rectangles with change","null","null","","","catch","sh","l","sw","200","194","174","268","143","177","spektor","null","null","null","null","null","null","null","null","null","null","null","","180","200","260","200","36000","52000","[1,2]","478.04105831307993","86.01105964449998","488.0921303353896"
"","canvas-keyboard-response","220","198991","0.0-6.0-4.30","571","","","","","clear_screen","null","null","","","catch","sh","l","sw","200","194","174","268","143","177","spektor","null","null","null","null","null","null","null","null","null","null","null","","180","200","260","200","36000","52000","[1,2]","478.04105831307993","86.01105964449998","488.0921303353896"
"","canvas-keyboard-response","221","202091","0.0-6.0-5.30","571","","","","","make choice","3097","1","","","catch","sh","l","sw","200","194","174","268","143","177","spektor","null","null","null","null","null","null","null","null","null","null","null","","180","200","260","200","36000","52000","[1,2]","","",""
"","canvas-keyboard-response","222","202108","0.0-6.0-6.30","571","","","","","clear_screen","null","null","","","catch","sh","l","sw","200","194","174","268","143","177","spektor","null","null","null","null","null","null","null","null","null","null","null","","180","200","260","200","36000","52000","[1,2]","","",""
"","canvas-keyboard-response","223","202310","0.0-6.0-0.31","571","","","","","pre trial waiting period","null","null","","","critical","t","c","d","164","240","240","164","158.0083","227.1683","trueblood","0.09","h","164","240","240","164","158.0083","227.1683","39360","39360","35894.4834","dc","null","null","null","null","null","null","[3,2]","421.247482457674","509.9448514313538","468.80206916578925"
"","canvas-keyboard-response","224","202329","0.0-6.0-1.31","571","","","","","clear_screen","null","null","","","critical","t","c","d","164","240","240","164","158.0083","227.1683","trueblood","0.09","h","164","240","240","164","158.0083","227.1683","39360","39360","35894.4834","dc","null","null","null","null","null","null","[3,2]","421.247482457674","509.9448514313538","468.80206916578925"
"","canvas-keyboard-response","225","202840","0.0-6.0-2.31","571","","","","","rectangles no change","null","null","","","critical","t","c","d","164","240","240","164","158.0083","227.1683","trueblood","0.09","h","164","240","240","164","158.0083","227.1683","39360","39360","35894.4834","dc","null","null","null","null","null","null","[3,2]","421.247482457674","509.9448514313538","468.80206916578925"
"","canvas-keyboard-response","226","204179","0.0-6.0-3.31","571","","","","","rectangles with change","null","null","","","critical","t","c","d","164","240","240","164","158.0083","227.1683","trueblood","0.09","h","164","240","240","164","158.0083","227.1683","39360","39360","35894.4834","dc","null","null","null","null","null","null","[3,2]","421.247482457674","509.9448514313538","468.80206916578925"
"","canvas-keyboard-response","227","204201","0.0-6.0-4.31","571","","","","","clear_screen","null","null","","","critical","t","c","d","164","240","240","164","158.0083","227.1683","trueblood","0.09","h","164","240","240","164","158.0083","227.1683","39360","39360","35894.4834","dc","null","null","null","null","null","null","[3,2]","421.247482457674","509.9448514313538","468.80206916578925"
"","canvas-keyboard-response","228","204580","0.0-6.0-5.31","571","","","","","make choice","372","2","","","critical","t","c","d","164","240","240","164","158.0083","227.1683","trueblood","0.09","h","164","240","240","164","158.0083","227.1683","39360","39360","35894.4834","dc","null","null","null","null","null","null","[3,2]","","",""
"","canvas-keyboard-response","229","204598","0.0-6.0-6.31","571","","","","","clear_screen","null","null","","","critical","t","c","d","164","240","240","164","158.0083","227.1683","trueblood","0.09","h","164","240","240","164","158.0083","227.1683","39360","39360","35894.4834","dc","null","null","null","null","null","null","[3,2]","","",""
"","canvas-keyboard-response","230","204799","0.0-6.0-0.32","571","","","","","pre trial waiting period","null","null","","","catch","l","sh","sw","219","286","165","197","164","209","trueblood","null","null","null","null","null","null","null","null","null","null","null","","180","200","260","200","36000","52000","[1,2]","434.21082652388833","482.6551672921906","469.7726168210899"
"","canvas-keyboard-response","231","204822","0.0-6.0-1.32","571","","","","","clear_screen","null","null","","","catch","l","sh","sw","219","286","165","197","164","209","trueblood","null","null","null","null","null","null","null","null","null","null","null","","180","200","260","200","36000","52000","[1,2]","434.21082652388833","482.6551672921906","469.7726168210899"
"","canvas-keyboard-response","232","205326","0.0-6.0-2.32","571","","","","","rectangles no change","null","null","","","catch","l","sh","sw","219","286","165","197","164","209","trueblood","null","null","null","null","null","null","null","null","null","null","null","","180","200","260","200","36000","52000","[1,2]","434.21082652388833","482.6551672921906","469.7726168210899"
"","canvas-keyboard-response","233","206665","0.0-6.0-3.32","571","","","","","rectangles with change","null","null","","","catch","l","sh","sw","219","286","165","197","164","209","trueblood","null","null","null","null","null","null","null","null","null","null","null","","180","200","260","200","36000","52000","[1,2]","434.21082652388833","482.6551672921906","469.7726168210899"
"","canvas-keyboard-response","234","206684","0.0-6.0-4.32","571","","","","","clear_screen","null","null","","","catch","l","sh","sw","219","286","165","197","164","209","trueblood","null","null","null","null","null","null","null","null","null","null","null","","180","200","260","200","36000","52000","[1,2]","434.21082652388833","482.6551672921906","469.7726168210899"
"","canvas-keyboard-response","235","206939","0.0-6.0-5.32","571","","","","","make choice","249","1","","","catch","l","sh","sw","219","286","165","197","164","209","trueblood","null","null","null","null","null","null","null","null","null","null","null","","180","200","260","200","36000","52000","[1,2]","","",""
"","canvas-keyboard-response","236","206961","0.0-6.0-6.32","571","","","","","clear_screen","null","null","","","catch","l","sh","sw","219","286","165","197","164","209","trueblood","null","null","null","null","null","null","null","null","null","null","null","","180","200","260","200","36000","52000","[1,2]","","",""
"","canvas-keyboard-response","237","207162","0.0-6.0-0.33","571","","","","","pre trial waiting period","null","null","","","critical","d","c","t","154.6796","220.0396","240","164","164","240","spektor","0.14","h","164","240","240","164","154.6796","220.0396","39360","39360","34035.6388","tc","null","null","null","null","null","null","[3,2]","481.9744583880591","158.1379880957207","488.85478712992966"
"","canvas-keyboard-response","238","207184","0.0-6.0-1.33","571","","","","","clear_screen","null","null","","","critical","d","c","t","154.6796","220.0396","240","164","164","240","spektor","0.14","h","164","240","240","164","154.6796","220.0396","39360","39360","34035.6388","tc","null","null","null","null","null","null","[3,2]","481.9744583880591","158.1379880957207","488.85478712992966"
"","canvas-keyboard-response","239","207691","0.0-6.0-2.33","571","","","","","rectangles no change","null","null","","","critical","d","c","t","154.6796","220.0396","240","164","164","240","spektor","0.14","h","164","240","240","164","154.6796","220.0396","39360","39360","34035.6388","tc","null","null","null","null","null","null","[3,2]","481.9744583880591","158.1379880957207","488.85478712992966"
"","canvas-keyboard-response","240","209031","0.0-6.0-3.33","571","","","","","rectangles with change","null","null","","","critical","d","c","t","154.6796","220.0396","240","164","164","240","spektor","0.14","h","164","240","240","164","154.6796","220.0396","39360","39360","34035.6388","tc","null","null","null","null","null","null","[3,2]","481.9744583880591","158.1379880957207","488.85478712992966"
"","canvas-keyboard-response","241","209053","0.0-6.0-4.33","571","","","","","clear_screen","null","null","","","critical","d","c","t","154.6796","220.0396","240","164","164","240","spektor","0.14","h","164","240","240","164","154.6796","220.0396","39360","39360","34035.6388","tc","null","null","null","null","null","null","[3,2]","481.9744583880591","158.1379880957207","488.85478712992966"
"","canvas-keyboard-response","242","209987","0.0-6.0-5.33","571","","","","","make choice","931","2","","","critical","d","c","t","154.6796","220.0396","240","164","164","240","spektor","0.14","h","164","240","240","164","154.6796","220.0396","39360","39360","34035.6388","tc","null","null","null","null","null","null","[3,2]","","",""
"","canvas-keyboard-response","243","210007","0.0-6.0-6.33","571","","","","","clear_screen","null","null","","","critical","d","c","t","154.6796","220.0396","240","164","164","240","spektor","0.14","h","164","240","240","164","154.6796","220.0396","39360","39360","34035.6388","tc","null","null","null","null","null","null","[3,2]","","",""
"","canvas-keyboard-response","244","210207","0.0-6.0-0.34","571","","","","","pre trial waiting period","null","null","","","critical","t","c","d","240","164","164","240","227.1683","158.0083","trueblood","0.09","w","240","164","164","240","227.1683","158.0083","39360","39360","35894.4834","td","null","null","null","null","null","null","[1,3]","488.7652559893445","458.13309152932624","508.8166195719434"
"","canvas-keyboard-response","245","210227","0.0-6.0-1.34","571","","","","","clear_screen","null","null","","","critical","t","c","d","240","164","164","240","227.1683","158.0083","trueblood","0.09","w","240","164","164","240","227.1683","158.0083","39360","39360","35894.4834","td","null","null","null","null","null","null","[1,3]","488.7652559893445","458.13309152932624","508.8166195719434"
"","canvas-keyboard-response","246","210734","0.0-6.0-2.34","571","","","","","rectangles no change","null","null","","","critical","t","c","d","240","164","164","240","227.1683","158.0083","trueblood","0.09","w","240","164","164","240","227.1683","158.0083","39360","39360","35894.4834","td","null","null","null","null","null","null","[1,3]","488.7652559893445","458.13309152932624","508.8166195719434"
"","canvas-keyboard-response","247","212072","0.0-6.0-3.34","571","","","","","rectangles with change","null","null","","","critical","t","c","d","240","164","164","240","227.1683","158.0083","trueblood","0.09","w","240","164","164","240","227.1683","158.0083","39360","39360","35894.4834","td","null","null","null","null","null","null","[1,3]","488.7652559893445","458.13309152932624","508.8166195719434"
"","canvas-keyboard-response","248","212094","0.0-6.0-4.34","571","","","","","clear_screen","null","null","","","critical","t","c","d","240","164","164","240","227.1683","158.0083","trueblood","0.09","w","240","164","164","240","227.1683","158.0083","39360","39360","35894.4834","td","null","null","null","null","null","null","[1,3]","488.7652559893445","458.13309152932624","508.8166195719434"
"","canvas-keyboard-response","249","212379","0.0-6.0-5.34","571","","","","","make choice","277","1","","","critical","t","c","d","240","164","164","240","227.1683","158.0083","trueblood","0.09","w","240","164","164","240","227.1683","158.0083","39360","39360","35894.4834","td","null","null","null","null","null","null","[1,3]","","",""
"","canvas-keyboard-response","250","212401","0.0-6.0-6.34","571","","","","","clear_screen","null","null","","","critical","t","c","d","240","164","164","240","227.1683","158.0083","trueblood","0.09","w","240","164","164","240","227.1683","158.0083","39360","39360","35894.4834","td","null","null","null","null","null","null","[1,3]","","",""
"","canvas-keyboard-response","251","212602","0.0-6.0-0.35","571","","","","","pre trial waiting period","null","null","","","catch","sh","l","sw","197","180","240","165","201","222","spektor","null","null","null","null","null","null","null","null","null","null","null","","180","200","260","200","36000","52000","[1,2]","505.8200072088272","174.47416131965272","497.0673581467711"
"","canvas-keyboard-response","252","212625","0.0-6.0-1.35","571","","","","","clear_screen","null","null","","","catch","sh","l","sw","197","180","240","165","201","222","spektor","null","null","null","null","null","null","null","null","null","null","null","","180","200","260","200","36000","52000","[1,2]","505.8200072088272","174.47416131965272","497.0673581467711"
"","canvas-keyboard-response","253","213131","0.0-6.0-2.35","571","","","","","rectangles no change","null","null","","","catch","sh","l","sw","197","180","240","165","201","222","spektor","null","null","null","null","null","null","null","null","null","null","null","","180","200","260","200","36000","52000","[1,2]","505.8200072088272","174.47416131965272","497.0673581467711"
"","canvas-keyboard-response","254","214471","0.0-6.0-3.35","571","","","","","rectangles with change","null","null","","","catch","sh","l","sw","197","180","240","165","201","222","spektor","null","null","null","null","null","null","null","null","null","null","null","","180","200","260","200","36000","52000","[1,2]","505.8200072088272","174.47416131965272","497.0673581467711"
"","canvas-keyboard-response","255","214491","0.0-6.0-4.35","571","","","","","clear_screen","null","null","","","catch","sh","l","sw","197","180","240","165","201","222","spektor","null","null","null","null","null","null","null","null","null","null","null","","180","200","260","200","36000","52000","[1,2]","505.8200072088272","174.47416131965272","497.0673581467711"
"","canvas-keyboard-response","256","214899","0.0-6.0-5.35","571","","","","","make choice","402","2","","","catch","sh","l","sw","197","180","240","165","201","222","spektor","null","null","null","null","null","null","null","null","null","null","null","","180","200","260","200","36000","52000","[1,2]","","",""
"","canvas-keyboard-response","257","214916","0.0-6.0-6.35","571","","","","","clear_screen","null","null","","","catch","sh","l","sw","197","180","240","165","201","222","spektor","null","null","null","null","null","null","null","null","null","null","null","","180","200","260","200","36000","52000","[1,2]","","",""
"","canvas-keyboard-response","258","215117","0.0-6.0-0.36","571","","","","","pre trial waiting period","null","null","","","critical","d","c","t","240","164","164","240","240","164","spektor","0","w","240","164","164","240","240","164","39360","39360","39360","tc","null","null","null","null","null","null","[3,2]","520.9667971790865","142.6938898503194","517.0930353513143"
"","canvas-keyboard-response","259","215138","0.0-6.0-1.36","571","","","","","clear_screen","null","null","","","critical","d","c","t","240","164","164","240","240","164","spektor","0","w","240","164","164","240","240","164","39360","39360","39360","tc","null","null","null","null","null","null","[3,2]","520.9667971790865","142.6938898503194","517.0930353513143"
"","canvas-keyboard-response","260","215645","0.0-6.0-2.36","571","","","","","rectangles no change","null","null","","","critical","d","c","t","240","164","164","240","240","164","spektor","0","w","240","164","164","240","240","164","39360","39360","39360","tc","null","null","null","null","null","null","[3,2]","520.9667971790865","142.6938898503194","517.0930353513143"
"","canvas-keyboard-response","261","216984","0.0-6.0-3.36","571","","","","","rectangles with change","null","null","","","critical","d","c","t","240","164","164","240","240","164","spektor","0","w","240","164","164","240","240","164","39360","39360","39360","tc","null","null","null","null","null","null","[3,2]","520.9667971790865","142.6938898503194","517.0930353513143"
"","canvas-keyboard-response","262","217003","0.0-6.0-4.36","571","","","","","clear_screen","null","null","","","critical","d","c","t","240","164","164","240","240","164","spektor","0","w","240","164","164","240","240","164","39360","39360","39360","tc","null","null","null","null","null","null","[3,2]","520.9667971790865","142.6938898503194","517.0930353513143"
"","canvas-keyboard-response","263","217211","0.0-6.0-5.36","571","","","","","make choice","200","3","","","critical","d","c","t","240","164","164","240","240","164","spektor","0","w","240","164","164","240","240","164","39360","39360","39360","tc","null","null","null","null","null","null","[3,2]","","",""
"","canvas-keyboard-response","264","217230","0.0-6.0-6.36","571","","","","","clear_screen","null","null","","","critical","d","c","t","240","164","164","240","240","164","spektor","0","w","240","164","164","240","240","164","39360","39360","39360","tc","null","null","null","null","null","null","[3,2]","","",""
"","canvas-keyboard-response","265","217430","0.0-6.0-0.37","571","","","","","pre trial waiting period","null","null","","","critical","c","t","d","164","240","240","164","220.0396","154.6796","trueblood","0.14","w","240","164","164","240","220.0396","154.6796","39360","39360","34035.6388","tc","null","null","null","null","null","null","[2,1]","423.98621606579144","492.9959487979089","477.08816930052257"
"","canvas-keyboard-response","266","217456","0.0-6.0-1.37","571","","","","","clear_screen","null","null","","","critical","c","t","d","164","240","240","164","220.0396","154.6796","trueblood","0.14","w","240","164","164","240","220.0396","154.6796","39360","39360","34035.6388","tc","null","null","null","null","null","null","[2,1]","423.98621606579144","492.9959487979089","477.08816930052257"
"","canvas-keyboard-response","267","217963","0.0-6.0-2.37","571","","","","","rectangles no change","null","null","","","critical","c","t","d","164","240","240","164","220.0396","154.6796","trueblood","0.14","w","240","164","164","240","220.0396","154.6796","39360","39360","34035.6388","tc","null","null","null","null","null","null","[2,1]","423.98621606579144","492.9959487979089","477.08816930052257"
"","canvas-keyboard-response","268","219300","0.0-6.0-3.37","571","","","","","rectangles with change","null","null","","","critical","c","t","d","164","240","240","164","220.0396","154.6796","trueblood","0.14","w","240","164","164","240","220.0396","154.6796","39360","39360","34035.6388","tc","null","null","null","null","null","null","[2,1]","423.98621606579144","492.9959487979089","477.08816930052257"
