"success","trial_type","trial_index","time_elapsed","internal_node_id","sub_n","timeout","failed_images","failed_audio","failed_video","screen_id","rt","response","stimulus","view_history","trial","r1","r2","r3","w1","h1","w2","h2","w3","h3","display","tdd","tdo","tw","th","cw","ch","dw","dh","ta","ca","da","probe","csls","csss","clls","clss","sa","la","probe_rects","r1yloc","r2yloc","r3yloc"
"true","fullscreen","0","2440","0.0-0.0","525","","","","","","","","","","","","","","","","","","","","","","","","","","","","","","","","","","","","","","","","","",""
"true","preload","1","2472","0.0-1.0","525","false","[]","[]","[]","img preload","","","","","","","","","","","","","","","","","","","","","","","","","","","","","","","","","","","","",""
"","survey-html-form","2","7801","0.0-2.0","525","","","","","enter-sub-number","5307","{""response"":""525""}","","","","","","","","","","","","","","","","","","","","","","","","","","","","","","","","","","",""
"","image-button-response","3","57334","0.0-3.0","525","","","","","","49430","0","consent.png","","","","","","","","","","","","","","","","","","","","","","","","","","","","","","","","","",""
"","html-button-response","4","63836","0.0-4.0","525","","","","","intro mssg","6496","0","<div style= ""font-size:25px;"" <p> <strong> Welcome! </strong><br> <p style=""color:#8B0000; font-size:25px;""><strong> Please do NOT exit full screen until you are done with the experiment. </strong> </p><p style=""font-size:25px;color:#8B0000;""> <strong> Your data will be lost <br> if you try to go back or refresh the page after the experiment starts. Feel free to click ""previous"" during the instructions, however.</strong> </p><br><p> <strong> Thanks in advance for your contribution to our research! </strong></p>","","","","","","","","","","","","","","","","","","","","","","","","","","","","","","","","","",""
"","instructions","5","110445","0.0-5.0","525","","","","","instructions","46605","","","[{""page_index"":0,""viewing_time"":5221},{""page_index"":1,""viewing_time"":7776},{""page_index"":2,""viewing_time"":6423},{""page_index"":3,""viewing_time"":15649},{""page_index"":4,""viewing_time"":4616},{""page_index"":5,""viewing_time"":2703},{""page_index"":6,""viewing_time"":2153},{""page_index"":7,""viewing_time"":2064}]","","","","","","","","","","","","","","","","","","","","","","","","","","","","","","","","",""
"","canvas-keyboard-response","6","110650","0.0-6.0-0.0","525","","","","","pre trial waiting period","null","null","","","critical","d","c","t","232.8713","160.6713","164","240","240","164","spektor","0.05","w","240","164","164","240","232.8713","160.6713","39360","39360","37415.7294","tc","null","null","null","null","null","null","[3,2]","525.136406250678","146.5675170001105","535.4527762641064"
"","canvas-keyboard-response","7","110674","0.0-6.0-1.0","525","","","","","clear_screen","null","null","","","critical","d","c","t","232.8713","160.6713","164","240","240","164","spektor","0.05","w","240","164","164","240","232.8713","160.6713","39360","39360","37415.7294","tc","null","null","null","null","null","null","[3,2]","525.136406250678","146.5675170001105","535.4527762641064"
"","canvas-keyboard-response","8","111190","0.0-6.0-2.0","525","","","","","rectangles no change","null","null","","","critical","d","c","t","232.8713","160.6713","164","240","240","164","spektor","0.05","w","240","164","164","240","232.8713","160.6713","39360","39360","37415.7294","tc","null","null","null","null","null","null","[3,2]","525.136406250678","146.5675170001105","535.4527762641064"
"","canvas-keyboard-response","9","112527","0.0-6.0-3.0","525","","","","","rectangles with change","null","null","","","critical","d","c","t","232.8713","160.6713","164","240","240","164","spektor","0.05","w","240","164","164","240","232.8713","160.6713","39360","39360","37415.7294","tc","null","null","null","null","null","null","[3,2]","525.136406250678","146.5675170001105","535.4527762641064"
"","canvas-keyboard-response","10","112545","0.0-6.0-4.0","525","","","","","clear_screen","null","null","","","critical","d","c","t","232.8713","160.6713","164","240","240","164","spektor","0.05","w","240","164","164","240","232.8713","160.6713","39360","39360","37415.7294","tc","null","null","null","null","null","null","[3,2]","525.136406250678","146.5675170001105","535.4527762641064"
"","canvas-keyboard-response","11","120480","0.0-6.0-5.0","525","","","","","make choice","7924","3","","","critical","d","c","t","232.8713","160.6713","164","240","240","164","spektor","0.05","w","240","164","164","240","232.8713","160.6713","39360","39360","37415.7294","tc","null","null","null","null","null","null","[3,2]","","",""
"","canvas-keyboard-response","12","120499","0.0-6.0-6.0","525","","","","","clear_screen","null","null","","","critical","d","c","t","232.8713","160.6713","164","240","240","164","spektor","0.05","w","240","164","164","240","232.8713","160.6713","39360","39360","37415.7294","tc","null","null","null","null","null","null","[3,2]","","",""
"","canvas-keyboard-response","13","120700","0.0-6.0-0.1","525","","","","","pre trial waiting period","null","null","","","catch","l","sh","sw","202","280","226","172","193","194","spektor","null","null","null","null","null","null","null","null","null","null","null","","180","200","260","200","36000","52000","[1,2]","474.9504263909141","189.78460071383566","496.91632798115063"
"","canvas-keyboard-response","14","120720","0.0-6.0-1.1","525","","","","","clear_screen","null","null","","","catch","l","sh","sw","202","280","226","172","193","194","spektor","null","null","null","null","null","null","null","null","null","null","null","","180","200","260","200","36000","52000","[1,2]","474.9504263909141","189.78460071383566","496.91632798115063"
"","canvas-keyboard-response","15","121231","0.0-6.0-2.1","525","","","","","rectangles no change","null","null","","","catch","l","sh","sw","202","280","226","172","193","194","spektor","null","null","null","null","null","null","null","null","null","null","null","","180","200","260","200","36000","52000","[1,2]","474.9504263909141","189.78460071383566","496.91632798115063"
"","canvas-keyboard-response","16","122566","0.0-6.0-3.1","525","","","","","rectangles with change","null","null","","","catch","l","sh","sw","202","280","226","172","193","194","spektor","null","null","null","null","null","null","null","null","null","null","null","","180","200","260","200","36000","52000","[1,2]","474.9504263909141","189.78460071383566","496.91632798115063"
"","canvas-keyboard-response","17","122588","0.0-6.0-4.1","525","","","","","clear_screen","null","null","","","catch","l","sh","sw","202","280","226","172","193","194","spektor","null","null","null","null","null","null","null","null","null","null","null","","180","200","260","200","36000","52000","[1,2]","474.9504263909141","189.78460071383566","496.91632798115063"
"","canvas-keyboard-response","18","123192","0.0-6.0-5.1","525","","","","","make choice","591","1","","","catch","l","sh","sw","202","280","226","172","193","194","spektor","null","null","null","null","null","null","null","null","null","null","null","","180","200","260","200","36000","52000","[1,2]","","",""
"","canvas-keyboard-response","19","123211","0.0-6.0-6.1","525","","","","","clear_screen","null","null","","","catch","l","sh","sw","202","280","226","172","193","194","spektor","null","null","null","null","null","null","null","null","null","null","null","","180","200","260","200","36000","52000","[1,2]","","",""
"","canvas-keyboard-response","20","123412","0.0-6.0-0.2","525","","","","","pre trial waiting period","null","null","","","critical","d","t","c","237.1485","162.6685","240","164","164","240","spektor","0.02","w","240","164","164","240","237.1485","162.6685","39360","39360","38576.5967","dc","null","null","null","null","null","null","[1,3]","499.195395118878","208.9394996069891","485.23533593317114"
"","canvas-keyboard-response","21","123432","0.0-6.0-1.2","525","","","","","clear_screen","null","null","","","critical","d","t","c","237.1485","162.6685","240","164","164","240","spektor","0.02","w","240","164","164","240","237.1485","162.6685","39360","39360","38576.5967","dc","null","null","null","null","null","null","[1,3]","499.195395118878","208.9394996069891","485.23533593317114"
"","canvas-keyboard-response","22","123942","0.0-6.0-2.2","525","","","","","rectangles no change","null","null","","","critical","d","t","c","237.1485","162.6685","240","164","164","240","spektor","0.02","w","240","164","164","240","237.1485","162.6685","39360","39360","38576.5967","dc","null","null","null","null","null","null","[1,3]","499.195395118878","208.9394996069891","485.23533593317114"
"","canvas-keyboard-response","23","125276","0.0-6.0-3.2","525","","","","","rectangles with change","null","null","","","critical","d","t","c","237.1485","162.6685","240","164","164","240","spektor","0.02","w","240","164","164","240","237.1485","162.6685","39360","39360","38576.5967","dc","null","null","null","null","null","null","[1,3]","499.195395118878","208.9394996069891","485.23533593317114"
"","canvas-keyboard-response","24","125295","0.0-6.0-4.2","525","","","","","clear_screen","null","null","","","critical","d","t","c","237.1485","162.6685","240","164","164","240","spektor","0.02","w","240","164","164","240","237.1485","162.6685","39360","39360","38576.5967","dc","null","null","null","null","null","null","[1,3]","499.195395118878","208.9394996069891","485.23533593317114"
"","canvas-keyboard-response","25","126088","0.0-6.0-5.2","525","","","","","make choice","785","1","","","critical","d","t","c","237.1485","162.6685","240","164","164","240","spektor","0.02","w","240","164","164","240","237.1485","162.6685","39360","39360","38576.5967","dc","null","null","null","null","null","null","[1,3]","","",""
"","canvas-keyboard-response","26","126106","0.0-6.0-6.2","525","","","","","clear_screen","null","null","","","critical","d","t","c","237.1485","162.6685","240","164","164","240","spektor","0.02","w","240","164","164","240","237.1485","162.6685","39360","39360","38576.5967","dc","null","null","null","null","null","null","[1,3]","","",""
"","canvas-keyboard-response","27","126307","0.0-6.0-0.3","525","","","","","pre trial waiting period","null","null","","","catch","sw","l","sh","180","200","168","251","211","215","trueblood","null","null","null","null","null","null","null","null","null","null","null","","180","200","260","200","36000","52000","[1,2]","456.3217585637791","441.78620378271006","443.1653460678717"
"","canvas-keyboard-response","28","126327","0.0-6.0-1.3","525","","","","","clear_screen","null","null","","","catch","sw","l","sh","180","200","168","251","211","215","trueblood","null","null","null","null","null","null","null","null","null","null","null","","180","200","260","200","36000","52000","[1,2]","456.3217585637791","441.78620378271006","443.1653460678717"
"","canvas-keyboard-response","29","126840","0.0-6.0-2.3","525","","","","","rectangles no change","null","null","","","catch","sw","l","sh","180","200","168","251","211","215","trueblood","null","null","null","null","null","null","null","null","null","null","null","","180","200","260","200","36000","52000","[1,2]","456.3217585637791","441.78620378271006","443.1653460678717"
"","canvas-keyboard-response","30","128175","0.0-6.0-3.3","525","","","","","rectangles with change","null","null","","","catch","sw","l","sh","180","200","168","251","211","215","trueblood","null","null","null","null","null","null","null","null","null","null","null","","180","200","260","200","36000","52000","[1,2]","456.3217585637791","441.78620378271006","443.1653460678717"
"","canvas-keyboard-response","31","128194","0.0-6.0-4.3","525","","","","","clear_screen","null","null","","","catch","sw","l","sh","180","200","168","251","211","215","trueblood","null","null","null","null","null","null","null","null","null","null","null","","180","200","260","200","36000","52000","[1,2]","456.3217585637791","441.78620378271006","443.1653460678717"
"","canvas-keyboard-response","32","128552","0.0-6.0-5.3","525","","","","","make choice","350","2","","","catch","sw","l","sh","180","200","168","251","211","215","trueblood","null","null","null","null","null","null","null","null","null","null","null","","180","200","260","200","36000","52000","[1,2]","","",""
"","canvas-keyboard-response","33","128568","0.0-6.0-6.3","525","","","","","clear_screen","null","null","","","catch","sw","l","sh","180","200","168","251","211","215","trueblood","null","null","null","null","null","null","null","null","null","null","null","","180","200","260","200","36000","52000","[1,2]","","",""
"","canvas-keyboard-response","34","128770","0.0-6.0-0.4","525","","","","","pre trial waiting period","null","null","","","critical","t","d","c","240","164","232.8713","160.6713","164","240","trueblood","0.05","w","240","164","164","240","232.8713","160.6713","39360","39360","37415.7294","dc","null","null","null","null","null","null","[2,3]","516.0724533591666","505.27580350381163","440.0564000520103"
"","canvas-keyboard-response","35","128789","0.0-6.0-1.4","525","","","","","clear_screen","null","null","","","critical","t","d","c","240","164","232.8713","160.6713","164","240","trueblood","0.05","w","240","164","164","240","232.8713","160.6713","39360","39360","37415.7294","dc","null","null","null","null","null","null","[2,3]","516.0724533591666","505.27580350381163","440.0564000520103"
"","canvas-keyboard-response","36","129297","0.0-6.0-2.4","525","","","","","rectangles no change","null","null","","","critical","t","d","c","240","164","232.8713","160.6713","164","240","trueblood","0.05","w","240","164","164","240","232.8713","160.6713","39360","39360","37415.7294","dc","null","null","null","null","null","null","[2,3]","516.0724533591666","505.27580350381163","440.0564000520103"
"","canvas-keyboard-response","37","130631","0.0-6.0-3.4","525","","","","","rectangles with change","null","null","","","critical","t","d","c","240","164","232.8713","160.6713","164","240","trueblood","0.05","w","240","164","164","240","232.8713","160.6713","39360","39360","37415.7294","dc","null","null","null","null","null","null","[2,3]","516.0724533591666","505.27580350381163","440.0564000520103"
"","canvas-keyboard-response","38","130649","0.0-6.0-4.4","525","","","","","clear_screen","null","null","","","critical","t","d","c","240","164","232.8713","160.6713","164","240","trueblood","0.05","w","240","164","164","240","232.8713","160.6713","39360","39360","37415.7294","dc","null","null","null","null","null","null","[2,3]","516.0724533591666","505.27580350381163","440.0564000520103"
"","canvas-keyboard-response","39","131048","0.0-6.0-5.4","525","","","","","make choice","392","2","","","critical","t","d","c","240","164","232.8713","160.6713","164","240","trueblood","0.05","w","240","164","164","240","232.8713","160.6713","39360","39360","37415.7294","dc","null","null","null","null","null","null","[2,3]","","",""
"","canvas-keyboard-response","40","131065","0.0-6.0-6.4","525","","","","","clear_screen","null","null","","","critical","t","d","c","240","164","232.8713","160.6713","164","240","trueblood","0.05","w","240","164","164","240","232.8713","160.6713","39360","39360","37415.7294","dc","null","null","null","null","null","null","[2,3]","","",""
"","canvas-keyboard-response","41","131268","0.0-6.0-0.5","525","","","","","pre trial waiting period","null","null","","","catch","l","sw","sh","210","236","146","218","227","161","trueblood","null","null","null","null","null","null","null","null","null","null","null","","180","200","260","200","36000","52000","[1,3]","432.08005686669384","474.98011838130304","488.35129182676917"
"","canvas-keyboard-response","42","131286","0.0-6.0-1.5","525","","","","","clear_screen","null","null","","","catch","l","sw","sh","210","236","146","218","227","161","trueblood","null","null","null","null","null","null","null","null","null","null","null","","180","200","260","200","36000","52000","[1,3]","432.08005686669384","474.98011838130304","488.35129182676917"
"","canvas-keyboard-response","43","131799","0.0-6.0-2.5","525","","","","","rectangles no change","null","null","","","catch","l","sw","sh","210","236","146","218","227","161","trueblood","null","null","null","null","null","null","null","null","null","null","null","","180","200","260","200","36000","52000","[1,3]","432.08005686669384","474.98011838130304","488.35129182676917"
"","canvas-keyboard-response","44","133133","0.0-6.0-3.5","525","","","","","rectangles with change","null","null","","","catch","l","sw","sh","210","236","146","218","227","161","trueblood","null","null","null","null","null","null","null","null","null","null","null","","180","200","260","200","36000","52000","[1,3]","432.08005686669384","474.98011838130304","488.35129182676917"
"","canvas-keyboard-response","45","133150","0.0-6.0-4.5","525","","","","","clear_screen","null","null","","","catch","l","sw","sh","210","236","146","218","227","161","trueblood","null","null","null","null","null","null","null","null","null","null","null","","180","200","260","200","36000","52000","[1,3]","432.08005686669384","474.98011838130304","488.35129182676917"
"","canvas-keyboard-response","46","133487","0.0-6.0-5.5","525","","","","","make choice","331","1","","","catch","l","sw","sh","210","236","146","218","227","161","trueblood","null","null","null","null","null","null","null","null","null","null","null","","180","200","260","200","36000","52000","[1,3]","","",""
"","canvas-keyboard-response","47","133505","0.0-6.0-6.5","525","","","","","clear_screen","null","null","","","catch","l","sw","sh","210","236","146","218","227","161","trueblood","null","null","null","null","null","null","null","null","null","null","null","","180","200","260","200","36000","52000","[1,3]","","",""
"","canvas-keyboard-response","48","133706","0.0-6.0-0.6","525","","","","","pre trial waiting period","null","null","","","critical","t","c","d","240","164","164","240","240","164","trueblood","0","w","240","164","164","240","240","164","39360","39360","39360","td","null","null","null","null","null","null","[1,3]","494.81346081592005","467.0484666987737","512.2526071417069"
"","canvas-keyboard-response","49","133725","0.0-6.0-1.6","525","","","","","clear_screen","null","null","","","critical","t","c","d","240","164","164","240","240","164","trueblood","0","w","240","164","164","240","240","164","39360","39360","39360","td","null","null","null","null","null","null","[1,3]","494.81346081592005","467.0484666987737","512.2526071417069"
"","canvas-keyboard-response","50","134237","0.0-6.0-2.6","525","","","","","rectangles no change","null","null","","","critical","t","c","d","240","164","164","240","240","164","trueblood","0","w","240","164","164","240","240","164","39360","39360","39360","td","null","null","null","null","null","null","[1,3]","494.81346081592005","467.0484666987737","512.2526071417069"
"","canvas-keyboard-response","51","135572","0.0-6.0-3.6","525","","","","","rectangles with change","null","null","","","critical","t","c","d","240","164","164","240","240","164","trueblood","0","w","240","164","164","240","240","164","39360","39360","39360","td","null","null","null","null","null","null","[1,3]","494.81346081592005","467.0484666987737","512.2526071417069"
"","canvas-keyboard-response","52","135590","0.0-6.0-4.6","525","","","","","clear_screen","null","null","","","critical","t","c","d","240","164","164","240","240","164","trueblood","0","w","240","164","164","240","240","164","39360","39360","39360","td","null","null","null","null","null","null","[1,3]","494.81346081592005","467.0484666987737","512.2526071417069"
"","canvas-keyboard-response","53","136152","0.0-6.0-5.6","525","","","","","make choice","554","3","","","critical","t","c","d","240","164","164","240","240","164","trueblood","0","w","240","164","164","240","240","164","39360","39360","39360","td","null","null","null","null","null","null","[1,3]","","",""
"","canvas-keyboard-response","54","136169","0.0-6.0-6.6","525","","","","","clear_screen","null","null","","","critical","t","c","d","240","164","164","240","240","164","trueblood","0","w","240","164","164","240","240","164","39360","39360","39360","td","null","null","null","null","null","null","[1,3]","","",""
"","canvas-keyboard-response","55","136370","0.0-6.0-0.7","525","","","","","pre trial waiting period","null","null","","","critical","c","t","d","164","240","240","164","227.1683","158.0083","spektor","0.09","w","240","164","164","240","227.1683","158.0083","39360","39360","35894.4834","dc","null","null","null","null","null","null","[3,1]","492.76643126232386","202.20021743124548","509.57873802176044"
"","canvas-keyboard-response","56","136388","0.0-6.0-1.7","525","","","","","clear_screen","null","null","","","critical","c","t","d","164","240","240","164","227.1683","158.0083","spektor","0.09","w","240","164","164","240","227.1683","158.0083","39360","39360","35894.4834","dc","null","null","null","null","null","null","[3,1]","492.76643126232386","202.20021743124548","509.57873802176044"
"","canvas-keyboard-response","57","136899","0.0-6.0-2.7","525","","","","","rectangles no change","null","null","","","critical","c","t","d","164","240","240","164","227.1683","158.0083","spektor","0.09","w","240","164","164","240","227.1683","158.0083","39360","39360","35894.4834","dc","null","null","null","null","null","null","[3,1]","492.76643126232386","202.20021743124548","509.57873802176044"
"","canvas-keyboard-response","58","138235","0.0-6.0-3.7","525","","","","","rectangles with change","null","null","","","critical","c","t","d","164","240","240","164","227.1683","158.0083","spektor","0.09","w","240","164","164","240","227.1683","158.0083","39360","39360","35894.4834","dc","null","null","null","null","null","null","[3,1]","492.76643126232386","202.20021743124548","509.57873802176044"
"","canvas-keyboard-response","59","138252","0.0-6.0-4.7","525","","","","","clear_screen","null","null","","","critical","c","t","d","164","240","240","164","227.1683","158.0083","spektor","0.09","w","240","164","164","240","227.1683","158.0083","39360","39360","35894.4834","dc","null","null","null","null","null","null","[3,1]","492.76643126232386","202.20021743124548","509.57873802176044"
"","canvas-keyboard-response","60","138847","0.0-6.0-5.7","525","","","","","make choice","589","3","","","critical","c","t","d","164","240","240","164","227.1683","158.0083","spektor","0.09","w","240","164","164","240","227.1683","158.0083","39360","39360","35894.4834","dc","null","null","null","null","null","null","[3,1]","","",""
"","canvas-keyboard-response","61","138865","0.0-6.0-6.7","525","","","","","clear_screen","null","null","","","critical","c","t","d","164","240","240","164","227.1683","158.0083","spektor","0.09","w","240","164","164","240","227.1683","158.0083","39360","39360","35894.4834","dc","null","null","null","null","null","null","[3,1]","","",""
"","canvas-keyboard-response","62","139067","0.0-6.0-0.8","525","","","","","pre trial waiting period","null","null","","","critical","t","d","c","164","240","158.0083","227.1683","240","164","spektor","0.09","h","164","240","240","164","158.0083","227.1683","39360","39360","35894.4834","tc","null","null","null","null","null","null","[1,3]","462.9279990853971","145.9046343338487","495.4169565352052"
"","canvas-keyboard-response","63","139084","0.0-6.0-1.8","525","","","","","clear_screen","null","null","","","critical","t","d","c","164","240","158.0083","227.1683","240","164","spektor","0.09","h","164","240","240","164","158.0083","227.1683","39360","39360","35894.4834","tc","null","null","null","null","null","null","[1,3]","462.9279990853971","145.9046343338487","495.4169565352052"
"","canvas-keyboard-response","64","139595","0.0-6.0-2.8","525","","","","","rectangles no change","null","null","","","critical","t","d","c","164","240","158.0083","227.1683","240","164","spektor","0.09","h","164","240","240","164","158.0083","227.1683","39360","39360","35894.4834","tc","null","null","null","null","null","null","[1,3]","462.9279990853971","145.9046343338487","495.4169565352052"
"","canvas-keyboard-response","65","140930","0.0-6.0-3.8","525","","","","","rectangles with change","null","null","","","critical","t","d","c","164","240","158.0083","227.1683","240","164","spektor","0.09","h","164","240","240","164","158.0083","227.1683","39360","39360","35894.4834","tc","null","null","null","null","null","null","[1,3]","462.9279990853971","145.9046343338487","495.4169565352052"
"","canvas-keyboard-response","66","140950","0.0-6.0-4.8","525","","","","","clear_screen","null","null","","","critical","t","d","c","164","240","158.0083","227.1683","240","164","spektor","0.09","h","164","240","240","164","158.0083","227.1683","39360","39360","35894.4834","tc","null","null","null","null","null","null","[1,3]","462.9279990853971","145.9046343338487","495.4169565352052"
"","canvas-keyboard-response","67","141487","0.0-6.0-5.8","525","","","","","make choice","529","3","","","critical","t","d","c","164","240","158.0083","227.1683","240","164","spektor","0.09","h","164","240","240","164","158.0083","227.1683","39360","39360","35894.4834","tc","null","null","null","null","null","null","[1,3]","","",""
"","canvas-keyboard-response","68","141505","0.0-6.0-6.8","525","","","","","clear_screen","null","null","","","critical","t","d","c","164","240","158.0083","227.1683","240","164","spektor","0.09","h","164","240","240","164","158.0083","227.1683","39360","39360","35894.4834","tc","null","null","null","null","null","null","[1,3]","","",""
"","canvas-keyboard-response","69","141706","0.0-6.0-0.9","525","","","","","pre trial waiting period","null","null","","","critical","d","c","t","154.6796","220.0396","240","164","164","240","trueblood","0.14","h","164","240","240","164","154.6796","220.0396","39360","39360","34035.6388","dc","null","null","null","null","null","null","[1,2]","470.2159681079589","499.37445267731005","434.8668159572909"
"","canvas-keyboard-response","70","141724","0.0-6.0-1.9","525","","","","","clear_screen","null","null","","","critical","d","c","t","154.6796","220.0396","240","164","164","240","trueblood","0.14","h","164","240","240","164","154.6796","220.0396","39360","39360","34035.6388","dc","null","null","null","null","null","null","[1,2]","470.2159681079589","499.37445267731005","434.8668159572909"
"","canvas-keyboard-response","71","142236","0.0-6.0-2.9","525","","","","","rectangles no change","null","null","","","critical","d","c","t","154.6796","220.0396","240","164","164","240","trueblood","0.14","h","164","240","240","164","154.6796","220.0396","39360","39360","34035.6388","dc","null","null","null","null","null","null","[1,2]","470.2159681079589","499.37445267731005","434.8668159572909"
"","canvas-keyboard-response","72","143570","0.0-6.0-3.9","525","","","","","rectangles with change","null","null","","","critical","d","c","t","154.6796","220.0396","240","164","164","240","trueblood","0.14","h","164","240","240","164","154.6796","220.0396","39360","39360","34035.6388","dc","null","null","null","null","null","null","[1,2]","470.2159681079589","499.37445267731005","434.8668159572909"
"","canvas-keyboard-response","73","143588","0.0-6.0-4.9","525","","","","","clear_screen","null","null","","","critical","d","c","t","154.6796","220.0396","240","164","164","240","trueblood","0.14","h","164","240","240","164","154.6796","220.0396","39360","39360","34035.6388","dc","null","null","null","null","null","null","[1,2]","470.2159681079589","499.37445267731005","434.8668159572909"
"","canvas-keyboard-response","74","143919","0.0-6.0-5.9","525","","","","","make choice","324","2","","","critical","d","c","t","154.6796","220.0396","240","164","164","240","trueblood","0.14","h","164","240","240","164","154.6796","220.0396","39360","39360","34035.6388","dc","null","null","null","null","null","null","[1,2]","","",""
"","canvas-keyboard-response","75","143937","0.0-6.0-6.9","525","","","","","clear_screen","null","null","","","critical","d","c","t","154.6796","220.0396","240","164","164","240","trueblood","0.14","h","164","240","240","164","154.6796","220.0396","39360","39360","34035.6388","dc","null","null","null","null","null","null","[1,2]","","",""
"","canvas-keyboard-response","76","144138","0.0-6.0-0.10","525","","","","","pre trial waiting period","null","null","","","critical","t","d","c","164","240","160.6713","232.8713","240","164","trueblood","0.05","h","164","240","240","164","160.6713","232.8713","39360","39360","37415.7294","tc","null","null","null","null","null","null","[1,3]","456.43532340385093","456.44697978010197","515.081749804395"
"","canvas-keyboard-response","77","144157","0.0-6.0-1.10","525","","","","","clear_screen","null","null","","","critical","t","d","c","164","240","160.6713","232.8713","240","164","trueblood","0.05","h","164","240","240","164","160.6713","232.8713","39360","39360","37415.7294","tc","null","null","null","null","null","null","[1,3]","456.43532340385093","456.44697978010197","515.081749804395"
"","canvas-keyboard-response","78","144671","0.0-6.0-2.10","525","","","","","rectangles no change","null","null","","","critical","t","d","c","164","240","160.6713","232.8713","240","164","trueblood","0.05","h","164","240","240","164","160.6713","232.8713","39360","39360","37415.7294","tc","null","null","null","null","null","null","[1,3]","456.43532340385093","456.44697978010197","515.081749804395"
"","canvas-keyboard-response","79","146007","0.0-6.0-3.10","525","","","","","rectangles with change","null","null","","","critical","t","d","c","164","240","160.6713","232.8713","240","164","trueblood","0.05","h","164","240","240","164","160.6713","232.8713","39360","39360","37415.7294","tc","null","null","null","null","null","null","[1,3]","456.43532340385093","456.44697978010197","515.081749804395"
"","canvas-keyboard-response","80","146028","0.0-6.0-4.10","525","","","","","clear_screen","null","null","","","critical","t","d","c","164","240","160.6713","232.8713","240","164","trueblood","0.05","h","164","240","240","164","160.6713","232.8713","39360","39360","37415.7294","tc","null","null","null","null","null","null","[1,3]","456.43532340385093","456.44697978010197","515.081749804395"
"","canvas-keyboard-response","81","148352","0.0-6.0-5.10","525","","","","","make choice","2314","3","","","critical","t","d","c","164","240","160.6713","232.8713","240","164","trueblood","0.05","h","164","240","240","164","160.6713","232.8713","39360","39360","37415.7294","tc","null","null","null","null","null","null","[1,3]","","",""
"","canvas-keyboard-response","82","148371","0.0-6.0-6.10","525","","","","","clear_screen","null","null","","","critical","t","d","c","164","240","160.6713","232.8713","240","164","trueblood","0.05","h","164","240","240","164","160.6713","232.8713","39360","39360","37415.7294","tc","null","null","null","null","null","null","[1,3]","","",""
"","canvas-keyboard-response","83","148573","0.0-6.0-0.11","525","","","","","pre trial waiting period","null","null","","","catch","l","sw","sh","181","296","165","208","193","167","trueblood","null","null","null","null","null","null","null","null","null","null","null","","180","200","260","200","36000","52000","[1,3]","407.71171747478996","450.2294322465594","468.6765960795264"
"","canvas-keyboard-response","84","148593","0.0-6.0-1.11","525","","","","","clear_screen","null","null","","","catch","l","sw","sh","181","296","165","208","193","167","trueblood","null","null","null","null","null","null","null","null","null","null","null","","180","200","260","200","36000","52000","[1,3]","407.71171747478996","450.2294322465594","468.6765960795264"
"","canvas-keyboard-response","85","149104","0.0-6.0-2.11","525","","","","","rectangles no change","null","null","","","catch","l","sw","sh","181","296","165","208","193","167","trueblood","null","null","null","null","null","null","null","null","null","null","null","","180","200","260","200","36000","52000","[1,3]","407.71171747478996","450.2294322465594","468.6765960795264"
"","canvas-keyboard-response","86","150440","0.0-6.0-3.11","525","","","","","rectangles with change","null","null","","","catch","l","sw","sh","181","296","165","208","193","167","trueblood","null","null","null","null","null","null","null","null","null","null","null","","180","200","260","200","36000","52000","[1,3]","407.71171747478996","450.2294322465594","468.6765960795264"
"","canvas-keyboard-response","87","150458","0.0-6.0-4.11","525","","","","","clear_screen","null","null","","","catch","l","sw","sh","181","296","165","208","193","167","trueblood","null","null","null","null","null","null","null","null","null","null","null","","180","200","260","200","36000","52000","[1,3]","407.71171747478996","450.2294322465594","468.6765960795264"
"","canvas-keyboard-response","88","150831","0.0-6.0-5.11","525","","","","","make choice","364","1","","","catch","l","sw","sh","181","296","165","208","193","167","trueblood","null","null","null","null","null","null","null","null","null","null","null","","180","200","260","200","36000","52000","[1,3]","","",""
"","canvas-keyboard-response","89","150850","0.0-6.0-6.11","525","","","","","clear_screen","null","null","","","catch","l","sw","sh","181","296","165","208","193","167","trueblood","null","null","null","null","null","null","null","null","null","null","null","","180","200","260","200","36000","52000","[1,3]","","",""
"","canvas-keyboard-response","90","151051","0.0-6.0-0.12","525","","","","","pre trial waiting period","null","null","","","catch","sw","l","sh","180","200","249","181","237","170","trueblood","null","null","null","null","null","null","null","null","null","null","null","","180","200","260","200","36000","52000","[2,3]","451.9813016526933","464.7003480865965","510.43219966344225"
"","canvas-keyboard-response","91","151072","0.0-6.0-1.12","525","","","","","clear_screen","null","null","","","catch","sw","l","sh","180","200","249","181","237","170","trueblood","null","null","null","null","null","null","null","null","null","null","null","","180","200","260","200","36000","52000","[2,3]","451.9813016526933","464.7003480865965","510.43219966344225"
"","canvas-keyboard-response","92","151581","0.0-6.0-2.12","525","","","","","rectangles no change","null","null","","","catch","sw","l","sh","180","200","249","181","237","170","trueblood","null","null","null","null","null","null","null","null","null","null","null","","180","200","260","200","36000","52000","[2,3]","451.9813016526933","464.7003480865965","510.43219966344225"
"","canvas-keyboard-response","93","152916","0.0-6.0-3.12","525","","","","","rectangles with change","null","null","","","catch","sw","l","sh","180","200","249","181","237","170","trueblood","null","null","null","null","null","null","null","null","null","null","null","","180","200","260","200","36000","52000","[2,3]","451.9813016526933","464.7003480865965","510.43219966344225"
"","canvas-keyboard-response","94","152934","0.0-6.0-4.12","525","","","","","clear_screen","null","null","","","catch","sw","l","sh","180","200","249","181","237","170","trueblood","null","null","null","null","null","null","null","null","null","null","null","","180","200","260","200","36000","52000","[2,3]","451.9813016526933","464.7003480865965","510.43219966344225"
"","canvas-keyboard-response","95","153728","0.0-6.0-5.12","525","","","","","make choice","788","3","","","catch","sw","l","sh","180","200","249","181","237","170","trueblood","null","null","null","null","null","null","null","null","null","null","null","","180","200","260","200","36000","52000","[2,3]","","",""
"","canvas-keyboard-response","96","153746","0.0-6.0-6.12","525","","","","","clear_screen","null","null","","","catch","sw","l","sh","180","200","249","181","237","170","trueblood","null","null","null","null","null","null","null","null","null","null","null","","180","200","260","200","36000","52000","[2,3]","","",""
"","canvas-keyboard-response","97","153946","0.0-6.0-0.13","525","","","","","pre trial waiting period","null","null","","","critical","c","d","t","164","240","220.0396","154.6796","240","164","spektor","0.14","w","240","164","164","240","220.0396","154.6796","39360","39360","34035.6388","td","null","null","null","null","null","null","[3,2]","460.8143355235991","202.74847033826325","503.4450209398932"
"","canvas-keyboard-response","98","153965","0.0-6.0-1.13","525","","","","","clear_screen","null","null","","","critical","c","d","t","164","240","220.0396","154.6796","240","164","spektor","0.14","w","240","164","164","240","220.0396","154.6796","39360","39360","34035.6388","td","null","null","null","null","null","null","[3,2]","460.8143355235991","202.74847033826325","503.4450209398932"
"","canvas-keyboard-response","99","154479","0.0-6.0-2.13","525","","","","","rectangles no change","null","null","","","critical","c","d","t","164","240","220.0396","154.6796","240","164","spektor","0.14","w","240","164","164","240","220.0396","154.6796","39360","39360","34035.6388","td","null","null","null","null","null","null","[3,2]","460.8143355235991","202.74847033826325","503.4450209398932"
"","canvas-keyboard-response","100","155815","0.0-6.0-3.13","525","","","","","rectangles with change","null","null","","","critical","c","d","t","164","240","220.0396","154.6796","240","164","spektor","0.14","w","240","164","164","240","220.0396","154.6796","39360","39360","34035.6388","td","null","null","null","null","null","null","[3,2]","460.8143355235991","202.74847033826325","503.4450209398932"
"","canvas-keyboard-response","101","155832","0.0-6.0-4.13","525","","","","","clear_screen","null","null","","","critical","c","d","t","164","240","220.0396","154.6796","240","164","spektor","0.14","w","240","164","164","240","220.0396","154.6796","39360","39360","34035.6388","td","null","null","null","null","null","null","[3,2]","460.8143355235991","202.74847033826325","503.4450209398932"
"","canvas-keyboard-response","102","156440","0.0-6.0-5.13","525","","","","","make choice","601","3","","","critical","c","d","t","164","240","220.0396","154.6796","240","164","spektor","0.14","w","240","164","164","240","220.0396","154.6796","39360","39360","34035.6388","td","null","null","null","null","null","null","[3,2]","","",""
"","canvas-keyboard-response","103","156458","0.0-6.0-6.13","525","","","","","clear_screen","null","null","","","critical","c","d","t","164","240","220.0396","154.6796","240","164","spektor","0.14","w","240","164","164","240","220.0396","154.6796","39360","39360","34035.6388","td","null","null","null","null","null","null","[3,2]","","",""
"","canvas-keyboard-response","104","156660","0.0-6.0-0.14","525","","","","","pre trial waiting period","null","null","","","catch","l","sh","sw","234","234","217","218","150","197","trueblood","null","null","null","null","null","null","null","null","null","null","null","","180","200","260","200","36000","52000","[1,2]","462.319168447557","463.682477458714","479.2772084737192"
"","canvas-keyboard-response","105","156679","0.0-6.0-1.14","525","","","","","clear_screen","null","null","","","catch","l","sh","sw","234","234","217","218","150","197","trueblood","null","null","null","null","null","null","null","null","null","null","null","","180","200","260","200","36000","52000","[1,2]","462.319168447557","463.682477458714","479.2772084737192"
"","canvas-keyboard-response","106","157193","0.0-6.0-2.14","525","","","","","rectangles no change","null","null","","","catch","l","sh","sw","234","234","217","218","150","197","trueblood","null","null","null","null","null","null","null","null","null","null","null","","180","200","260","200","36000","52000","[1,2]","462.319168447557","463.682477458714","479.2772084737192"
"","canvas-keyboard-response","107","158528","0.0-6.0-3.14","525","","","","","rectangles with change","null","null","","","catch","l","sh","sw","234","234","217","218","150","197","trueblood","null","null","null","null","null","null","null","null","null","null","null","","180","200","260","200","36000","52000","[1,2]","462.319168447557","463.682477458714","479.2772084737192"
"","canvas-keyboard-response","108","158545","0.0-6.0-4.14","525","","","","","clear_screen","null","null","","","catch","l","sh","sw","234","234","217","218","150","197","trueblood","null","null","null","null","null","null","null","null","null","null","null","","180","200","260","200","36000","52000","[1,2]","462.319168447557","463.682477458714","479.2772084737192"
"","canvas-keyboard-response","109","158991","0.0-6.0-5.14","525","","","","","make choice","438","1","","","catch","l","sh","sw","234","234","217","218","150","197","trueblood","null","null","null","null","null","null","null","null","null","null","null","","180","200","260","200","36000","52000","[1,2]","","",""
"","canvas-keyboard-response","110","159009","0.0-6.0-6.14","525","","","","","clear_screen","null","null","","","catch","l","sh","sw","234","234","217","218","150","197","trueblood","null","null","null","null","null","null","null","null","null","null","null","","180","200","260","200","36000","52000","[1,2]","","",""
"","canvas-keyboard-response","111","159210","0.0-6.0-0.15","525","","","","","pre trial waiting period","null","null","","","catch","sh","l","sw","206","160","202","285","150","212","spektor","null","null","null","null","null","null","null","null","null","null","null","","180","200","260","200","36000","52000","[1,2]","544.4980511338732","54.975115179155836","484.427661059917"
"","canvas-keyboard-response","112","159228","0.0-6.0-1.15","525","","","","","clear_screen","null","null","","","catch","sh","l","sw","206","160","202","285","150","212","spektor","null","null","null","null","null","null","null","null","null","null","null","","180","200","260","200","36000","52000","[1,2]","544.4980511338732","54.975115179155836","484.427661059917"
"","canvas-keyboard-response","113","159740","0.0-6.0-2.15","525","","","","","rectangles no change","null","null","","","catch","sh","l","sw","206","160","202","285","150","212","spektor","null","null","null","null","null","null","null","null","null","null","null","","180","200","260","200","36000","52000","[1,2]","544.4980511338732","54.975115179155836","484.427661059917"
"","canvas-keyboard-response","114","161076","0.0-6.0-3.15","525","","","","","rectangles with change","null","null","","","catch","sh","l","sw","206","160","202","285","150","212","spektor","null","null","null","null","null","null","null","null","null","null","null","","180","200","260","200","36000","52000","[1,2]","544.4980511338732","54.975115179155836","484.427661059917"
"","canvas-keyboard-response","115","161094","0.0-6.0-4.15","525","","","","","clear_screen","null","null","","","catch","sh","l","sw","206","160","202","285","150","212","spektor","null","null","null","null","null","null","null","null","null","null","null","","180","200","260","200","36000","52000","[1,2]","544.4980511338732","54.975115179155836","484.427661059917"
"","canvas-keyboard-response","116","161896","0.0-6.0-5.15","525","","","","","make choice","793","2","","","catch","sh","l","sw","206","160","202","285","150","212","spektor","null","null","null","null","null","null","null","null","null","null","null","","180","200","260","200","36000","52000","[1,2]","","",""
"","canvas-keyboard-response","117","161913","0.0-6.0-6.15","525","","","","","clear_screen","null","null","","","catch","sh","l","sw","206","160","202","285","150","212","spektor","null","null","null","null","null","null","null","null","null","null","null","","180","200","260","200","36000","52000","[1,2]","","",""
"","canvas-keyboard-response","118","162114","0.0-6.0-0.16","525","","","","","pre trial waiting period","null","null","","","critical","c","d","t","240","164","162.6685","237.1485","164","240","spektor","0.02","h","164","240","240","164","162.6685","237.1485","39360","39360","38576.5967","td","null","null","null","null","null","null","[3,2]","528.5675173619827","110.54916627238919","495.3341743398992"
"","canvas-keyboard-response","119","162133","0.0-6.0-1.16","525","","","","","clear_screen","null","null","","","critical","c","d","t","240","164","162.6685","237.1485","164","240","spektor","0.02","h","164","240","240","164","162.6685","237.1485","39360","39360","38576.5967","td","null","null","null","null","null","null","[3,2]","528.5675173619827","110.54916627238919","495.3341743398992"
"","canvas-keyboard-response","120","162641","0.0-6.0-2.16","525","","","","","rectangles no change","null","null","","","critical","c","d","t","240","164","162.6685","237.1485","164","240","spektor","0.02","h","164","240","240","164","162.6685","237.1485","39360","39360","38576.5967","td","null","null","null","null","null","null","[3,2]","528.5675173619827","110.54916627238919","495.3341743398992"
"","canvas-keyboard-response","121","163976","0.0-6.0-3.16","525","","","","","rectangles with change","null","null","","","critical","c","d","t","240","164","162.6685","237.1485","164","240","spektor","0.02","h","164","240","240","164","162.6685","237.1485","39360","39360","38576.5967","td","null","null","null","null","null","null","[3,2]","528.5675173619827","110.54916627238919","495.3341743398992"
"","canvas-keyboard-response","122","163993","0.0-6.0-4.16","525","","","","","clear_screen","null","null","","","critical","c","d","t","240","164","162.6685","237.1485","164","240","spektor","0.02","h","164","240","240","164","162.6685","237.1485","39360","39360","38576.5967","td","null","null","null","null","null","null","[3,2]","528.5675173619827","110.54916627238919","495.3341743398992"
"","canvas-keyboard-response","123","164791","0.0-6.0-5.16","525","","","","","make choice","791","3","","","critical","c","d","t","240","164","162.6685","237.1485","164","240","spektor","0.02","h","164","240","240","164","162.6685","237.1485","39360","39360","38576.5967","td","null","null","null","null","null","null","[3,2]","","",""
"","canvas-keyboard-response","124","164810","0.0-6.0-6.16","525","","","","","clear_screen","null","null","","","critical","c","d","t","240","164","162.6685","237.1485","164","240","spektor","0.02","h","164","240","240","164","162.6685","237.1485","39360","39360","38576.5967","td","null","null","null","null","null","null","[3,2]","","",""
"","canvas-keyboard-response","125","165011","0.0-6.0-0.17","525","","","","","pre trial waiting period","null","null","","","critical","c","t","d","164","240","240","164","240","164","spektor","0","w","240","164","164","240","240","164","39360","39360","39360","tc","null","null","null","null","null","null","[2,1]","491.49085687694185","181.32463789996595","519.3781579031823"
"","canvas-keyboard-response","126","165030","0.0-6.0-1.17","525","","","","","clear_screen","null","null","","","critical","c","t","d","164","240","240","164","240","164","spektor","0","w","240","164","164","240","240","164","39360","39360","39360","tc","null","null","null","null","null","null","[2,1]","491.49085687694185","181.32463789996595","519.3781579031823"
"","canvas-keyboard-response","127","165544","0.0-6.0-2.17","525","","","","","rectangles no change","null","null","","","critical","c","t","d","164","240","240","164","240","164","spektor","0","w","240","164","164","240","240","164","39360","39360","39360","tc","null","null","null","null","null","null","[2,1]","491.49085687694185","181.32463789996595","519.3781579031823"
"","canvas-keyboard-response","128","166878","0.0-6.0-3.17","525","","","","","rectangles with change","null","null","","","critical","c","t","d","164","240","240","164","240","164","spektor","0","w","240","164","164","240","240","164","39360","39360","39360","tc","null","null","null","null","null","null","[2,1]","491.49085687694185","181.32463789996595","519.3781579031823"
"","canvas-keyboard-response","129","166899","0.0-6.0-4.17","525","","","","","clear_screen","null","null","","","critical","c","t","d","164","240","240","164","240","164","spektor","0","w","240","164","164","240","240","164","39360","39360","39360","tc","null","null","null","null","null","null","[2,1]","491.49085687694185","181.32463789996595","519.3781579031823"
"","canvas-keyboard-response","130","167663","0.0-6.0-5.17","525","","","","","make choice","759","1","","","critical","c","t","d","164","240","240","164","240","164","spektor","0","w","240","164","164","240","240","164","39360","39360","39360","tc","null","null","null","null","null","null","[2,1]","","",""
"","canvas-keyboard-response","131","167681","0.0-6.0-6.17","525","","","","","clear_screen","null","null","","","critical","c","t","d","164","240","240","164","240","164","spektor","0","w","240","164","164","240","240","164","39360","39360","39360","tc","null","null","null","null","null","null","[2,1]","","",""
"","canvas-keyboard-response","132","167882","0.0-6.0-0.18","525","","","","","pre trial waiting period","null","null","","","critical","t","c","d","164","240","240","164","158.0083","227.1683","spektor","0.09","h","164","240","240","164","158.0083","227.1683","39360","39360","35894.4834","dc","null","null","null","null","null","null","[3,2]","463.7953236369749","187.70736154568135","500.64589139215104"
"","canvas-keyboard-response","133","167902","0.0-6.0-1.18","525","","","","","clear_screen","null","null","","","critical","t","c","d","164","240","240","164","158.0083","227.1683","spektor","0.09","h","164","240","240","164","158.0083","227.1683","39360","39360","35894.4834","dc","null","null","null","null","null","null","[3,2]","463.7953236369749","187.70736154568135","500.64589139215104"
"","canvas-keyboard-response","134","168413","0.0-6.0-2.18","525","","","","","rectangles no change","null","null","","","critical","t","c","d","164","240","240","164","158.0083","227.1683","spektor","0.09","h","164","240","240","164","158.0083","227.1683","39360","39360","35894.4834","dc","null","null","null","null","null","null","[3,2]","463.7953236369749","187.70736154568135","500.64589139215104"
"","canvas-keyboard-response","135","169748","0.0-6.0-3.18","525","","","","","rectangles with change","null","null","","","critical","t","c","d","164","240","240","164","158.0083","227.1683","spektor","0.09","h","164","240","240","164","158.0083","227.1683","39360","39360","35894.4834","dc","null","null","null","null","null","null","[3,2]","463.7953236369749","187.70736154568135","500.64589139215104"
"","canvas-keyboard-response","136","169765","0.0-6.0-4.18","525","","","","","clear_screen","null","null","","","critical","t","c","d","164","240","240","164","158.0083","227.1683","spektor","0.09","h","164","240","240","164","158.0083","227.1683","39360","39360","35894.4834","dc","null","null","null","null","null","null","[3,2]","463.7953236369749","187.70736154568135","500.64589139215104"
"","canvas-keyboard-response","137","170295","0.0-6.0-5.18","525","","","","","make choice","524","2","","","critical","t","c","d","164","240","240","164","158.0083","227.1683","spektor","0.09","h","164","240","240","164","158.0083","227.1683","39360","39360","35894.4834","dc","null","null","null","null","null","null","[3,2]","","",""
"","canvas-keyboard-response","138","170312","0.0-6.0-6.18","525","","","","","clear_screen","null","null","","","critical","t","c","d","164","240","240","164","158.0083","227.1683","spektor","0.09","h","164","240","240","164","158.0083","227.1683","39360","39360","35894.4834","dc","null","null","null","null","null","null","[3,2]","","",""
"","canvas-keyboard-response","139","170513","0.0-6.0-0.19","525","","","","","pre trial waiting period","null","null","","","critical","c","d","t","240","164","162.6685","237.1485","164","240","spektor","0.02","h","164","240","240","164","162.6685","237.1485","39360","39360","38576.5967","dc","null","null","null","null","null","null","[2,1]","513.2121630435408","126.70547880692516","496.1483595648196"
"","canvas-keyboard-response","140","170532","0.0-6.0-1.19","525","","","","","clear_screen","null","null","","","critical","c","d","t","240","164","162.6685","237.1485","164","240","spektor","0.02","h","164","240","240","164","162.6685","237.1485","39360","39360","38576.5967","dc","null","null","null","null","null","null","[2,1]","513.2121630435408","126.70547880692516","496.1483595648196"
"","canvas-keyboard-response","141","171043","0.0-6.0-2.19","525","","","","","rectangles no change","null","null","","","critical","c","d","t","240","164","162.6685","237.1485","164","240","spektor","0.02","h","164","240","240","164","162.6685","237.1485","39360","39360","38576.5967","dc","null","null","null","null","null","null","[2,1]","513.2121630435408","126.70547880692516","496.1483595648196"
"","canvas-keyboard-response","142","172381","0.0-6.0-3.19","525","","","","","rectangles with change","null","null","","","critical","c","d","t","240","164","162.6685","237.1485","164","240","spektor","0.02","h","164","240","240","164","162.6685","237.1485","39360","39360","38576.5967","dc","null","null","null","null","null","null","[2,1]","513.2121630435408","126.70547880692516","496.1483595648196"
"","canvas-keyboard-response","143","172399","0.0-6.0-4.19","525","","","","","clear_screen","null","null","","","critical","c","d","t","240","164","162.6685","237.1485","164","240","spektor","0.02","h","164","240","240","164","162.6685","237.1485","39360","39360","38576.5967","dc","null","null","null","null","null","null","[2,1]","513.2121630435408","126.70547880692516","496.1483595648196"
"","canvas-keyboard-response","144","172839","0.0-6.0-5.19","525","","","","","make choice","434","1","","","critical","c","d","t","240","164","162.6685","237.1485","164","240","spektor","0.02","h","164","240","240","164","162.6685","237.1485","39360","39360","38576.5967","dc","null","null","null","null","null","null","[2,1]","","",""
"","canvas-keyboard-response","145","172857","0.0-6.0-6.19","525","","","","","clear_screen","null","null","","","critical","c","d","t","240","164","162.6685","237.1485","164","240","spektor","0.02","h","164","240","240","164","162.6685","237.1485","39360","39360","38576.5967","dc","null","null","null","null","null","null","[2,1]","","",""
"","canvas-keyboard-response","146","173058","0.0-6.0-0.20","525","","","","","pre trial waiting period","null","null","","","critical","d","c","t","164","240","240","164","164","240","spektor","0","h","164","240","240","164","164","240","39360","39360","39360","td","null","null","null","null","null","null","[3,1]","485.02582403119516","155.71270326957423","465.42847267111"
"","canvas-keyboard-response","147","173077","0.0-6.0-1.20","525","","","","","clear_screen","null","null","","","critical","d","c","t","164","240","240","164","164","240","spektor","0","h","164","240","240","164","164","240","39360","39360","39360","td","null","null","null","null","null","null","[3,1]","485.02582403119516","155.71270326957423","465.42847267111"
"","canvas-keyboard-response","148","173589","0.0-6.0-2.20","525","","","","","rectangles no change","null","null","","","critical","d","c","t","164","240","240","164","164","240","spektor","0","h","164","240","240","164","164","240","39360","39360","39360","td","null","null","null","null","null","null","[3,1]","485.02582403119516","155.71270326957423","465.42847267111"
"","canvas-keyboard-response","149","174923","0.0-6.0-3.20","525","","","","","rectangles with change","null","null","","","critical","d","c","t","164","240","240","164","164","240","spektor","0","h","164","240","240","164","164","240","39360","39360","39360","td","null","null","null","null","null","null","[3,1]","485.02582403119516","155.71270326957423","465.42847267111"
"","canvas-keyboard-response","150","174941","0.0-6.0-4.20","525","","","","","clear_screen","null","null","","","critical","d","c","t","164","240","240","164","164","240","spektor","0","h","164","240","240","164","164","240","39360","39360","39360","td","null","null","null","null","null","null","[3,1]","485.02582403119516","155.71270326957423","465.42847267111"
"","canvas-keyboard-response","151","175360","0.0-6.0-5.20","525","","","","","make choice","410","3","","","critical","d","c","t","164","240","240","164","164","240","spektor","0","h","164","240","240","164","164","240","39360","39360","39360","td","null","null","null","null","null","null","[3,1]","","",""
"","canvas-keyboard-response","152","175377","0.0-6.0-6.20","525","","","","","clear_screen","null","null","","","critical","d","c","t","164","240","240","164","164","240","spektor","0","h","164","240","240","164","164","240","39360","39360","39360","td","null","null","null","null","null","null","[3,1]","","",""
"","canvas-keyboard-response","153","175579","0.0-6.0-0.21","525","","","","","pre trial waiting period","null","null","","","critical","d","t","c","160.6713","232.8713","164","240","240","164","spektor","0.05","h","164","240","240","164","160.6713","232.8713","39360","39360","37415.7294","td","null","null","null","null","null","null","[2,1]","464.7328170505386","119.22008937242282","497.67395607587105"
"","canvas-keyboard-response","154","175597","0.0-6.0-1.21","525","","","","","clear_screen","null","null","","","critical","d","t","c","160.6713","232.8713","164","240","240","164","spektor","0.05","h","164","240","240","164","160.6713","232.8713","39360","39360","37415.7294","td","null","null","null","null","null","null","[2,1]","464.7328170505386","119.22008937242282","497.67395607587105"
"","canvas-keyboard-response","155","176108","0.0-6.0-2.21","525","","","","","rectangles no change","null","null","","","critical","d","t","c","160.6713","232.8713","164","240","240","164","spektor","0.05","h","164","240","240","164","160.6713","232.8713","39360","39360","37415.7294","td","null","null","null","null","null","null","[2,1]","464.7328170505386","119.22008937242282","497.67395607587105"
"","canvas-keyboard-response","156","177446","0.0-6.0-3.21","525","","","","","rectangles with change","null","null","","","critical","d","t","c","160.6713","232.8713","164","240","240","164","spektor","0.05","h","164","240","240","164","160.6713","232.8713","39360","39360","37415.7294","td","null","null","null","null","null","null","[2,1]","464.7328170505386","119.22008937242282","497.67395607587105"
"","canvas-keyboard-response","157","177463","0.0-6.0-4.21","525","","","","","clear_screen","null","null","","","critical","d","t","c","160.6713","232.8713","164","240","240","164","spektor","0.05","h","164","240","240","164","160.6713","232.8713","39360","39360","37415.7294","td","null","null","null","null","null","null","[2,1]","464.7328170505386","119.22008937242282","497.67395607587105"
"","canvas-keyboard-response","158","178055","0.0-6.0-5.21","525","","","","","make choice","585","2","","","critical","d","t","c","160.6713","232.8713","164","240","240","164","spektor","0.05","h","164","240","240","164","160.6713","232.8713","39360","39360","37415.7294","td","null","null","null","null","null","null","[2,1]","","",""
"","canvas-keyboard-response","159","178073","0.0-6.0-6.21","525","","","","","clear_screen","null","null","","","critical","d","t","c","160.6713","232.8713","164","240","240","164","spektor","0.05","h","164","240","240","164","160.6713","232.8713","39360","39360","37415.7294","td","null","null","null","null","null","null","[2,1]","","",""
"","canvas-keyboard-response","160","178274","0.0-6.0-0.22","525","","","","","pre trial waiting period","null","null","","","critical","d","t","c","240","164","240","164","164","240","spektor","0","w","240","164","164","240","240","164","39360","39360","39360","td","null","null","null","null","null","null","[2,1]","521.4788407538103","176.857109912057","478.19552722702974"
"","canvas-keyboard-response","161","178293","0.0-6.0-1.22","525","","","","","clear_screen","null","null","","","critical","d","t","c","240","164","240","164","164","240","spektor","0","w","240","164","164","240","240","164","39360","39360","39360","td","null","null","null","null","null","null","[2,1]","521.4788407538103","176.857109912057","478.19552722702974"
"","canvas-keyboard-response","162","178804","0.0-6.0-2.22","525","","","","","rectangles no change","null","null","","","critical","d","t","c","240","164","240","164","164","240","spektor","0","w","240","164","164","240","240","164","39360","39360","39360","td","null","null","null","null","null","null","[2,1]","521.4788407538103","176.857109912057","478.19552722702974"
"","canvas-keyboard-response","163","180138","0.0-6.0-3.22","525","","","","","rectangles with change","null","null","","","critical","d","t","c","240","164","240","164","164","240","spektor","0","w","240","164","164","240","240","164","39360","39360","39360","td","null","null","null","null","null","null","[2,1]","521.4788407538103","176.857109912057","478.19552722702974"
"","canvas-keyboard-response","164","180156","0.0-6.0-4.22","525","","","","","clear_screen","null","null","","","critical","d","t","c","240","164","240","164","164","240","spektor","0","w","240","164","164","240","240","164","39360","39360","39360","td","null","null","null","null","null","null","[2,1]","521.4788407538103","176.857109912057","478.19552722702974"
"","canvas-keyboard-response","165","180632","0.0-6.0-5.22","525","","","","","make choice","468","1","","","critical","d","t","c","240","164","240","164","164","240","spektor","0","w","240","164","164","240","240","164","39360","39360","39360","td","null","null","null","null","null","null","[2,1]","","",""
"","canvas-keyboard-response","166","180652","0.0-6.0-6.22","525","","","","","clear_screen","null","null","","","critical","d","t","c","240","164","240","164","164","240","spektor","0","w","240","164","164","240","240","164","39360","39360","39360","td","null","null","null","null","null","null","[2,1]","","",""
"","canvas-keyboard-response","167","180854","0.0-6.0-0.23","525","","","","","pre trial waiting period","null","null","","","critical","t","c","d","164","240","240","164","162.6685","237.1485","trueblood","0.02","h","164","240","240","164","162.6685","237.1485","39360","39360","38576.5967","td","null","null","null","null","null","null","[1,3]","437.56877418679176","516.687974269786","450.2416246174453"
"","canvas-keyboard-response","168","180874","0.0-6.0-1.23","525","","","","","clear_screen","null","null","","","critical","t","c","d","164","240","240","164","162.6685","237.1485","trueblood","0.02","h","164","240","240","164","162.6685","237.1485","39360","39360","38576.5967","td","null","null","null","null","null","null","[1,3]","437.56877418679176","516.687974269786","450.2416246174453"
"","canvas-keyboard-response","169","181387","0.0-6.0-2.23","525","","","","","rectangles no change","null","null","","","critical","t","c","d","164","240","240","164","162.6685","237.1485","trueblood","0.02","h","164","240","240","164","162.6685","237.1485","39360","39360","38576.5967","td","null","null","null","null","null","null","[1,3]","437.56877418679176","516.687974269786","450.2416246174453"
"","canvas-keyboard-response","170","182722","0.0-6.0-3.23","525","","","","","rectangles with change","null","null","","","critical","t","c","d","164","240","240","164","162.6685","237.1485","trueblood","0.02","h","164","240","240","164","162.6685","237.1485","39360","39360","38576.5967","td","null","null","null","null","null","null","[1,3]","437.56877418679176","516.687974269786","450.2416246174453"
"","canvas-keyboard-response","171","182744","0.0-6.0-4.23","525","","","","","clear_screen","null","null","","","critical","t","c","d","164","240","240","164","162.6685","237.1485","trueblood","0.02","h","164","240","240","164","162.6685","237.1485","39360","39360","38576.5967","td","null","null","null","null","null","null","[1,3]","437.56877418679176","516.687974269786","450.2416246174453"
"","canvas-keyboard-response","172","183207","0.0-6.0-5.23","525","","","","","make choice","454","1","","","critical","t","c","d","164","240","240","164","162.6685","237.1485","trueblood","0.02","h","164","240","240","164","162.6685","237.1485","39360","39360","38576.5967","td","null","null","null","null","null","null","[1,3]","","",""
"","canvas-keyboard-response","173","183228","0.0-6.0-6.23","525","","","","","clear_screen","null","null","","","critical","t","c","d","164","240","240","164","162.6685","237.1485","trueblood","0.02","h","164","240","240","164","162.6685","237.1485","39360","39360","38576.5967","td","null","null","null","null","null","null","[1,3]","","",""
"","canvas-keyboard-response","174","183429","0.0-6.0-0.24","525","","","","","pre trial waiting period","null","null","","","catch","l","sh","sw","217","260","237","154","215","217","spektor","null","null","null","null","null","null","null","null","null","null","null","","180","200","260","200","36000","52000","[1,2]","446.4671614445274","205.7611065704845","471.76353652020646"
"","canvas-keyboard-response","175","183451","0.0-6.0-1.24","525","","","","","clear_screen","null","null","","","catch","l","sh","sw","217","260","237","154","215","217","spektor","null","null","null","null","null","null","null","null","null","null","null","","180","200","260","200","36000","52000","[1,2]","446.4671614445274","205.7611065704845","471.76353652020646"
"","canvas-keyboard-response","176","183961","0.0-6.0-2.24","525","","","","","rectangles no change","null","null","","","catch","l","sh","sw","217","260","237","154","215","217","spektor","null","null","null","null","null","null","null","null","null","null","null","","180","200","260","200","36000","52000","[1,2]","446.4671614445274","205.7611065704845","471.76353652020646"
"","canvas-keyboard-response","177","185297","0.0-6.0-3.24","525","","","","","rectangles with change","null","null","","","catch","l","sh","sw","217","260","237","154","215","217","spektor","null","null","null","null","null","null","null","null","null","null","null","","180","200","260","200","36000","52000","[1,2]","446.4671614445274","205.7611065704845","471.76353652020646"
"","canvas-keyboard-response","178","185316","0.0-6.0-4.24","525","","","","","clear_screen","null","null","","","catch","l","sh","sw","217","260","237","154","215","217","spektor","null","null","null","null","null","null","null","null","null","null","null","","180","200","260","200","36000","52000","[1,2]","446.4671614445274","205.7611065704845","471.76353652020646"
"","canvas-keyboard-response","179","185711","0.0-6.0-5.24","525","","","","","make choice","387","1","","","catch","l","sh","sw","217","260","237","154","215","217","spektor","null","null","null","null","null","null","null","null","null","null","null","","180","200","260","200","36000","52000","[1,2]","","",""
"","canvas-keyboard-response","180","185729","0.0-6.0-6.24","525","","","","","clear_screen","null","null","","","catch","l","sh","sw","217","260","237","154","215","217","spektor","null","null","null","null","null","null","null","null","null","null","null","","180","200","260","200","36000","52000","[1,2]","","",""
"","canvas-keyboard-response","181","185930","0.0-6.0-0.25","525","","","","","pre trial waiting period","null","null","","","catch","sw","sh","l","180","200","206","194","166","268","trueblood","null","null","null","null","null","null","null","null","null","null","null","","180","200","260","200","36000","52000","[1,3]","449.11885369308266","449.2659120113281","421.26937646208034"
"","canvas-keyboard-response","182","185949","0.0-6.0-1.25","525","","","","","clear_screen","null","null","","","catch","sw","sh","l","180","200","206","194","166","268","trueblood","null","null","null","null","null","null","null","null","null","null","null","","180","200","260","200","36000","52000","[1,3]","449.11885369308266","449.2659120113281","421.26937646208034"
"","canvas-keyboard-response","183","186459","0.0-6.0-2.25","525","","","","","rectangles no change","null","null","","","catch","sw","sh","l","180","200","206","194","166","268","trueblood","null","null","null","null","null","null","null","null","null","null","null","","180","200","260","200","36000","52000","[1,3]","449.11885369308266","449.2659120113281","421.26937646208034"
"","canvas-keyboard-response","184","187794","0.0-6.0-3.25","525","","","","","rectangles with change","null","null","","","catch","sw","sh","l","180","200","206","194","166","268","trueblood","null","null","null","null","null","null","null","null","null","null","null","","180","200","260","200","36000","52000","[1,3]","449.11885369308266","449.2659120113281","421.26937646208034"
"","canvas-keyboard-response","185","187812","0.0-6.0-4.25","525","","","","","clear_screen","null","null","","","catch","sw","sh","l","180","200","206","194","166","268","trueblood","null","null","null","null","null","null","null","null","null","null","null","","180","200","260","200","36000","52000","[1,3]","449.11885369308266","449.2659120113281","421.26937646208034"
"","canvas-keyboard-response","186","188247","0.0-6.0-5.25","525","","","","","make choice","428","3","","","catch","sw","sh","l","180","200","206","194","166","268","trueblood","null","null","null","null","null","null","null","null","null","null","null","","180","200","260","200","36000","52000","[1,3]","","",""
"","canvas-keyboard-response","187","188265","0.0-6.0-6.25","525","","","","","clear_screen","null","null","","","catch","sw","sh","l","180","200","206","194","166","268","trueblood","null","null","null","null","null","null","null","null","null","null","null","","180","200","260","200","36000","52000","[1,3]","","",""
"","canvas-keyboard-response","188","188467","0.0-6.0-0.26","525","","","","","pre trial waiting period","null","null","","","catch","l","sw","sh","165","224","211","167","181","202","spektor","null","null","null","null","null","null","null","null","null","null","null","","180","200","260","200","36000","52000","[1,3]","484.024601430814","159.49513615172344","518.8670040013652"
"","canvas-keyboard-response","189","188486","0.0-6.0-1.26","525","","","","","clear_screen","null","null","","","catch","l","sw","sh","165","224","211","167","181","202","spektor","null","null","null","null","null","null","null","null","null","null","null","","180","200","260","200","36000","52000","[1,3]","484.024601430814","159.49513615172344","518.8670040013652"
"","canvas-keyboard-response","190","188997","0.0-6.0-2.26","525","","","","","rectangles no change","null","null","","","catch","l","sw","sh","165","224","211","167","181","202","spektor","null","null","null","null","null","null","null","null","null","null","null","","180","200","260","200","36000","52000","[1,3]","484.024601430814","159.49513615172344","518.8670040013652"
"","canvas-keyboard-response","191","190332","0.0-6.0-3.26","525","","","","","rectangles with change","null","null","","","catch","l","sw","sh","165","224","211","167","181","202","spektor","null","null","null","null","null","null","null","null","null","null","null","","180","200","260","200","36000","52000","[1,3]","484.024601430814","159.49513615172344","518.8670040013652"
"","canvas-keyboard-response","192","190350","0.0-6.0-4.26","525","","","","","clear_screen","null","null","","","catch","l","sw","sh","165","224","211","167","181","202","spektor","null","null","null","null","null","null","null","null","null","null","null","","180","200","260","200","36000","52000","[1,3]","484.024601430814","159.49513615172344","518.8670040013652"
"","canvas-keyboard-response","193","190671","0.0-6.0-5.26","525","","","","","make choice","314","1","","","catch","l","sw","sh","165","224","211","167","181","202","spektor","null","null","null","null","null","null","null","null","null","null","null","","180","200","260","200","36000","52000","[1,3]","","",""
"","canvas-keyboard-response","194","190689","0.0-6.0-6.26","525","","","","","clear_screen","null","null","","","catch","l","sw","sh","165","224","211","167","181","202","spektor","null","null","null","null","null","null","null","null","null","null","null","","180","200","260","200","36000","52000","[1,3]","","",""
"","canvas-keyboard-response","195","190889","0.0-6.0-0.27","525","","","","","pre trial waiting period","null","null","","","catch","sh","sw","l","165","198","146","186","243","212","trueblood","null","null","null","null","null","null","null","null","null","null","null","","180","200","260","200","36000","52000","[1,3]","452.0930261765628","481.43016524530185","471.15832230135027"
"","canvas-keyboard-response","196","190909","0.0-6.0-1.27","525","","","","","clear_screen","null","null","","","catch","sh","sw","l","165","198","146","186","243","212","trueblood","null","null","null","null","null","null","null","null","null","null","null","","180","200","260","200","36000","52000","[1,3]","452.0930261765628","481.43016524530185","471.15832230135027"
"","canvas-keyboard-response","197","191429","0.0-6.0-2.27","525","","","","","rectangles no change","null","null","","","catch","sh","sw","l","165","198","146","186","243","212","trueblood","null","null","null","null","null","null","null","null","null","null","null","","180","200","260","200","36000","52000","[1,3]","452.0930261765628","481.43016524530185","471.15832230135027"
"","canvas-keyboard-response","198","192762","0.0-6.0-3.27","525","","","","","rectangles with change","null","null","","","catch","sh","sw","l","165","198","146","186","243","212","trueblood","null","null","null","null","null","null","null","null","null","null","null","","180","200","260","200","36000","52000","[1,3]","452.0930261765628","481.43016524530185","471.15832230135027"
"","canvas-keyboard-response","199","192781","0.0-6.0-4.27","525","","","","","clear_screen","null","null","","","catch","sh","sw","l","165","198","146","186","243","212","trueblood","null","null","null","null","null","null","null","null","null","null","null","","180","200","260","200","36000","52000","[1,3]","452.0930261765628","481.43016524530185","471.15832230135027"
"","canvas-keyboard-response","200","193119","0.0-6.0-5.27","525","","","","","make choice","331","3","","","catch","sh","sw","l","165","198","146","186","243","212","trueblood","null","null","null","null","null","null","null","null","null","null","null","","180","200","260","200","36000","52000","[1,3]","","",""
"","canvas-keyboard-response","201","193137","0.0-6.0-6.27","525","","","","","clear_screen","null","null","","","catch","sh","sw","l","165","198","146","186","243","212","trueblood","null","null","null","null","null","null","null","null","null","null","null","","180","200","260","200","36000","52000","[1,3]","","",""
"","canvas-keyboard-response","202","193337","0.0-6.0-0.28","525","","","","","pre trial waiting period","null","null","","","critical","c","t","d","164","240","240","164","237.1485","162.6685","trueblood","0.02","w","240","164","164","240","237.1485","162.6685","39360","39360","38576.5967","tc","null","null","null","null","null","null","[2,1]","420.08743118537456","503.4587115064875","479.26757650860804"
"","canvas-keyboard-response","203","193356","0.0-6.0-1.28","525","","","","","clear_screen","null","null","","","critical","c","t","d","164","240","240","164","237.1485","162.6685","trueblood","0.02","w","240","164","164","240","237.1485","162.6685","39360","39360","38576.5967","tc","null","null","null","null","null","null","[2,1]","420.08743118537456","503.4587115064875","479.26757650860804"
"","canvas-keyboard-response","204","193869","0.0-6.0-2.28","525","","","","","rectangles no change","null","null","","","critical","c","t","d","164","240","240","164","237.1485","162.6685","trueblood","0.02","w","240","164","164","240","237.1485","162.6685","39360","39360","38576.5967","tc","null","null","null","null","null","null","[2,1]","420.08743118537456","503.4587115064875","479.26757650860804"
"","canvas-keyboard-response","205","195205","0.0-6.0-3.28","525","","","","","rectangles with change","null","null","","","critical","c","t","d","164","240","240","164","237.1485","162.6685","trueblood","0.02","w","240","164","164","240","237.1485","162.6685","39360","39360","38576.5967","tc","null","null","null","null","null","null","[2,1]","420.08743118537456","503.4587115064875","479.26757650860804"
"","canvas-keyboard-response","206","195223","0.0-6.0-4.28","525","","","","","clear_screen","null","null","","","critical","c","t","d","164","240","240","164","237.1485","162.6685","trueblood","0.02","w","240","164","164","240","237.1485","162.6685","39360","39360","38576.5967","tc","null","null","null","null","null","null","[2,1]","420.08743118537456","503.4587115064875","479.26757650860804"
"","canvas-keyboard-response","207","195599","0.0-6.0-5.28","525","","","","","make choice","370","2","","","critical","c","t","d","164","240","240","164","237.1485","162.6685","trueblood","0.02","w","240","164","164","240","237.1485","162.6685","39360","39360","38576.5967","tc","null","null","null","null","null","null","[2,1]","","",""
"","canvas-keyboard-response","208","195616","0.0-6.0-6.28","525","","","","","clear_screen","null","null","","","critical","c","t","d","164","240","240","164","237.1485","162.6685","trueblood","0.02","w","240","164","164","240","237.1485","162.6685","39360","39360","38576.5967","tc","null","null","null","null","null","null","[2,1]","","",""
"","canvas-keyboard-response","209","195818","0.0-6.0-0.29","525","","","","","pre trial waiting period","null","null","","","catch","sh","l","sw","199","212","199","283","216","226","spektor","null","null","null","null","null","null","null","null","null","null","null","","180","200","260","200","36000","52000","[2,3]","493.8590940269152","67.18964605166552","510.2026499829452"
"","canvas-keyboard-response","210","195836","0.0-6.0-1.29","525","","","","","clear_screen","null","null","","","catch","sh","l","sw","199","212","199","283","216","226","spektor","null","null","null","null","null","null","null","null","null","null","null","","180","200","260","200","36000","52000","[2,3]","493.8590940269152","67.18964605166552","510.2026499829452"
"","canvas-keyboard-response","211","196347","0.0-6.0-2.29","525","","","","","rectangles no change","null","null","","","catch","sh","l","sw","199","212","199","283","216","226","spektor","null","null","null","null","null","null","null","null","null","null","null","","180","200","260","200","36000","52000","[2,3]","493.8590940269152","67.18964605166552","510.2026499829452"
"","canvas-keyboard-response","212","197683","0.0-6.0-3.29","525","","","","","rectangles with change","null","null","","","catch","sh","l","sw","199","212","199","283","216","226","spektor","null","null","null","null","null","null","null","null","null","null","null","","180","200","260","200","36000","52000","[2,3]","493.8590940269152","67.18964605166552","510.2026499829452"
"","canvas-keyboard-response","213","197700","0.0-6.0-4.29","525","","","","","clear_screen","null","null","","","catch","sh","l","sw","199","212","199","283","216","226","spektor","null","null","null","null","null","null","null","null","null","null","null","","180","200","260","200","36000","52000","[2,3]","493.8590940269152","67.18964605166552","510.2026499829452"
"","canvas-keyboard-response","214","198047","0.0-6.0-5.29","525","","","","","make choice","341","3","","","catch","sh","l","sw","199","212","199","283","216","226","spektor","null","null","null","null","null","null","null","null","null","null","null","","180","200","260","200","36000","52000","[2,3]","","",""
"","canvas-keyboard-response","215","198065","0.0-6.0-6.29","525","","","","","clear_screen","null","null","","","catch","sh","l","sw","199","212","199","283","216","226","spektor","null","null","null","null","null","null","null","null","null","null","null","","180","200","260","200","36000","52000","[2,3]","","",""
"","canvas-keyboard-response","216","198266","0.0-6.0-0.30","525","","","","","pre trial waiting period","null","null","","","critical","d","c","t","164","240","240","164","164","240","spektor","0","h","164","240","240","164","164","240","39360","39360","39360","dc","null","null","null","null","null","null","[1,2]","462.83517338944034","190.9704403544935","474.8644055200985"
"","canvas-keyboard-response","217","198285","0.0-6.0-1.30","525","","","","","clear_screen","null","null","","","critical","d","c","t","164","240","240","164","164","240","spektor","0","h","164","240","240","164","164","240","39360","39360","39360","dc","null","null","null","null","null","null","[1,2]","462.83517338944034","190.9704403544935","474.8644055200985"
"","canvas-keyboard-response","218","198794","0.0-6.0-2.30","525","","","","","rectangles no change","null","null","","","critical","d","c","t","164","240","240","164","164","240","spektor","0","h","164","240","240","164","164","240","39360","39360","39360","dc","null","null","null","null","null","null","[1,2]","462.83517338944034","190.9704403544935","474.8644055200985"
"","canvas-keyboard-response","219","200128","0.0-6.0-3.30","525","","","","","rectangles with change","null","null","","","critical","d","c","t","164","240","240","164","164","240","spektor","0","h","164","240","240","164","164","240","39360","39360","39360","dc","null","null","null","null","null","null","[1,2]","462.83517338944034","190.9704403544935","474.8644055200985"
"","canvas-keyboard-response","220","200149","0.0-6.0-4.30","525","","","","","clear_screen","null","null","","","critical","d","c","t","164","240","240","164","164","240","spektor","0","h","164","240","240","164","164","240","39360","39360","39360","dc","null","null","null","null","null","null","[1,2]","462.83517338944034","190.9704403544935","474.8644055200985"
"","canvas-keyboard-response","221","200967","0.0-6.0-5.30","525","","","","","make choice","810","1","","","critical","d","c","t","164","240","240","164","164","240","spektor","0","h","164","240","240","164","164","240","39360","39360","39360","dc","null","null","null","null","null","null","[1,2]","","",""
"","canvas-keyboard-response","222","200985","0.0-6.0-6.30","525","","","","","clear_screen","null","null","","","critical","d","c","t","164","240","240","164","164","240","spektor","0","h","164","240","240","164","164","240","39360","39360","39360","dc","null","null","null","null","null","null","[1,2]","","",""
"","canvas-keyboard-response","223","201187","0.0-6.0-0.31","525","","","","","pre trial waiting period","null","null","","","critical","c","t","d","240","164","164","240","154.6796","220.0396","spektor","0.14","h","164","240","240","164","154.6796","220.0396","39360","39360","34035.6388","dc","null","null","null","null","null","null","[3,1]","512.3647465969801","142.63212639212773","506.47078373174844"
"","canvas-keyboard-response","224","201205","0.0-6.0-1.31","525","","","","","clear_screen","null","null","","","critical","c","t","d","240","164","164","240","154.6796","220.0396","spektor","0.14","h","164","240","240","164","154.6796","220.0396","39360","39360","34035.6388","dc","null","null","null","null","null","null","[3,1]","512.3647465969801","142.63212639212773","506.47078373174844"
"","canvas-keyboard-response","225","201718","0.0-6.0-2.31","525","","","","","rectangles no change","null","null","","","critical","c","t","d","240","164","164","240","154.6796","220.0396","spektor","0.14","h","164","240","240","164","154.6796","220.0396","39360","39360","34035.6388","dc","null","null","null","null","null","null","[3,1]","512.3647465969801","142.63212639212773","506.47078373174844"
"","canvas-keyboard-response","226","203053","0.0-6.0-3.31","525","","","","","rectangles with change","null","null","","","critical","c","t","d","240","164","164","240","154.6796","220.0396","spektor","0.14","h","164","240","240","164","154.6796","220.0396","39360","39360","34035.6388","dc","null","null","null","null","null","null","[3,1]","512.3647465969801","142.63212639212773","506.47078373174844"
"","canvas-keyboard-response","227","203070","0.0-6.0-4.31","525","","","","","clear_screen","null","null","","","critical","c","t","d","240","164","164","240","154.6796","220.0396","spektor","0.14","h","164","240","240","164","154.6796","220.0396","39360","39360","34035.6388","dc","null","null","null","null","null","null","[3,1]","512.3647465969801","142.63212639212773","506.47078373174844"
"","canvas-keyboard-response","228","203447","0.0-6.0-5.31","525","","","","","make choice","369","1","","","critical","c","t","d","240","164","164","240","154.6796","220.0396","spektor","0.14","h","164","240","240","164","154.6796","220.0396","39360","39360","34035.6388","dc","null","null","null","null","null","null","[3,1]","","",""
"","canvas-keyboard-response","229","203465","0.0-6.0-6.31","525","","","","","clear_screen","null","null","","","critical","c","t","d","240","164","164","240","154.6796","220.0396","spektor","0.14","h","164","240","240","164","154.6796","220.0396","39360","39360","34035.6388","dc","null","null","null","null","null","null","[3,1]","","",""
"","canvas-keyboard-response","230","203665","0.0-6.0-0.32","525","","","","","pre trial waiting period","null","null","","","catch","l","sw","sh","220","298","184","193","164","191","spektor","null","null","null","null","null","null","null","null","null","null","null","","180","200","260","200","36000","52000","[1,3]","469.9206841587973","120.29908207335545","519.1753931517334"
"","canvas-keyboard-response","231","203684","0.0-6.0-1.32","525","","","","","clear_screen","null","null","","","catch","l","sw","sh","220","298","184","193","164","191","spektor","null","null","null","null","null","null","null","null","null","null","null","","180","200","260","200","36000","52000","[1,3]","469.9206841587973","120.29908207335545","519.1753931517334"
"","canvas-keyboard-response","232","204196","0.0-6.0-2.32","525","","","","","rectangles no change","null","null","","","catch","l","sw","sh","220","298","184","193","164","191","spektor","null","null","null","null","null","null","null","null","null","null","null","","180","200","260","200","36000","52000","[1,3]","469.9206841587973","120.29908207335545","519.1753931517334"
"","canvas-keyboard-response","233","205532","0.0-6.0-3.32","525","","","","","rectangles with change","null","null","","","catch","l","sw","sh","220","298","184","193","164","191","spektor","null","null","null","null","null","null","null","null","null","null","null","","180","200","260","200","36000","52000","[1,3]","469.9206841587973","120.29908207335545","519.1753931517334"
"","canvas-keyboard-response","234","205549","0.0-6.0-4.32","525","","","","","clear_screen","null","null","","","catch","l","sw","sh","220","298","184","193","164","191","spektor","null","null","null","null","null","null","null","null","null","null","null","","180","200","260","200","36000","52000","[1,3]","469.9206841587973","120.29908207335545","519.1753931517334"
"","canvas-keyboard-response","235","205735","0.0-6.0-5.32","525","","","","","make choice","180","1","","","catch","l","sw","sh","220","298","184","193","164","191","spektor","null","null","null","null","null","null","null","null","null","null","null","","180","200","260","200","36000","52000","[1,3]","","",""
"","canvas-keyboard-response","236","205753","0.0-6.0-6.32","525","","","","","clear_screen","null","null","","","catch","l","sw","sh","220","298","184","193","164","191","spektor","null","null","null","null","null","null","null","null","null","null","null","","180","200","260","200","36000","52000","[1,3]","","",""
"","canvas-keyboard-response","237","205954","0.0-6.0-0.33","525","","","","","pre trial waiting period","null","null","","","catch","sh","sw","l","164","152","203","170","283","201","spektor","null","null","null","null","null","null","null","null","null","null","null","","180","200","260","200","36000","52000","[1,3]","528.9304894520149","190.100362857938","494.4010030585997"
"","canvas-keyboard-response","238","205973","0.0-6.0-1.33","525","","","","","clear_screen","null","null","","","catch","sh","sw","l","164","152","203","170","283","201","spektor","null","null","null","null","null","null","null","null","null","null","null","","180","200","260","200","36000","52000","[1,3]","528.9304894520149","190.100362857938","494.4010030585997"
"","canvas-keyboard-response","239","206486","0.0-6.0-2.33","525","","","","","rectangles no change","null","null","","","catch","sh","sw","l","164","152","203","170","283","201","spektor","null","null","null","null","null","null","null","null","null","null","null","","180","200","260","200","36000","52000","[1,3]","528.9304894520149","190.100362857938","494.4010030585997"
"","canvas-keyboard-response","240","207821","0.0-6.0-3.33","525","","","","","rectangles with change","null","null","","","catch","sh","sw","l","164","152","203","170","283","201","spektor","null","null","null","null","null","null","null","null","null","null","null","","180","200","260","200","36000","52000","[1,3]","528.9304894520149","190.100362857938","494.4010030585997"
"","canvas-keyboard-response","241","207839","0.0-6.0-4.33","525","","","","","clear_screen","null","null","","","catch","sh","sw","l","164","152","203","170","283","201","spektor","null","null","null","null","null","null","null","null","null","null","null","","180","200","260","200","36000","52000","[1,3]","528.9304894520149","190.100362857938","494.4010030585997"
"","canvas-keyboard-response","242","208190","0.0-6.0-5.33","525","","","","","make choice","344","3","","","catch","sh","sw","l","164","152","203","170","283","201","spektor","null","null","null","null","null","null","null","null","null","null","null","","180","200","260","200","36000","52000","[1,3]","","",""
"","canvas-keyboard-response","243","208210","0.0-6.0-6.33","525","","","","","clear_screen","null","null","","","catch","sh","sw","l","164","152","203","170","283","201","spektor","null","null","null","null","null","null","null","null","null","null","null","","180","200","260","200","36000","52000","[1,3]","","",""
"","canvas-keyboard-response","244","208410","0.0-6.0-0.34","525","","","","","pre trial waiting period","null","null","","","critical","t","c","d","240","164","164","240","220.0396","154.6796","trueblood","0.14","w","240","164","164","240","220.0396","154.6796","39360","39360","34035.6388","tc","null","null","null","null","null","null","[1,2]","476.3006185986402","436.07544525864466","499.0387839813444"
"","canvas-keyboard-response","245","208429","0.0-6.0-1.34","525","","","","","clear_screen","null","null","","","critical","t","c","d","240","164","164","240","220.0396","154.6796","trueblood","0.14","w","240","164","164","240","220.0396","154.6796","39360","39360","34035.6388","tc","null","null","null","null","null","null","[1,2]","476.3006185986402","436.07544525864466","499.0387839813444"
"","canvas-keyboard-response","246","208942","0.0-6.0-2.34","525","","","","","rectangles no change","null","null","","","critical","t","c","d","240","164","164","240","220.0396","154.6796","trueblood","0.14","w","240","164","164","240","220.0396","154.6796","39360","39360","34035.6388","tc","null","null","null","null","null","null","[1,2]","476.3006185986402","436.07544525864466","499.0387839813444"
"","canvas-keyboard-response","247","210277","0.0-6.0-3.34","525","","","","","rectangles with change","null","null","","","critical","t","c","d","240","164","164","240","220.0396","154.6796","trueblood","0.14","w","240","164","164","240","220.0396","154.6796","39360","39360","34035.6388","tc","null","null","null","null","null","null","[1,2]","476.3006185986402","436.07544525864466","499.0387839813444"
"","canvas-keyboard-response","248","210294","0.0-6.0-4.34","525","","","","","clear_screen","null","null","","","critical","t","c","d","240","164","164","240","220.0396","154.6796","trueblood","0.14","w","240","164","164","240","220.0396","154.6796","39360","39360","34035.6388","tc","null","null","null","null","null","null","[1,2]","476.3006185986402","436.07544525864466","499.0387839813444"
"","canvas-keyboard-response","249","210831","0.0-6.0-5.34","525","","","","","make choice","529","2","","","critical","t","c","d","240","164","164","240","220.0396","154.6796","trueblood","0.14","w","240","164","164","240","220.0396","154.6796","39360","39360","34035.6388","tc","null","null","null","null","null","null","[1,2]","","",""
"","canvas-keyboard-response","250","210848","0.0-6.0-6.34","525","","","","","clear_screen","null","null","","","critical","t","c","d","240","164","164","240","220.0396","154.6796","trueblood","0.14","w","240","164","164","240","220.0396","154.6796","39360","39360","34035.6388","tc","null","null","null","null","null","null","[1,2]","","",""
"","canvas-keyboard-response","251","211049","0.0-6.0-0.35","525","","","","","pre trial waiting period","null","null","","","critical","t","d","c","240","164","227.1683","158.0083","164","240","trueblood","0.09","w","240","164","164","240","227.1683","158.0083","39360","39360","35894.4834","td","null","null","null","null","null","null","[1,2]","491.93389731704633","476.32128494308733","442.9986031545016"
"","canvas-keyboard-response","252","211068","0.0-6.0-1.35","525","","","","","clear_screen","null","null","","","critical","t","d","c","240","164","227.1683","158.0083","164","240","trueblood","0.09","w","240","164","164","240","227.1683","158.0083","39360","39360","35894.4834","td","null","null","null","null","null","null","[1,2]","491.93389731704633","476.32128494308733","442.9986031545016"
"","canvas-keyboard-response","253","211579","0.0-6.0-2.35","525","","","","","rectangles no change","null","null","","","critical","t","d","c","240","164","227.1683","158.0083","164","240","trueblood","0.09","w","240","164","164","240","227.1683","158.0083","39360","39360","35894.4834","td","null","null","null","null","null","null","[1,2]","491.93389731704633","476.32128494308733","442.9986031545016"
"","canvas-keyboard-response","254","212913","0.0-6.0-3.35","525","","","","","rectangles with change","null","null","","","critical","t","d","c","240","164","227.1683","158.0083","164","240","trueblood","0.09","w","240","164","164","240","227.1683","158.0083","39360","39360","35894.4834","td","null","null","null","null","null","null","[1,2]","491.93389731704633","476.32128494308733","442.9986031545016"
"","canvas-keyboard-response","255","212930","0.0-6.0-4.35","525","","","","","clear_screen","null","null","","","critical","t","d","c","240","164","227.1683","158.0083","164","240","trueblood","0.09","w","240","164","164","240","227.1683","158.0083","39360","39360","35894.4834","td","null","null","null","null","null","null","[1,2]","491.93389731704633","476.32128494308733","442.9986031545016"
"","canvas-keyboard-response","256","213198","0.0-6.0-5.35","525","","","","","make choice","263","1","","","critical","t","d","c","240","164","227.1683","158.0083","164","240","trueblood","0.09","w","240","164","164","240","227.1683","158.0083","39360","39360","35894.4834","td","null","null","null","null","null","null","[1,2]","","",""
"","canvas-keyboard-response","257","213217","0.0-6.0-6.35","525","","","","","clear_screen","null","null","","","critical","t","d","c","240","164","227.1683","158.0083","164","240","trueblood","0.09","w","240","164","164","240","227.1683","158.0083","39360","39360","35894.4834","td","null","null","null","null","null","null","[1,2]","","",""
"","canvas-keyboard-response","258","213419","0.0-6.0-0.36","525","","","","","pre trial waiting period","null","null","","","catch","sh","sw","l","238","143","215","219","208","272","trueblood","null","null","null","null","null","null","null","null","null","null","null","","180","200","260","200","36000","52000","[2,3]","486.40143789103513","462.0420771156317","418.9760301368528"
"","canvas-keyboard-response","259","213437","0.0-6.0-1.36","525","","","","","clear_screen","null","null","","","catch","sh","sw","l","238","143","215","219","208","272","trueblood","null","null","null","null","null","null","null","null","null","null","null","","180","200","260","200","36000","52000","[2,3]","486.40143789103513","462.0420771156317","418.9760301368528"
"","canvas-keyboard-response","260","213948","0.0-6.0-2.36","525","","","","","rectangles no change","null","null","","","catch","sh","sw","l","238","143","215","219","208","272","trueblood","null","null","null","null","null","null","null","null","null","null","null","","180","200","260","200","36000","52000","[2,3]","486.40143789103513","462.0420771156317","418.9760301368528"
"","canvas-keyboard-response","261","215282","0.0-6.0-3.36","525","","","","","rectangles with change","null","null","","","catch","sh","sw","l","238","143","215","219","208","272","trueblood","null","null","null","null","null","null","null","null","null","null","null","","180","200","260","200","36000","52000","[2,3]","486.40143789103513","462.0420771156317","418.9760301368528"
"","canvas-keyboard-response","262","215299","0.0-6.0-4.36","525","","","","","clear_screen","null","null","","","catch","sh","sw","l","238","143","215","219","208","272","trueblood","null","null","null","null","null","null","null","null","null","null","null","","180","200","260","200","36000","52000","[2,3]","486.40143789103513","462.0420771156317","418.9760301368528"
"","canvas-keyboard-response","263","215670","0.0-6.0-5.36","525","","","","","make choice","363","3","","","catch","sh","sw","l","238","143","215","219","208","272","trueblood","null","null","null","null","null","null","null","null","null","null","null","","180","200","260","200","36000","52000","[2,3]","","",""
"","canvas-keyboard-response","264","215688","0.0-6.0-6.36","525","","","","","clear_screen","null","null","","","catch","sh","sw","l","238","143","215","219","208","272","trueblood","null","null","null","null","null","null","null","null","null","null","null","","180","200","260","200","36000","52000","[2,3]","","",""
"","canvas-keyboard-response","265","215891","0.0-6.0-0.37","525","","","","","pre trial waiting period","null","null","","","critical","t","c","d","240","164","164","240","237.1485","162.6685","spektor","0.02","w","240","164","164","240","237.1485","162.6685","39360","39360","38576.5967","td","null","null","null","null","null","null","[1,3]","505.78818454403455","143.3129121113835","505.4454367251308"
"","canvas-keyboard-response","266","215908","0.0-6.0-1.37","525","","","","","clear_screen","null","null","","","critical","t","c","d","240","164","164","240","237.1485","162.6685","spektor","0.02","w","240","164","164","240","237.1485","162.6685","39360","39360","38576.5967","td","null","null","null","null","null","null","[1,3]","505.78818454403455","143.3129121113835","505.4454367251308"
"","canvas-keyboard-response","267","216423","0.0-6.0-2.37","525","","","","","rectangles no change","null","null","","","critical","t","c","d","240","164","164","240","237.1485","162.6685","spektor","0.02","w","240","164","164","240","237.1485","162.6685","39360","39360","38576.5967","td","null","null","null","null","null","null","[1,3]","505.78818454403455","143.3129121113835","505.4454367251308"
"","canvas-keyboard-response","268","217760","0.0-6.0-3.37","525","","","","","rectangles with change","null","null","","","critical","t","c","d","240","164","164","240","237.1485","162.6685","spektor","0.02","w","240","164","164","240","237.1485","162.6685","39360","39360","38576.5967","td","null","null","null","null","null","null","[1,3]","505.78818454403455","143.3129121113835","505.4454367251308"
