"success","trial_type","trial_index","time_elapsed","internal_node_id","sub_n","timeout","failed_images","failed_audio","failed_video","screen_id","rt","response","stimulus","view_history","trial","r1","r2","r3","w1","h1","w2","h2","w3","h3","display","tdd","tdo","tw","th","cw","ch","dw","dh","ta","ca","da","probe","csls","csss","clls","clss","sa","la","probe_rects","r1yloc","r2yloc","r3yloc"
"true","fullscreen","0","2579","0.0-0.0","542","","","","","","","","","","","","","","","","","","","","","","","","","","","","","","","","","","","","","","","","","",""
"true","preload","1","2597","0.0-1.0","542","false","[]","[]","[]","img preload","","","","","","","","","","","","","","","","","","","","","","","","","","","","","","","","","","","","",""
"","survey-html-form","2","101136","0.0-2.0","542","","","","","enter-sub-number","98532","{""response"":""542""}","","","","","","","","","","","","","","","","","","","","","","","","","","","","","","","","","","",""
"","image-button-response","3","104116","0.0-3.0","542","","","","","","2916","0","consent.png","","","","","","","","","","","","","","","","","","","","","","","","","","","","","","","","","",""
"","html-button-response","4","109429","0.0-4.0","542","","","","","intro mssg","5309","0","<div style= ""font-size:25px;"" <p> <strong> Welcome! </strong><br> <p style=""color:#8B0000; font-size:25px;""><strong> Please do NOT exit full screen until you are done with the experiment. </strong> </p><p style=""font-size:25px;color:#8B0000;""> <strong> Your data will be lost <br> if you try to go back or refresh the page after the experiment starts. Feel free to click ""previous"" during the instructions, however.</strong> </p><br><p> <strong> Thanks in advance for your contribution to our research! </strong></p>","","","","","","","","","","","","","","","","","","","","","","","","","","","","","","","","","",""
"","instructions","5","151564","0.0-5.0","542","","","","","instructions","42130","","","[{""page_index"":0,""viewing_time"":8210},{""page_index"":1,""viewing_time"":6464},{""page_index"":2,""viewing_time"":1792},{""page_index"":3,""viewing_time"":15175},{""page_index"":4,""viewing_time"":5135},{""page_index"":5,""viewing_time"":1906},{""page_index"":6,""viewing_time"":2559},{""page_index"":7,""viewing_time"":888}]","","","","","","","","","","","","","","","","","","","","","","","","","","","","","","","","",""
"","canvas-keyboard-response","6","151768","0.0-6.0-0.0","542","","","","","pre trial waiting period","null","null","","","catch","sh","l","sw","237","147","183","260","147","162","trueblood","null","null","null","null","null","null","null","null","null","null","null","","180","200","260","200","36000","52000","[2,3]","494.77538541599296","411.7951634658494","506.9308321629974"
"","canvas-keyboard-response","7","151795","0.0-6.0-1.0","542","","","","","clear_screen","null","null","","","catch","sh","l","sw","237","147","183","260","147","162","trueblood","null","null","null","null","null","null","null","null","null","null","null","","180","200","260","200","36000","52000","[2,3]","494.77538541599296","411.7951634658494","506.9308321629974"
"","canvas-keyboard-response","8","152304","0.0-6.0-2.0","542","","","","","rectangles no change","null","null","","","catch","sh","l","sw","237","147","183","260","147","162","trueblood","null","null","null","null","null","null","null","null","null","null","null","","180","200","260","200","36000","52000","[2,3]","494.77538541599296","411.7951634658494","506.9308321629974"
"","canvas-keyboard-response","9","153640","0.0-6.0-3.0","542","","","","","rectangles with change","null","null","","","catch","sh","l","sw","237","147","183","260","147","162","trueblood","null","null","null","null","null","null","null","null","null","null","null","","180","200","260","200","36000","52000","[2,3]","494.77538541599296","411.7951634658494","506.9308321629974"
"","canvas-keyboard-response","10","153659","0.0-6.0-4.0","542","","","","","clear_screen","null","null","","","catch","sh","l","sw","237","147","183","260","147","162","trueblood","null","null","null","null","null","null","null","null","null","null","null","","180","200","260","200","36000","52000","[2,3]","494.77538541599296","411.7951634658494","506.9308321629974"
"","canvas-keyboard-response","11","160672","0.0-6.0-5.0","542","","","","","make choice","7008","2","","","catch","sh","l","sw","237","147","183","260","147","162","trueblood","null","null","null","null","null","null","null","null","null","null","null","","180","200","260","200","36000","52000","[2,3]","","",""
"","canvas-keyboard-response","12","160689","0.0-6.0-6.0","542","","","","","clear_screen","null","null","","","catch","sh","l","sw","237","147","183","260","147","162","trueblood","null","null","null","null","null","null","null","null","null","null","null","","180","200","260","200","36000","52000","[2,3]","","",""
"","canvas-keyboard-response","13","160890","0.0-6.0-0.1","542","","","","","pre trial waiting period","null","null","","","critical","c","d","t","164","240","227.1683","158.0083","240","164","trueblood","0.09","w","240","164","164","240","227.1683","158.0083","39360","39360","35894.4834","td","null","null","null","null","null","null","[3,2]","459.60246106286877","485.93649708662304","517.3302166804524"
"","canvas-keyboard-response","14","160914","0.0-6.0-1.1","542","","","","","clear_screen","null","null","","","critical","c","d","t","164","240","227.1683","158.0083","240","164","trueblood","0.09","w","240","164","164","240","227.1683","158.0083","39360","39360","35894.4834","td","null","null","null","null","null","null","[3,2]","459.60246106286877","485.93649708662304","517.3302166804524"
"","canvas-keyboard-response","15","161422","0.0-6.0-2.1","542","","","","","rectangles no change","null","null","","","critical","c","d","t","164","240","227.1683","158.0083","240","164","trueblood","0.09","w","240","164","164","240","227.1683","158.0083","39360","39360","35894.4834","td","null","null","null","null","null","null","[3,2]","459.60246106286877","485.93649708662304","517.3302166804524"
"","canvas-keyboard-response","16","162761","0.0-6.0-3.1","542","","","","","rectangles with change","null","null","","","critical","c","d","t","164","240","227.1683","158.0083","240","164","trueblood","0.09","w","240","164","164","240","227.1683","158.0083","39360","39360","35894.4834","td","null","null","null","null","null","null","[3,2]","459.60246106286877","485.93649708662304","517.3302166804524"
"","canvas-keyboard-response","17","162784","0.0-6.0-4.1","542","","","","","clear_screen","null","null","","","critical","c","d","t","164","240","227.1683","158.0083","240","164","trueblood","0.09","w","240","164","164","240","227.1683","158.0083","39360","39360","35894.4834","td","null","null","null","null","null","null","[3,2]","459.60246106286877","485.93649708662304","517.3302166804524"
"","canvas-keyboard-response","18","164416","0.0-6.0-5.1","542","","","","","make choice","1623","3","","","critical","c","d","t","164","240","227.1683","158.0083","240","164","trueblood","0.09","w","240","164","164","240","227.1683","158.0083","39360","39360","35894.4834","td","null","null","null","null","null","null","[3,2]","","",""
"","canvas-keyboard-response","19","164434","0.0-6.0-6.1","542","","","","","clear_screen","null","null","","","critical","c","d","t","164","240","227.1683","158.0083","240","164","trueblood","0.09","w","240","164","164","240","227.1683","158.0083","39360","39360","35894.4834","td","null","null","null","null","null","null","[3,2]","","",""
"","canvas-keyboard-response","20","164634","0.0-6.0-0.2","542","","","","","pre trial waiting period","null","null","","","critical","t","d","c","164","240","160.6713","232.8713","240","164","spektor","0.05","h","164","240","240","164","160.6713","232.8713","39360","39360","37415.7294","tc","null","null","null","null","null","null","[1,3]","503.98118056726315","118.18442147066533","503.0718956356457"
"","canvas-keyboard-response","21","164657","0.0-6.0-1.2","542","","","","","clear_screen","null","null","","","critical","t","d","c","164","240","160.6713","232.8713","240","164","spektor","0.05","h","164","240","240","164","160.6713","232.8713","39360","39360","37415.7294","tc","null","null","null","null","null","null","[1,3]","503.98118056726315","118.18442147066533","503.0718956356457"
"","canvas-keyboard-response","22","165166","0.0-6.0-2.2","542","","","","","rectangles no change","null","null","","","critical","t","d","c","164","240","160.6713","232.8713","240","164","spektor","0.05","h","164","240","240","164","160.6713","232.8713","39360","39360","37415.7294","tc","null","null","null","null","null","null","[1,3]","503.98118056726315","118.18442147066533","503.0718956356457"
"","canvas-keyboard-response","23","166505","0.0-6.0-3.2","542","","","","","rectangles with change","null","null","","","critical","t","d","c","164","240","160.6713","232.8713","240","164","spektor","0.05","h","164","240","240","164","160.6713","232.8713","39360","39360","37415.7294","tc","null","null","null","null","null","null","[1,3]","503.98118056726315","118.18442147066533","503.0718956356457"
"","canvas-keyboard-response","24","166525","0.0-6.0-4.2","542","","","","","clear_screen","null","null","","","critical","t","d","c","164","240","160.6713","232.8713","240","164","spektor","0.05","h","164","240","240","164","160.6713","232.8713","39360","39360","37415.7294","tc","null","null","null","null","null","null","[1,3]","503.98118056726315","118.18442147066533","503.0718956356457"
"","canvas-keyboard-response","25","168208","0.0-6.0-5.2","542","","","","","make choice","1679","1","","","critical","t","d","c","164","240","160.6713","232.8713","240","164","spektor","0.05","h","164","240","240","164","160.6713","232.8713","39360","39360","37415.7294","tc","null","null","null","null","null","null","[1,3]","","",""
"","canvas-keyboard-response","26","168227","0.0-6.0-6.2","542","","","","","clear_screen","null","null","","","critical","t","d","c","164","240","160.6713","232.8713","240","164","spektor","0.05","h","164","240","240","164","160.6713","232.8713","39360","39360","37415.7294","tc","null","null","null","null","null","null","[1,3]","","",""
"","canvas-keyboard-response","27","168428","0.0-6.0-0.3","542","","","","","pre trial waiting period","null","null","","","critical","c","d","t","240","164","160.6713","232.8713","164","240","trueblood","0.05","h","164","240","240","164","160.6713","232.8713","39360","39360","37415.7294","tc","null","null","null","null","null","null","[3,1]","509.5440722027911","466.7149332957575","442.5330030519776"
"","canvas-keyboard-response","28","168449","0.0-6.0-1.3","542","","","","","clear_screen","null","null","","","critical","c","d","t","240","164","160.6713","232.8713","164","240","trueblood","0.05","h","164","240","240","164","160.6713","232.8713","39360","39360","37415.7294","tc","null","null","null","null","null","null","[3,1]","509.5440722027911","466.7149332957575","442.5330030519776"
"","canvas-keyboard-response","29","168955","0.0-6.0-2.3","542","","","","","rectangles no change","null","null","","","critical","c","d","t","240","164","160.6713","232.8713","164","240","trueblood","0.05","h","164","240","240","164","160.6713","232.8713","39360","39360","37415.7294","tc","null","null","null","null","null","null","[3,1]","509.5440722027911","466.7149332957575","442.5330030519776"
"","canvas-keyboard-response","30","170286","0.0-6.0-3.3","542","","","","","rectangles with change","null","null","","","critical","c","d","t","240","164","160.6713","232.8713","164","240","trueblood","0.05","h","164","240","240","164","160.6713","232.8713","39360","39360","37415.7294","tc","null","null","null","null","null","null","[3,1]","509.5440722027911","466.7149332957575","442.5330030519776"
"","canvas-keyboard-response","31","170307","0.0-6.0-4.3","542","","","","","clear_screen","null","null","","","critical","c","d","t","240","164","160.6713","232.8713","164","240","trueblood","0.05","h","164","240","240","164","160.6713","232.8713","39360","39360","37415.7294","tc","null","null","null","null","null","null","[3,1]","509.5440722027911","466.7149332957575","442.5330030519776"
"","canvas-keyboard-response","32","173032","0.0-6.0-5.3","542","","","","","make choice","2719","3","","","critical","c","d","t","240","164","160.6713","232.8713","164","240","trueblood","0.05","h","164","240","240","164","160.6713","232.8713","39360","39360","37415.7294","tc","null","null","null","null","null","null","[3,1]","","",""
"","canvas-keyboard-response","33","173049","0.0-6.0-6.3","542","","","","","clear_screen","null","null","","","critical","c","d","t","240","164","160.6713","232.8713","164","240","trueblood","0.05","h","164","240","240","164","160.6713","232.8713","39360","39360","37415.7294","tc","null","null","null","null","null","null","[3,1]","","",""
"","canvas-keyboard-response","34","173250","0.0-6.0-0.4","542","","","","","pre trial waiting period","null","null","","","catch","sw","l","sh","180","200","207","243","190","194","trueblood","null","null","null","null","null","null","null","null","null","null","null","","180","200","260","200","36000","52000","[2,3]","491.54464028183645","435.3045129403712","493.2998194014861"
"","canvas-keyboard-response","35","173273","0.0-6.0-1.4","542","","","","","clear_screen","null","null","","","catch","sw","l","sh","180","200","207","243","190","194","trueblood","null","null","null","null","null","null","null","null","null","null","null","","180","200","260","200","36000","52000","[2,3]","491.54464028183645","435.3045129403712","493.2998194014861"
"","canvas-keyboard-response","36","173778","0.0-6.0-2.4","542","","","","","rectangles no change","null","null","","","catch","sw","l","sh","180","200","207","243","190","194","trueblood","null","null","null","null","null","null","null","null","null","null","null","","180","200","260","200","36000","52000","[2,3]","491.54464028183645","435.3045129403712","493.2998194014861"
"","canvas-keyboard-response","37","175112","0.0-6.0-3.4","542","","","","","rectangles with change","null","null","","","catch","sw","l","sh","180","200","207","243","190","194","trueblood","null","null","null","null","null","null","null","null","null","null","null","","180","200","260","200","36000","52000","[2,3]","491.54464028183645","435.3045129403712","493.2998194014861"
"","canvas-keyboard-response","38","175132","0.0-6.0-4.4","542","","","","","clear_screen","null","null","","","catch","sw","l","sh","180","200","207","243","190","194","trueblood","null","null","null","null","null","null","null","null","null","null","null","","180","200","260","200","36000","52000","[2,3]","491.54464028183645","435.3045129403712","493.2998194014861"
"","canvas-keyboard-response","39","176151","0.0-6.0-5.4","542","","","","","make choice","1014","2","","","catch","sw","l","sh","180","200","207","243","190","194","trueblood","null","null","null","null","null","null","null","null","null","null","null","","180","200","260","200","36000","52000","[2,3]","","",""
"","canvas-keyboard-response","40","176170","0.0-6.0-6.4","542","","","","","clear_screen","null","null","","","catch","sw","l","sh","180","200","207","243","190","194","trueblood","null","null","null","null","null","null","null","null","null","null","null","","180","200","260","200","36000","52000","[2,3]","","",""
"","canvas-keyboard-response","41","176370","0.0-6.0-0.5","542","","","","","pre trial waiting period","null","null","","","catch","sw","sh","l","180","200","193","165","168","296","trueblood","null","null","null","null","null","null","null","null","null","null","null","","180","200","260","200","36000","52000","[2,3]","490.6341470402787","470.88899641283916","416.44778914952957"
"","canvas-keyboard-response","42","176391","0.0-6.0-1.5","542","","","","","clear_screen","null","null","","","catch","sw","sh","l","180","200","193","165","168","296","trueblood","null","null","null","null","null","null","null","null","null","null","null","","180","200","260","200","36000","52000","[2,3]","490.6341470402787","470.88899641283916","416.44778914952957"
"","canvas-keyboard-response","43","176897","0.0-6.0-2.5","542","","","","","rectangles no change","null","null","","","catch","sw","sh","l","180","200","193","165","168","296","trueblood","null","null","null","null","null","null","null","null","null","null","null","","180","200","260","200","36000","52000","[2,3]","490.6341470402787","470.88899641283916","416.44778914952957"
"","canvas-keyboard-response","44","178232","0.0-6.0-3.5","542","","","","","rectangles with change","null","null","","","catch","sw","sh","l","180","200","193","165","168","296","trueblood","null","null","null","null","null","null","null","null","null","null","null","","180","200","260","200","36000","52000","[2,3]","490.6341470402787","470.88899641283916","416.44778914952957"
"","canvas-keyboard-response","45","178251","0.0-6.0-4.5","542","","","","","clear_screen","null","null","","","catch","sw","sh","l","180","200","193","165","168","296","trueblood","null","null","null","null","null","null","null","null","null","null","null","","180","200","260","200","36000","52000","[2,3]","490.6341470402787","470.88899641283916","416.44778914952957"
"","canvas-keyboard-response","46","178905","0.0-6.0-5.5","542","","","","","make choice","647","3","","","catch","sw","sh","l","180","200","193","165","168","296","trueblood","null","null","null","null","null","null","null","null","null","null","null","","180","200","260","200","36000","52000","[2,3]","","",""
"","canvas-keyboard-response","47","178926","0.0-6.0-6.5","542","","","","","clear_screen","null","null","","","catch","sw","sh","l","180","200","193","165","168","296","trueblood","null","null","null","null","null","null","null","null","null","null","null","","180","200","260","200","36000","52000","[2,3]","","",""
"","canvas-keyboard-response","48","179128","0.0-6.0-0.6","542","","","","","pre trial waiting period","null","null","","","catch","sw","sh","l","180","200","213","198","289","162","spektor","null","null","null","null","null","null","null","null","null","null","null","","180","200","260","200","36000","52000","[1,3]","496.3134698678657","175.21282365358363","510.362708539089"
"","canvas-keyboard-response","49","179151","0.0-6.0-1.6","542","","","","","clear_screen","null","null","","","catch","sw","sh","l","180","200","213","198","289","162","spektor","null","null","null","null","null","null","null","null","null","null","null","","180","200","260","200","36000","52000","[1,3]","496.3134698678657","175.21282365358363","510.362708539089"
"","canvas-keyboard-response","50","179659","0.0-6.0-2.6","542","","","","","rectangles no change","null","null","","","catch","sw","sh","l","180","200","213","198","289","162","spektor","null","null","null","null","null","null","null","null","null","null","null","","180","200","260","200","36000","52000","[1,3]","496.3134698678657","175.21282365358363","510.362708539089"
"","canvas-keyboard-response","51","180995","0.0-6.0-3.6","542","","","","","rectangles with change","null","null","","","catch","sw","sh","l","180","200","213","198","289","162","spektor","null","null","null","null","null","null","null","null","null","null","null","","180","200","260","200","36000","52000","[1,3]","496.3134698678657","175.21282365358363","510.362708539089"
"","canvas-keyboard-response","52","181018","0.0-6.0-4.6","542","","","","","clear_screen","null","null","","","catch","sw","sh","l","180","200","213","198","289","162","spektor","null","null","null","null","null","null","null","null","null","null","null","","180","200","260","200","36000","52000","[1,3]","496.3134698678657","175.21282365358363","510.362708539089"
"","canvas-keyboard-response","53","181592","0.0-6.0-5.6","542","","","","","make choice","568","3","","","catch","sw","sh","l","180","200","213","198","289","162","spektor","null","null","null","null","null","null","null","null","null","null","null","","180","200","260","200","36000","52000","[1,3]","","",""
"","canvas-keyboard-response","54","181610","0.0-6.0-6.6","542","","","","","clear_screen","null","null","","","catch","sw","sh","l","180","200","213","198","289","162","spektor","null","null","null","null","null","null","null","null","null","null","null","","180","200","260","200","36000","52000","[1,3]","","",""
"","canvas-keyboard-response","55","181811","0.0-6.0-0.7","542","","","","","pre trial waiting period","null","null","","","critical","d","t","c","158.0083","227.1683","164","240","240","164","trueblood","0.09","h","164","240","240","164","158.0083","227.1683","39360","39360","35894.4834","td","null","null","null","null","null","null","[2,1]","435.8228068862123","428.9840235099057","473.09667408912827"
"","canvas-keyboard-response","56","181831","0.0-6.0-1.7","542","","","","","clear_screen","null","null","","","critical","d","t","c","158.0083","227.1683","164","240","240","164","trueblood","0.09","h","164","240","240","164","158.0083","227.1683","39360","39360","35894.4834","td","null","null","null","null","null","null","[2,1]","435.8228068862123","428.9840235099057","473.09667408912827"
"","canvas-keyboard-response","57","182340","0.0-6.0-2.7","542","","","","","rectangles no change","null","null","","","critical","d","t","c","158.0083","227.1683","164","240","240","164","trueblood","0.09","h","164","240","240","164","158.0083","227.1683","39360","39360","35894.4834","td","null","null","null","null","null","null","[2,1]","435.8228068862123","428.9840235099057","473.09667408912827"
"","canvas-keyboard-response","58","183679","0.0-6.0-3.7","542","","","","","rectangles with change","null","null","","","critical","d","t","c","158.0083","227.1683","164","240","240","164","trueblood","0.09","h","164","240","240","164","158.0083","227.1683","39360","39360","35894.4834","td","null","null","null","null","null","null","[2,1]","435.8228068862123","428.9840235099057","473.09667408912827"
"","canvas-keyboard-response","59","183697","0.0-6.0-4.7","542","","","","","clear_screen","null","null","","","critical","d","t","c","158.0083","227.1683","164","240","240","164","trueblood","0.09","h","164","240","240","164","158.0083","227.1683","39360","39360","35894.4834","td","null","null","null","null","null","null","[2,1]","435.8228068862123","428.9840235099057","473.09667408912827"
"","canvas-keyboard-response","60","184329","0.0-6.0-5.7","542","","","","","make choice","626","2","","","critical","d","t","c","158.0083","227.1683","164","240","240","164","trueblood","0.09","h","164","240","240","164","158.0083","227.1683","39360","39360","35894.4834","td","null","null","null","null","null","null","[2,1]","","",""
"","canvas-keyboard-response","61","184348","0.0-6.0-6.7","542","","","","","clear_screen","null","null","","","critical","d","t","c","158.0083","227.1683","164","240","240","164","trueblood","0.09","h","164","240","240","164","158.0083","227.1683","39360","39360","35894.4834","td","null","null","null","null","null","null","[2,1]","","",""
"","canvas-keyboard-response","62","184549","0.0-6.0-0.8","542","","","","","pre trial waiting period","null","null","","","catch","sh","sw","l","207","213","186","172","214","244","spektor","null","null","null","null","null","null","null","null","null","null","null","","180","200","260","200","36000","52000","[2,3]","512.7085411713977","187.3803110167032","493.4976234895378"
"","canvas-keyboard-response","63","184569","0.0-6.0-1.8","542","","","","","clear_screen","null","null","","","catch","sh","sw","l","207","213","186","172","214","244","spektor","null","null","null","null","null","null","null","null","null","null","null","","180","200","260","200","36000","52000","[2,3]","512.7085411713977","187.3803110167032","493.4976234895378"
"","canvas-keyboard-response","64","185077","0.0-6.0-2.8","542","","","","","rectangles no change","null","null","","","catch","sh","sw","l","207","213","186","172","214","244","spektor","null","null","null","null","null","null","null","null","null","null","null","","180","200","260","200","36000","52000","[2,3]","512.7085411713977","187.3803110167032","493.4976234895378"
"","canvas-keyboard-response","65","186415","0.0-6.0-3.8","542","","","","","rectangles with change","null","null","","","catch","sh","sw","l","207","213","186","172","214","244","spektor","null","null","null","null","null","null","null","null","null","null","null","","180","200","260","200","36000","52000","[2,3]","512.7085411713977","187.3803110167032","493.4976234895378"
"","canvas-keyboard-response","66","186433","0.0-6.0-4.8","542","","","","","clear_screen","null","null","","","catch","sh","sw","l","207","213","186","172","214","244","spektor","null","null","null","null","null","null","null","null","null","null","null","","180","200","260","200","36000","52000","[2,3]","512.7085411713977","187.3803110167032","493.4976234895378"
"","canvas-keyboard-response","67","187305","0.0-6.0-5.8","542","","","","","make choice","860","3","","","catch","sh","sw","l","207","213","186","172","214","244","spektor","null","null","null","null","null","null","null","null","null","null","null","","180","200","260","200","36000","52000","[2,3]","","",""
"","canvas-keyboard-response","68","187322","0.0-6.0-6.8","542","","","","","clear_screen","null","null","","","catch","sh","sw","l","207","213","186","172","214","244","spektor","null","null","null","null","null","null","null","null","null","null","null","","180","200","260","200","36000","52000","[2,3]","","",""
"","canvas-keyboard-response","69","187525","0.0-6.0-0.9","542","","","","","pre trial waiting period","null","null","","","critical","c","t","d","164","240","240","164","237.1485","162.6685","trueblood","0.02","w","240","164","164","240","237.1485","162.6685","39360","39360","38576.5967","td","null","null","null","null","null","null","[2,3]","450.7485239545203","487.33151031883426","509.19057050572485"
"","canvas-keyboard-response","70","187546","0.0-6.0-1.9","542","","","","","clear_screen","null","null","","","critical","c","t","d","164","240","240","164","237.1485","162.6685","trueblood","0.02","w","240","164","164","240","237.1485","162.6685","39360","39360","38576.5967","td","null","null","null","null","null","null","[2,3]","450.7485239545203","487.33151031883426","509.19057050572485"
"","canvas-keyboard-response","71","188053","0.0-6.0-2.9","542","","","","","rectangles no change","null","null","","","critical","c","t","d","164","240","240","164","237.1485","162.6685","trueblood","0.02","w","240","164","164","240","237.1485","162.6685","39360","39360","38576.5967","td","null","null","null","null","null","null","[2,3]","450.7485239545203","487.33151031883426","509.19057050572485"
"","canvas-keyboard-response","72","189383","0.0-6.0-3.9","542","","","","","rectangles with change","null","null","","","critical","c","t","d","164","240","240","164","237.1485","162.6685","trueblood","0.02","w","240","164","164","240","237.1485","162.6685","39360","39360","38576.5967","td","null","null","null","null","null","null","[2,3]","450.7485239545203","487.33151031883426","509.19057050572485"
"","canvas-keyboard-response","73","189406","0.0-6.0-4.9","542","","","","","clear_screen","null","null","","","critical","c","t","d","164","240","240","164","237.1485","162.6685","trueblood","0.02","w","240","164","164","240","237.1485","162.6685","39360","39360","38576.5967","td","null","null","null","null","null","null","[2,3]","450.7485239545203","487.33151031883426","509.19057050572485"
"","canvas-keyboard-response","74","191841","0.0-6.0-5.9","542","","","","","make choice","2429","2","","","critical","c","t","d","164","240","240","164","237.1485","162.6685","trueblood","0.02","w","240","164","164","240","237.1485","162.6685","39360","39360","38576.5967","td","null","null","null","null","null","null","[2,3]","","",""
"","canvas-keyboard-response","75","191858","0.0-6.0-6.9","542","","","","","clear_screen","null","null","","","critical","c","t","d","164","240","240","164","237.1485","162.6685","trueblood","0.02","w","240","164","164","240","237.1485","162.6685","39360","39360","38576.5967","td","null","null","null","null","null","null","[2,3]","","",""
"","canvas-keyboard-response","76","192060","0.0-6.0-0.10","542","","","","","pre trial waiting period","null","null","","","critical","c","d","t","164","240","227.1683","158.0083","240","164","spektor","0.09","w","240","164","164","240","227.1683","158.0083","39360","39360","35894.4834","dc","null","null","null","null","null","null","[2,1]","498.54186233129894","221.0172068922093","515.851061960508"
"","canvas-keyboard-response","77","192079","0.0-6.0-1.10","542","","","","","clear_screen","null","null","","","critical","c","d","t","164","240","227.1683","158.0083","240","164","spektor","0.09","w","240","164","164","240","227.1683","158.0083","39360","39360","35894.4834","dc","null","null","null","null","null","null","[2,1]","498.54186233129894","221.0172068922093","515.851061960508"
"","canvas-keyboard-response","78","192585","0.0-6.0-2.10","542","","","","","rectangles no change","null","null","","","critical","c","d","t","164","240","227.1683","158.0083","240","164","spektor","0.09","w","240","164","164","240","227.1683","158.0083","39360","39360","35894.4834","dc","null","null","null","null","null","null","[2,1]","498.54186233129894","221.0172068922093","515.851061960508"
"","canvas-keyboard-response","79","193922","0.0-6.0-3.10","542","","","","","rectangles with change","null","null","","","critical","c","d","t","164","240","227.1683","158.0083","240","164","spektor","0.09","w","240","164","164","240","227.1683","158.0083","39360","39360","35894.4834","dc","null","null","null","null","null","null","[2,1]","498.54186233129894","221.0172068922093","515.851061960508"
"","canvas-keyboard-response","80","193940","0.0-6.0-4.10","542","","","","","clear_screen","null","null","","","critical","c","d","t","164","240","227.1683","158.0083","240","164","spektor","0.09","w","240","164","164","240","227.1683","158.0083","39360","39360","35894.4834","dc","null","null","null","null","null","null","[2,1]","498.54186233129894","221.0172068922093","515.851061960508"
"","canvas-keyboard-response","81","195086","0.0-6.0-5.10","542","","","","","make choice","1140","1","","","critical","c","d","t","164","240","227.1683","158.0083","240","164","spektor","0.09","w","240","164","164","240","227.1683","158.0083","39360","39360","35894.4834","dc","null","null","null","null","null","null","[2,1]","","",""
"","canvas-keyboard-response","82","195100","0.0-6.0-6.10","542","","","","","clear_screen","null","null","","","critical","c","d","t","164","240","227.1683","158.0083","240","164","spektor","0.09","w","240","164","164","240","227.1683","158.0083","39360","39360","35894.4834","dc","null","null","null","null","null","null","[2,1]","","",""
"","canvas-keyboard-response","83","195301","0.0-6.0-0.11","542","","","","","pre trial waiting period","null","null","","","critical","c","t","d","164","240","240","164","220.0396","154.6796","trueblood","0.14","w","240","164","164","240","220.0396","154.6796","39360","39360","34035.6388","dc","null","null","null","null","null","null","[3,1]","439.36394152127826","509.46946626168796","504.1922285343888"
"","canvas-keyboard-response","84","195322","0.0-6.0-1.11","542","","","","","clear_screen","null","null","","","critical","c","t","d","164","240","240","164","220.0396","154.6796","trueblood","0.14","w","240","164","164","240","220.0396","154.6796","39360","39360","34035.6388","dc","null","null","null","null","null","null","[3,1]","439.36394152127826","509.46946626168796","504.1922285343888"
"","canvas-keyboard-response","85","195829","0.0-6.0-2.11","542","","","","","rectangles no change","null","null","","","critical","c","t","d","164","240","240","164","220.0396","154.6796","trueblood","0.14","w","240","164","164","240","220.0396","154.6796","39360","39360","34035.6388","dc","null","null","null","null","null","null","[3,1]","439.36394152127826","509.46946626168796","504.1922285343888"
"","canvas-keyboard-response","86","197169","0.0-6.0-3.11","542","","","","","rectangles with change","null","null","","","critical","c","t","d","164","240","240","164","220.0396","154.6796","trueblood","0.14","w","240","164","164","240","220.0396","154.6796","39360","39360","34035.6388","dc","null","null","null","null","null","null","[3,1]","439.36394152127826","509.46946626168796","504.1922285343888"
"","canvas-keyboard-response","87","197189","0.0-6.0-4.11","542","","","","","clear_screen","null","null","","","critical","c","t","d","164","240","240","164","220.0396","154.6796","trueblood","0.14","w","240","164","164","240","220.0396","154.6796","39360","39360","34035.6388","dc","null","null","null","null","null","null","[3,1]","439.36394152127826","509.46946626168796","504.1922285343888"
"","canvas-keyboard-response","88","198033","0.0-6.0-5.11","542","","","","","make choice","838","1","","","critical","c","t","d","164","240","240","164","220.0396","154.6796","trueblood","0.14","w","240","164","164","240","220.0396","154.6796","39360","39360","34035.6388","dc","null","null","null","null","null","null","[3,1]","","",""
"","canvas-keyboard-response","89","198049","0.0-6.0-6.11","542","","","","","clear_screen","null","null","","","critical","c","t","d","164","240","240","164","220.0396","154.6796","trueblood","0.14","w","240","164","164","240","220.0396","154.6796","39360","39360","34035.6388","dc","null","null","null","null","null","null","[3,1]","","",""
"","canvas-keyboard-response","90","198250","0.0-6.0-0.12","542","","","","","pre trial waiting period","null","null","","","critical","d","t","c","160.6713","232.8713","164","240","240","164","trueblood","0.05","h","164","240","240","164","160.6713","232.8713","39360","39360","37415.7294","td","null","null","null","null","null","null","[2,1]","448.7250697215325","425.6410836250109","488.330484074335"
"","canvas-keyboard-response","91","198269","0.0-6.0-1.12","542","","","","","clear_screen","null","null","","","critical","d","t","c","160.6713","232.8713","164","240","240","164","trueblood","0.05","h","164","240","240","164","160.6713","232.8713","39360","39360","37415.7294","td","null","null","null","null","null","null","[2,1]","448.7250697215325","425.6410836250109","488.330484074335"
"","canvas-keyboard-response","92","198782","0.0-6.0-2.12","542","","","","","rectangles no change","null","null","","","critical","d","t","c","160.6713","232.8713","164","240","240","164","trueblood","0.05","h","164","240","240","164","160.6713","232.8713","39360","39360","37415.7294","td","null","null","null","null","null","null","[2,1]","448.7250697215325","425.6410836250109","488.330484074335"
"","canvas-keyboard-response","93","200121","0.0-6.0-3.12","542","","","","","rectangles with change","null","null","","","critical","d","t","c","160.6713","232.8713","164","240","240","164","trueblood","0.05","h","164","240","240","164","160.6713","232.8713","39360","39360","37415.7294","td","null","null","null","null","null","null","[2,1]","448.7250697215325","425.6410836250109","488.330484074335"
"","canvas-keyboard-response","94","200138","0.0-6.0-4.12","542","","","","","clear_screen","null","null","","","critical","d","t","c","160.6713","232.8713","164","240","240","164","trueblood","0.05","h","164","240","240","164","160.6713","232.8713","39360","39360","37415.7294","td","null","null","null","null","null","null","[2,1]","448.7250697215325","425.6410836250109","488.330484074335"
"","canvas-keyboard-response","95","201712","0.0-6.0-5.12","542","","","","","make choice","1568","1","","","critical","d","t","c","160.6713","232.8713","164","240","240","164","trueblood","0.05","h","164","240","240","164","160.6713","232.8713","39360","39360","37415.7294","td","null","null","null","null","null","null","[2,1]","","",""
"","canvas-keyboard-response","96","201729","0.0-6.0-6.12","542","","","","","clear_screen","null","null","","","critical","d","t","c","160.6713","232.8713","164","240","240","164","trueblood","0.05","h","164","240","240","164","160.6713","232.8713","39360","39360","37415.7294","td","null","null","null","null","null","null","[2,1]","","",""
"","canvas-keyboard-response","97","201930","0.0-6.0-0.13","542","","","","","pre trial waiting period","null","null","","","critical","t","d","c","240","164","240","164","164","240","trueblood","0","w","240","164","164","240","240","164","39360","39360","39360","td","null","null","null","null","null","null","[1,2]","497.3731776729194","495.0517120164599","464.8025635346886"
"","canvas-keyboard-response","98","201953","0.0-6.0-1.13","542","","","","","clear_screen","null","null","","","critical","t","d","c","240","164","240","164","164","240","trueblood","0","w","240","164","164","240","240","164","39360","39360","39360","td","null","null","null","null","null","null","[1,2]","497.3731776729194","495.0517120164599","464.8025635346886"
"","canvas-keyboard-response","99","202459","0.0-6.0-2.13","542","","","","","rectangles no change","null","null","","","critical","t","d","c","240","164","240","164","164","240","trueblood","0","w","240","164","164","240","240","164","39360","39360","39360","td","null","null","null","null","null","null","[1,2]","497.3731776729194","495.0517120164599","464.8025635346886"
"","canvas-keyboard-response","100","203794","0.0-6.0-3.13","542","","","","","rectangles with change","null","null","","","critical","t","d","c","240","164","240","164","164","240","trueblood","0","w","240","164","164","240","240","164","39360","39360","39360","td","null","null","null","null","null","null","[1,2]","497.3731776729194","495.0517120164599","464.8025635346886"
"","canvas-keyboard-response","101","203812","0.0-6.0-4.13","542","","","","","clear_screen","null","null","","","critical","t","d","c","240","164","240","164","164","240","trueblood","0","w","240","164","164","240","240","164","39360","39360","39360","td","null","null","null","null","null","null","[1,2]","497.3731776729194","495.0517120164599","464.8025635346886"
"","canvas-keyboard-response","102","204641","0.0-6.0-5.13","542","","","","","make choice","823","2","","","critical","t","d","c","240","164","240","164","164","240","trueblood","0","w","240","164","164","240","240","164","39360","39360","39360","td","null","null","null","null","null","null","[1,2]","","",""
"","canvas-keyboard-response","103","204658","0.0-6.0-6.13","542","","","","","clear_screen","null","null","","","critical","t","d","c","240","164","240","164","164","240","trueblood","0","w","240","164","164","240","240","164","39360","39360","39360","td","null","null","null","null","null","null","[1,2]","","",""
"","canvas-keyboard-response","104","204859","0.0-6.0-0.14","542","","","","","pre trial waiting period","null","null","","","critical","d","c","t","240","164","164","240","240","164","spektor","0","w","240","164","164","240","240","164","39360","39360","39360","tc","null","null","null","null","null","null","[3,2]","515.9268739789051","110.58555111147916","494.3350827702408"
"","canvas-keyboard-response","105","204879","0.0-6.0-1.14","542","","","","","clear_screen","null","null","","","critical","d","c","t","240","164","164","240","240","164","spektor","0","w","240","164","164","240","240","164","39360","39360","39360","tc","null","null","null","null","null","null","[3,2]","515.9268739789051","110.58555111147916","494.3350827702408"
"","canvas-keyboard-response","106","205385","0.0-6.0-2.14","542","","","","","rectangles no change","null","null","","","critical","d","c","t","240","164","164","240","240","164","spektor","0","w","240","164","164","240","240","164","39360","39360","39360","tc","null","null","null","null","null","null","[3,2]","515.9268739789051","110.58555111147916","494.3350827702408"
"","canvas-keyboard-response","107","206722","0.0-6.0-3.14","542","","","","","rectangles with change","null","null","","","critical","d","c","t","240","164","164","240","240","164","spektor","0","w","240","164","164","240","240","164","39360","39360","39360","tc","null","null","null","null","null","null","[3,2]","515.9268739789051","110.58555111147916","494.3350827702408"
"","canvas-keyboard-response","108","206741","0.0-6.0-4.14","542","","","","","clear_screen","null","null","","","critical","d","c","t","240","164","164","240","240","164","spektor","0","w","240","164","164","240","240","164","39360","39360","39360","tc","null","null","null","null","null","null","[3,2]","515.9268739789051","110.58555111147916","494.3350827702408"
"","canvas-keyboard-response","109","207408","0.0-6.0-5.14","542","","","","","make choice","661","2","","","critical","d","c","t","240","164","164","240","240","164","spektor","0","w","240","164","164","240","240","164","39360","39360","39360","tc","null","null","null","null","null","null","[3,2]","","",""
"","canvas-keyboard-response","110","207427","0.0-6.0-6.14","542","","","","","clear_screen","null","null","","","critical","d","c","t","240","164","164","240","240","164","spektor","0","w","240","164","164","240","240","164","39360","39360","39360","tc","null","null","null","null","null","null","[3,2]","","",""
"","canvas-keyboard-response","111","207628","0.0-6.0-0.15","542","","","","","pre trial waiting period","null","null","","","critical","d","t","c","164","240","164","240","240","164","trueblood","0","h","164","240","240","164","164","240","39360","39360","39360","td","null","null","null","null","null","null","[2,1]","460.81760209117374","419.7408252159637","502.5028822766132"
"","canvas-keyboard-response","112","207647","0.0-6.0-1.15","542","","","","","clear_screen","null","null","","","critical","d","t","c","164","240","164","240","240","164","trueblood","0","h","164","240","240","164","164","240","39360","39360","39360","td","null","null","null","null","null","null","[2,1]","460.81760209117374","419.7408252159637","502.5028822766132"
"","canvas-keyboard-response","113","208153","0.0-6.0-2.15","542","","","","","rectangles no change","null","null","","","critical","d","t","c","164","240","164","240","240","164","trueblood","0","h","164","240","240","164","164","240","39360","39360","39360","td","null","null","null","null","null","null","[2,1]","460.81760209117374","419.7408252159637","502.5028822766132"
"","canvas-keyboard-response","114","209483","0.0-6.0-3.15","542","","","","","rectangles with change","null","null","","","critical","d","t","c","164","240","164","240","240","164","trueblood","0","h","164","240","240","164","164","240","39360","39360","39360","td","null","null","null","null","null","null","[2,1]","460.81760209117374","419.7408252159637","502.5028822766132"
"","canvas-keyboard-response","115","209499","0.0-6.0-4.15","542","","","","","clear_screen","null","null","","","critical","d","t","c","164","240","164","240","240","164","trueblood","0","h","164","240","240","164","164","240","39360","39360","39360","td","null","null","null","null","null","null","[2,1]","460.81760209117374","419.7408252159637","502.5028822766132"
"","canvas-keyboard-response","116","210368","0.0-6.0-5.15","542","","","","","make choice","858","1","","","critical","d","t","c","164","240","164","240","240","164","trueblood","0","h","164","240","240","164","164","240","39360","39360","39360","td","null","null","null","null","null","null","[2,1]","","",""
"","canvas-keyboard-response","117","210385","0.0-6.0-6.15","542","","","","","clear_screen","null","null","","","critical","d","t","c","164","240","164","240","240","164","trueblood","0","h","164","240","240","164","164","240","39360","39360","39360","td","null","null","null","null","null","null","[2,1]","","",""
"","canvas-keyboard-response","118","210587","0.0-6.0-0.16","542","","","","","pre trial waiting period","null","null","","","critical","c","t","d","164","240","240","164","240","164","spektor","0","w","240","164","164","240","240","164","39360","39360","39360","td","null","null","null","null","null","null","[2,3]","468.24856723360773","189.53588565878226","515.7212948727936"
"","canvas-keyboard-response","119","210606","0.0-6.0-1.16","542","","","","","clear_screen","null","null","","","critical","c","t","d","164","240","240","164","240","164","spektor","0","w","240","164","164","240","240","164","39360","39360","39360","td","null","null","null","null","null","null","[2,3]","468.24856723360773","189.53588565878226","515.7212948727936"
"","canvas-keyboard-response","120","211115","0.0-6.0-2.16","542","","","","","rectangles no change","null","null","","","critical","c","t","d","164","240","240","164","240","164","spektor","0","w","240","164","164","240","240","164","39360","39360","39360","td","null","null","null","null","null","null","[2,3]","468.24856723360773","189.53588565878226","515.7212948727936"
"","canvas-keyboard-response","121","212449","0.0-6.0-3.16","542","","","","","rectangles with change","null","null","","","critical","c","t","d","164","240","240","164","240","164","spektor","0","w","240","164","164","240","240","164","39360","39360","39360","td","null","null","null","null","null","null","[2,3]","468.24856723360773","189.53588565878226","515.7212948727936"
"","canvas-keyboard-response","122","212470","0.0-6.0-4.16","542","","","","","clear_screen","null","null","","","critical","c","t","d","164","240","240","164","240","164","spektor","0","w","240","164","164","240","240","164","39360","39360","39360","td","null","null","null","null","null","null","[2,3]","468.24856723360773","189.53588565878226","515.7212948727936"
"","canvas-keyboard-response","123","213288","0.0-6.0-5.16","542","","","","","make choice","815","3","","","critical","c","t","d","164","240","240","164","240","164","spektor","0","w","240","164","164","240","240","164","39360","39360","39360","td","null","null","null","null","null","null","[2,3]","","",""
"","canvas-keyboard-response","124","213304","0.0-6.0-6.16","542","","","","","clear_screen","null","null","","","critical","c","t","d","164","240","240","164","240","164","spektor","0","w","240","164","164","240","240","164","39360","39360","39360","td","null","null","null","null","null","null","[2,3]","","",""
"","canvas-keyboard-response","125","213504","0.0-6.0-0.17","542","","","","","pre trial waiting period","null","null","","","critical","c","d","t","240","164","160.6713","232.8713","164","240","spektor","0.05","h","164","240","240","164","160.6713","232.8713","39360","39360","37415.7294","td","null","null","null","null","null","null","[3,2]","521.8604754480382","112.3215810550359","460.6338006991654"
"","canvas-keyboard-response","126","213525","0.0-6.0-1.17","542","","","","","clear_screen","null","null","","","critical","c","d","t","240","164","160.6713","232.8713","164","240","spektor","0.05","h","164","240","240","164","160.6713","232.8713","39360","39360","37415.7294","td","null","null","null","null","null","null","[3,2]","521.8604754480382","112.3215810550359","460.6338006991654"
"","canvas-keyboard-response","127","214031","0.0-6.0-2.17","542","","","","","rectangles no change","null","null","","","critical","c","d","t","240","164","160.6713","232.8713","164","240","spektor","0.05","h","164","240","240","164","160.6713","232.8713","39360","39360","37415.7294","td","null","null","null","null","null","null","[3,2]","521.8604754480382","112.3215810550359","460.6338006991654"
"","canvas-keyboard-response","128","215371","0.0-6.0-3.17","542","","","","","rectangles with change","null","null","","","critical","c","d","t","240","164","160.6713","232.8713","164","240","spektor","0.05","h","164","240","240","164","160.6713","232.8713","39360","39360","37415.7294","td","null","null","null","null","null","null","[3,2]","521.8604754480382","112.3215810550359","460.6338006991654"
"","canvas-keyboard-response","129","215393","0.0-6.0-4.17","542","","","","","clear_screen","null","null","","","critical","c","d","t","240","164","160.6713","232.8713","164","240","spektor","0.05","h","164","240","240","164","160.6713","232.8713","39360","39360","37415.7294","td","null","null","null","null","null","null","[3,2]","521.8604754480382","112.3215810550359","460.6338006991654"
"","canvas-keyboard-response","130","215969","0.0-6.0-5.17","542","","","","","make choice","570","3","","","critical","c","d","t","240","164","160.6713","232.8713","164","240","spektor","0.05","h","164","240","240","164","160.6713","232.8713","39360","39360","37415.7294","td","null","null","null","null","null","null","[3,2]","","",""
"","canvas-keyboard-response","131","215986","0.0-6.0-6.17","542","","","","","clear_screen","null","null","","","critical","c","d","t","240","164","160.6713","232.8713","164","240","spektor","0.05","h","164","240","240","164","160.6713","232.8713","39360","39360","37415.7294","td","null","null","null","null","null","null","[3,2]","","",""
"","canvas-keyboard-response","132","216187","0.0-6.0-0.18","542","","","","","pre trial waiting period","null","null","","","catch","l","sw","sh","186","286","143","181","179","191","spektor","null","null","null","null","null","null","null","null","null","null","null","","180","200","260","200","36000","52000","[1,2]","461.91167594079366","154.94574487012883","493.5207593701374"
"","canvas-keyboard-response","133","216202","0.0-6.0-1.18","542","","","","","clear_screen","null","null","","","catch","l","sw","sh","186","286","143","181","179","191","spektor","null","null","null","null","null","null","null","null","null","null","null","","180","200","260","200","36000","52000","[1,2]","461.91167594079366","154.94574487012883","493.5207593701374"
"","canvas-keyboard-response","134","216709","0.0-6.0-2.18","542","","","","","rectangles no change","null","null","","","catch","l","sw","sh","186","286","143","181","179","191","spektor","null","null","null","null","null","null","null","null","null","null","null","","180","200","260","200","36000","52000","[1,2]","461.91167594079366","154.94574487012883","493.5207593701374"
"","canvas-keyboard-response","135","218046","0.0-6.0-3.18","542","","","","","rectangles with change","null","null","","","catch","l","sw","sh","186","286","143","181","179","191","spektor","null","null","null","null","null","null","null","null","null","null","null","","180","200","260","200","36000","52000","[1,2]","461.91167594079366","154.94574487012883","493.5207593701374"
"","canvas-keyboard-response","136","218064","0.0-6.0-4.18","542","","","","","clear_screen","null","null","","","catch","l","sw","sh","186","286","143","181","179","191","spektor","null","null","null","null","null","null","null","null","null","null","null","","180","200","260","200","36000","52000","[1,2]","461.91167594079366","154.94574487012883","493.5207593701374"
"","canvas-keyboard-response","137","218609","0.0-6.0-5.18","542","","","","","make choice","538","1","","","catch","l","sw","sh","186","286","143","181","179","191","spektor","null","null","null","null","null","null","null","null","null","null","null","","180","200","260","200","36000","52000","[1,2]","","",""
"","canvas-keyboard-response","138","218625","0.0-6.0-6.18","542","","","","","clear_screen","null","null","","","catch","l","sw","sh","186","286","143","181","179","191","spektor","null","null","null","null","null","null","null","null","null","null","null","","180","200","260","200","36000","52000","[1,2]","","",""
"","canvas-keyboard-response","139","218826","0.0-6.0-0.19","542","","","","","pre trial waiting period","null","null","","","critical","t","d","c","240","164","237.1485","162.6685","164","240","spektor","0.02","w","240","164","164","240","237.1485","162.6685","39360","39360","38576.5967","dc","null","null","null","null","null","null","[2,3]","510.48756804436766","217.13918923097188","465.42917029236446"
"","canvas-keyboard-response","140","218850","0.0-6.0-1.19","542","","","","","clear_screen","null","null","","","critical","t","d","c","240","164","237.1485","162.6685","164","240","spektor","0.02","w","240","164","164","240","237.1485","162.6685","39360","39360","38576.5967","dc","null","null","null","null","null","null","[2,3]","510.48756804436766","217.13918923097188","465.42917029236446"
"","canvas-keyboard-response","141","219358","0.0-6.0-2.19","542","","","","","rectangles no change","null","null","","","critical","t","d","c","240","164","237.1485","162.6685","164","240","spektor","0.02","w","240","164","164","240","237.1485","162.6685","39360","39360","38576.5967","dc","null","null","null","null","null","null","[2,3]","510.48756804436766","217.13918923097188","465.42917029236446"
"","canvas-keyboard-response","142","220694","0.0-6.0-3.19","542","","","","","rectangles with change","null","null","","","critical","t","d","c","240","164","237.1485","162.6685","164","240","spektor","0.02","w","240","164","164","240","237.1485","162.6685","39360","39360","38576.5967","dc","null","null","null","null","null","null","[2,3]","510.48756804436766","217.13918923097188","465.42917029236446"
"","canvas-keyboard-response","143","220716","0.0-6.0-4.19","542","","","","","clear_screen","null","null","","","critical","t","d","c","240","164","237.1485","162.6685","164","240","spektor","0.02","w","240","164","164","240","237.1485","162.6685","39360","39360","38576.5967","dc","null","null","null","null","null","null","[2,3]","510.48756804436766","217.13918923097188","465.42917029236446"
"","canvas-keyboard-response","144","221215","0.0-6.0-5.19","542","","","","","make choice","493","2","","","critical","t","d","c","240","164","237.1485","162.6685","164","240","spektor","0.02","w","240","164","164","240","237.1485","162.6685","39360","39360","38576.5967","dc","null","null","null","null","null","null","[2,3]","","",""
"","canvas-keyboard-response","145","221229","0.0-6.0-6.19","542","","","","","clear_screen","null","null","","","critical","t","d","c","240","164","237.1485","162.6685","164","240","spektor","0.02","w","240","164","164","240","237.1485","162.6685","39360","39360","38576.5967","dc","null","null","null","null","null","null","[2,3]","","",""
"","canvas-keyboard-response","146","221431","0.0-6.0-0.20","542","","","","","pre trial waiting period","null","null","","","critical","d","t","c","164","240","164","240","240","164","spektor","0","h","164","240","240","164","164","240","39360","39360","39360","td","null","null","null","null","null","null","[2,1]","472.5874179393381","110.34316253038773","521.8176146224672"
"","canvas-keyboard-response","147","221448","0.0-6.0-1.20","542","","","","","clear_screen","null","null","","","critical","d","t","c","164","240","164","240","240","164","spektor","0","h","164","240","240","164","164","240","39360","39360","39360","td","null","null","null","null","null","null","[2,1]","472.5874179393381","110.34316253038773","521.8176146224672"
"","canvas-keyboard-response","148","221956","0.0-6.0-2.20","542","","","","","rectangles no change","null","null","","","critical","d","t","c","164","240","164","240","240","164","spektor","0","h","164","240","240","164","164","240","39360","39360","39360","td","null","null","null","null","null","null","[2,1]","472.5874179393381","110.34316253038773","521.8176146224672"
"","canvas-keyboard-response","149","223296","0.0-6.0-3.20","542","","","","","rectangles with change","null","null","","","critical","d","t","c","164","240","164","240","240","164","spektor","0","h","164","240","240","164","164","240","39360","39360","39360","td","null","null","null","null","null","null","[2,1]","472.5874179393381","110.34316253038773","521.8176146224672"
"","canvas-keyboard-response","150","223317","0.0-6.0-4.20","542","","","","","clear_screen","null","null","","","critical","d","t","c","164","240","164","240","240","164","spektor","0","h","164","240","240","164","164","240","39360","39360","39360","td","null","null","null","null","null","null","[2,1]","472.5874179393381","110.34316253038773","521.8176146224672"
"","canvas-keyboard-response","151","224033","0.0-6.0-5.20","542","","","","","make choice","710","2","","","critical","d","t","c","164","240","164","240","240","164","spektor","0","h","164","240","240","164","164","240","39360","39360","39360","td","null","null","null","null","null","null","[2,1]","","",""
"","canvas-keyboard-response","152","224052","0.0-6.0-6.20","542","","","","","clear_screen","null","null","","","critical","d","t","c","164","240","164","240","240","164","spektor","0","h","164","240","240","164","164","240","39360","39360","39360","td","null","null","null","null","null","null","[2,1]","","",""
"","canvas-keyboard-response","153","224253","0.0-6.0-0.21","542","","","","","pre trial waiting period","null","null","","","critical","t","c","d","164","240","240","164","154.6796","220.0396","trueblood","0.14","h","164","240","240","164","154.6796","220.0396","39360","39360","34035.6388","dc","null","null","null","null","null","null","[3,2]","436.25155255833846","490.72203907398574","457.93114803893803"
"","canvas-keyboard-response","154","224275","0.0-6.0-1.21","542","","","","","clear_screen","null","null","","","critical","t","c","d","164","240","240","164","154.6796","220.0396","trueblood","0.14","h","164","240","240","164","154.6796","220.0396","39360","39360","34035.6388","dc","null","null","null","null","null","null","[3,2]","436.25155255833846","490.72203907398574","457.93114803893803"
"","canvas-keyboard-response","155","224782","0.0-6.0-2.21","542","","","","","rectangles no change","null","null","","","critical","t","c","d","164","240","240","164","154.6796","220.0396","trueblood","0.14","h","164","240","240","164","154.6796","220.0396","39360","39360","34035.6388","dc","null","null","null","null","null","null","[3,2]","436.25155255833846","490.72203907398574","457.93114803893803"
"","canvas-keyboard-response","156","226122","0.0-6.0-3.21","542","","","","","rectangles with change","null","null","","","critical","t","c","d","164","240","240","164","154.6796","220.0396","trueblood","0.14","h","164","240","240","164","154.6796","220.0396","39360","39360","34035.6388","dc","null","null","null","null","null","null","[3,2]","436.25155255833846","490.72203907398574","457.93114803893803"
"","canvas-keyboard-response","157","226144","0.0-6.0-4.21","542","","","","","clear_screen","null","null","","","critical","t","c","d","164","240","240","164","154.6796","220.0396","trueblood","0.14","h","164","240","240","164","154.6796","220.0396","39360","39360","34035.6388","dc","null","null","null","null","null","null","[3,2]","436.25155255833846","490.72203907398574","457.93114803893803"
"","canvas-keyboard-response","158","226824","0.0-6.0-5.21","542","","","","","make choice","673","2","","","critical","t","c","d","164","240","240","164","154.6796","220.0396","trueblood","0.14","h","164","240","240","164","154.6796","220.0396","39360","39360","34035.6388","dc","null","null","null","null","null","null","[3,2]","","",""
"","canvas-keyboard-response","159","226843","0.0-6.0-6.21","542","","","","","clear_screen","null","null","","","critical","t","c","d","164","240","240","164","154.6796","220.0396","trueblood","0.14","h","164","240","240","164","154.6796","220.0396","39360","39360","34035.6388","dc","null","null","null","null","null","null","[3,2]","","",""
"","canvas-keyboard-response","160","227045","0.0-6.0-0.22","542","","","","","pre trial waiting period","null","null","","","catch","sh","l","sw","239","144","243","173","183","209","trueblood","null","null","null","null","null","null","null","null","null","null","null","","180","200","260","200","36000","52000","[1,2]","530.3623619581824","472.48012676469386","479.86016282322487"
"","canvas-keyboard-response","161","227067","0.0-6.0-1.22","542","","","","","clear_screen","null","null","","","catch","sh","l","sw","239","144","243","173","183","209","trueblood","null","null","null","null","null","null","null","null","null","null","null","","180","200","260","200","36000","52000","[1,2]","530.3623619581824","472.48012676469386","479.86016282322487"
"","canvas-keyboard-response","162","227573","0.0-6.0-2.22","542","","","","","rectangles no change","null","null","","","catch","sh","l","sw","239","144","243","173","183","209","trueblood","null","null","null","null","null","null","null","null","null","null","null","","180","200","260","200","36000","52000","[1,2]","530.3623619581824","472.48012676469386","479.86016282322487"
"","canvas-keyboard-response","163","228913","0.0-6.0-3.22","542","","","","","rectangles with change","null","null","","","catch","sh","l","sw","239","144","243","173","183","209","trueblood","null","null","null","null","null","null","null","null","null","null","null","","180","200","260","200","36000","52000","[1,2]","530.3623619581824","472.48012676469386","479.86016282322487"
"","canvas-keyboard-response","164","228935","0.0-6.0-4.22","542","","","","","clear_screen","null","null","","","catch","sh","l","sw","239","144","243","173","183","209","trueblood","null","null","null","null","null","null","null","null","null","null","null","","180","200","260","200","36000","52000","[1,2]","530.3623619581824","472.48012676469386","479.86016282322487"
"","canvas-keyboard-response","165","229545","0.0-6.0-5.22","542","","","","","make choice","603","1","","","catch","sh","l","sw","239","144","243","173","183","209","trueblood","null","null","null","null","null","null","null","null","null","null","null","","180","200","260","200","36000","52000","[1,2]","","",""
"","canvas-keyboard-response","166","229562","0.0-6.0-6.22","542","","","","","clear_screen","null","null","","","catch","sh","l","sw","239","144","243","173","183","209","trueblood","null","null","null","null","null","null","null","null","null","null","null","","180","200","260","200","36000","52000","[1,2]","","",""
"","canvas-keyboard-response","167","229764","0.0-6.0-0.23","542","","","","","pre trial waiting period","null","null","","","catch","sh","l","sw","238","216","183","226","175","220","trueblood","null","null","null","null","null","null","null","null","null","null","null","","180","200","260","200","36000","52000","[2,3]","455.69895583313007","468.2669686974617","461.89957221854917"
"","canvas-keyboard-response","168","229783","0.0-6.0-1.23","542","","","","","clear_screen","null","null","","","catch","sh","l","sw","238","216","183","226","175","220","trueblood","null","null","null","null","null","null","null","null","null","null","null","","180","200","260","200","36000","52000","[2,3]","455.69895583313007","468.2669686974617","461.89957221854917"
"","canvas-keyboard-response","169","230291","0.0-6.0-2.23","542","","","","","rectangles no change","null","null","","","catch","sh","l","sw","238","216","183","226","175","220","trueblood","null","null","null","null","null","null","null","null","null","null","null","","180","200","260","200","36000","52000","[2,3]","455.69895583313007","468.2669686974617","461.89957221854917"
"","canvas-keyboard-response","170","231629","0.0-6.0-3.23","542","","","","","rectangles with change","null","null","","","catch","sh","l","sw","238","216","183","226","175","220","trueblood","null","null","null","null","null","null","null","null","null","null","null","","180","200","260","200","36000","52000","[2,3]","455.69895583313007","468.2669686974617","461.89957221854917"
"","canvas-keyboard-response","171","231650","0.0-6.0-4.23","542","","","","","clear_screen","null","null","","","catch","sh","l","sw","238","216","183","226","175","220","trueblood","null","null","null","null","null","null","null","null","null","null","null","","180","200","260","200","36000","52000","[2,3]","455.69895583313007","468.2669686974617","461.89957221854917"
"","canvas-keyboard-response","172","232336","0.0-6.0-5.23","542","","","","","make choice","680","2","","","catch","sh","l","sw","238","216","183","226","175","220","trueblood","null","null","null","null","null","null","null","null","null","null","null","","180","200","260","200","36000","52000","[2,3]","","",""
"","canvas-keyboard-response","173","232355","0.0-6.0-6.23","542","","","","","clear_screen","null","null","","","catch","sh","l","sw","238","216","183","226","175","220","trueblood","null","null","null","null","null","null","null","null","null","null","null","","180","200","260","200","36000","52000","[2,3]","","",""
"","canvas-keyboard-response","174","232556","0.0-6.0-0.24","542","","","","","pre trial waiting period","null","null","","","catch","sw","l","sh","180","200","221","277","212","189","trueblood","null","null","null","null","null","null","null","null","null","null","null","","180","200","260","200","36000","52000","[1,2]","491.2107279173609","443.6523228623029","472.9244874470292"
"","canvas-keyboard-response","175","232575","0.0-6.0-1.24","542","","","","","clear_screen","null","null","","","catch","sw","l","sh","180","200","221","277","212","189","trueblood","null","null","null","null","null","null","null","null","null","null","null","","180","200","260","200","36000","52000","[1,2]","491.2107279173609","443.6523228623029","472.9244874470292"
"","canvas-keyboard-response","176","233087","0.0-6.0-2.24","542","","","","","rectangles no change","null","null","","","catch","sw","l","sh","180","200","221","277","212","189","trueblood","null","null","null","null","null","null","null","null","null","null","null","","180","200","260","200","36000","52000","[1,2]","491.2107279173609","443.6523228623029","472.9244874470292"
"","canvas-keyboard-response","177","234426","0.0-6.0-3.24","542","","","","","rectangles with change","null","null","","","catch","sw","l","sh","180","200","221","277","212","189","trueblood","null","null","null","null","null","null","null","null","null","null","null","","180","200","260","200","36000","52000","[1,2]","491.2107279173609","443.6523228623029","472.9244874470292"
"","canvas-keyboard-response","178","234445","0.0-6.0-4.24","542","","","","","clear_screen","null","null","","","catch","sw","l","sh","180","200","221","277","212","189","trueblood","null","null","null","null","null","null","null","null","null","null","null","","180","200","260","200","36000","52000","[1,2]","491.2107279173609","443.6523228623029","472.9244874470292"
"","canvas-keyboard-response","179","234967","0.0-6.0-5.24","542","","","","","make choice","516","2","","","catch","sw","l","sh","180","200","221","277","212","189","trueblood","null","null","null","null","null","null","null","null","null","null","null","","180","200","260","200","36000","52000","[1,2]","","",""
"","canvas-keyboard-response","180","234984","0.0-6.0-6.24","542","","","","","clear_screen","null","null","","","catch","sw","l","sh","180","200","221","277","212","189","trueblood","null","null","null","null","null","null","null","null","null","null","null","","180","200","260","200","36000","52000","[1,2]","","",""
"","canvas-keyboard-response","181","235186","0.0-6.0-0.25","542","","","","","pre trial waiting period","null","null","","","critical","d","c","t","154.6796","220.0396","240","164","164","240","trueblood","0.14","h","164","240","240","164","154.6796","220.0396","39360","39360","34035.6388","tc","null","null","null","null","null","null","[3,2]","434.299412527584","509.57793093864825","446.1694360472156"
"","canvas-keyboard-response","182","235209","0.0-6.0-1.25","542","","","","","clear_screen","null","null","","","critical","d","c","t","154.6796","220.0396","240","164","164","240","trueblood","0.14","h","164","240","240","164","154.6796","220.0396","39360","39360","34035.6388","tc","null","null","null","null","null","null","[3,2]","434.299412527584","509.57793093864825","446.1694360472156"
"","canvas-keyboard-response","183","235714","0.0-6.0-2.25","542","","","","","rectangles no change","null","null","","","critical","d","c","t","154.6796","220.0396","240","164","164","240","trueblood","0.14","h","164","240","240","164","154.6796","220.0396","39360","39360","34035.6388","tc","null","null","null","null","null","null","[3,2]","434.299412527584","509.57793093864825","446.1694360472156"
"","canvas-keyboard-response","184","237049","0.0-6.0-3.25","542","","","","","rectangles with change","null","null","","","critical","d","c","t","154.6796","220.0396","240","164","164","240","trueblood","0.14","h","164","240","240","164","154.6796","220.0396","39360","39360","34035.6388","tc","null","null","null","null","null","null","[3,2]","434.299412527584","509.57793093864825","446.1694360472156"
"","canvas-keyboard-response","185","237070","0.0-6.0-4.25","542","","","","","clear_screen","null","null","","","critical","d","c","t","154.6796","220.0396","240","164","164","240","trueblood","0.14","h","164","240","240","164","154.6796","220.0396","39360","39360","34035.6388","tc","null","null","null","null","null","null","[3,2]","434.299412527584","509.57793093864825","446.1694360472156"
"","canvas-keyboard-response","186","237592","0.0-6.0-5.25","542","","","","","make choice","516","2","","","critical","d","c","t","154.6796","220.0396","240","164","164","240","trueblood","0.14","h","164","240","240","164","154.6796","220.0396","39360","39360","34035.6388","tc","null","null","null","null","null","null","[3,2]","","",""
"","canvas-keyboard-response","187","237612","0.0-6.0-6.25","542","","","","","clear_screen","null","null","","","critical","d","c","t","154.6796","220.0396","240","164","164","240","trueblood","0.14","h","164","240","240","164","154.6796","220.0396","39360","39360","34035.6388","tc","null","null","null","null","null","null","[3,2]","","",""
"","canvas-keyboard-response","188","237813","0.0-6.0-0.26","542","","","","","pre trial waiting period","null","null","","","critical","d","c","t","162.6685","237.1485","240","164","164","240","trueblood","0.02","h","164","240","240","164","162.6685","237.1485","39360","39360","38576.5967","td","null","null","null","null","null","null","[3,1]","459.66730667279535","504.79526542380006","448.76612251945124"
"","canvas-keyboard-response","189","237837","0.0-6.0-1.26","542","","","","","clear_screen","null","null","","","critical","d","c","t","162.6685","237.1485","240","164","164","240","trueblood","0.02","h","164","240","240","164","162.6685","237.1485","39360","39360","38576.5967","td","null","null","null","null","null","null","[3,1]","459.66730667279535","504.79526542380006","448.76612251945124"
"","canvas-keyboard-response","190","238344","0.0-6.0-2.26","542","","","","","rectangles no change","null","null","","","critical","d","c","t","162.6685","237.1485","240","164","164","240","trueblood","0.02","h","164","240","240","164","162.6685","237.1485","39360","39360","38576.5967","td","null","null","null","null","null","null","[3,1]","459.66730667279535","504.79526542380006","448.76612251945124"
"","canvas-keyboard-response","191","239680","0.0-6.0-3.26","542","","","","","rectangles with change","null","null","","","critical","d","c","t","162.6685","237.1485","240","164","164","240","trueblood","0.02","h","164","240","240","164","162.6685","237.1485","39360","39360","38576.5967","td","null","null","null","null","null","null","[3,1]","459.66730667279535","504.79526542380006","448.76612251945124"
"","canvas-keyboard-response","192","239699","0.0-6.0-4.26","542","","","","","clear_screen","null","null","","","critical","d","c","t","162.6685","237.1485","240","164","164","240","trueblood","0.02","h","164","240","240","164","162.6685","237.1485","39360","39360","38576.5967","td","null","null","null","null","null","null","[3,1]","459.66730667279535","504.79526542380006","448.76612251945124"
"","canvas-keyboard-response","193","240432","0.0-6.0-5.26","542","","","","","make choice","727","3","","","critical","d","c","t","162.6685","237.1485","240","164","164","240","trueblood","0.02","h","164","240","240","164","162.6685","237.1485","39360","39360","38576.5967","td","null","null","null","null","null","null","[3,1]","","",""
"","canvas-keyboard-response","194","240452","0.0-6.0-6.26","542","","","","","clear_screen","null","null","","","critical","d","c","t","162.6685","237.1485","240","164","164","240","trueblood","0.02","h","164","240","240","164","162.6685","237.1485","39360","39360","38576.5967","td","null","null","null","null","null","null","[3,1]","","",""
"","canvas-keyboard-response","195","240652","0.0-6.0-0.27","542","","","","","pre trial waiting period","null","null","","","catch","l","sh","sw","281","189","193","143","212","178","spektor","null","null","null","null","null","null","null","null","null","null","null","","180","200","260","200","36000","52000","[1,3]","520.9126522920749","218.52308129138558","500.43537174835444"
"","canvas-keyboard-response","196","240672","0.0-6.0-1.27","542","","","","","clear_screen","null","null","","","catch","l","sh","sw","281","189","193","143","212","178","spektor","null","null","null","null","null","null","null","null","null","null","null","","180","200","260","200","36000","52000","[1,3]","520.9126522920749","218.52308129138558","500.43537174835444"
"","canvas-keyboard-response","197","241178","0.0-6.0-2.27","542","","","","","rectangles no change","null","null","","","catch","l","sh","sw","281","189","193","143","212","178","spektor","null","null","null","null","null","null","null","null","null","null","null","","180","200","260","200","36000","52000","[1,3]","520.9126522920749","218.52308129138558","500.43537174835444"
"","canvas-keyboard-response","198","242514","0.0-6.0-3.27","542","","","","","rectangles with change","null","null","","","catch","l","sh","sw","281","189","193","143","212","178","spektor","null","null","null","null","null","null","null","null","null","null","null","","180","200","260","200","36000","52000","[1,3]","520.9126522920749","218.52308129138558","500.43537174835444"
"","canvas-keyboard-response","199","242535","0.0-6.0-4.27","542","","","","","clear_screen","null","null","","","catch","l","sh","sw","281","189","193","143","212","178","spektor","null","null","null","null","null","null","null","null","null","null","null","","180","200","260","200","36000","52000","[1,3]","520.9126522920749","218.52308129138558","500.43537174835444"
"","canvas-keyboard-response","200","243064","0.0-6.0-5.27","542","","","","","make choice","518","1","","","catch","l","sh","sw","281","189","193","143","212","178","spektor","null","null","null","null","null","null","null","null","null","null","null","","180","200","260","200","36000","52000","[1,3]","","",""
"","canvas-keyboard-response","201","243082","0.0-6.0-6.27","542","","","","","clear_screen","null","null","","","catch","l","sh","sw","281","189","193","143","212","178","spektor","null","null","null","null","null","null","null","null","null","null","null","","180","200","260","200","36000","52000","[1,3]","","",""
"","canvas-keyboard-response","202","243283","0.0-6.0-0.28","542","","","","","pre trial waiting period","null","null","","","critical","d","t","c","158.0083","227.1683","164","240","240","164","spektor","0.09","h","164","240","240","164","158.0083","227.1683","39360","39360","35894.4834","dc","null","null","null","null","null","null","[1,3]","479.7835703383682","142.28635638462825","495.75329843897407"
"","canvas-keyboard-response","203","243302","0.0-6.0-1.28","542","","","","","clear_screen","null","null","","","critical","d","t","c","158.0083","227.1683","164","240","240","164","spektor","0.09","h","164","240","240","164","158.0083","227.1683","39360","39360","35894.4834","dc","null","null","null","null","null","null","[1,3]","479.7835703383682","142.28635638462825","495.75329843897407"
"","canvas-keyboard-response","204","243810","0.0-6.0-2.28","542","","","","","rectangles no change","null","null","","","critical","d","t","c","158.0083","227.1683","164","240","240","164","spektor","0.09","h","164","240","240","164","158.0083","227.1683","39360","39360","35894.4834","dc","null","null","null","null","null","null","[1,3]","479.7835703383682","142.28635638462825","495.75329843897407"
"","canvas-keyboard-response","205","245144","0.0-6.0-3.28","542","","","","","rectangles with change","null","null","","","critical","d","t","c","158.0083","227.1683","164","240","240","164","spektor","0.09","h","164","240","240","164","158.0083","227.1683","39360","39360","35894.4834","dc","null","null","null","null","null","null","[1,3]","479.7835703383682","142.28635638462825","495.75329843897407"
"","canvas-keyboard-response","206","245165","0.0-6.0-4.28","542","","","","","clear_screen","null","null","","","critical","d","t","c","158.0083","227.1683","164","240","240","164","spektor","0.09","h","164","240","240","164","158.0083","227.1683","39360","39360","35894.4834","dc","null","null","null","null","null","null","[1,3]","479.7835703383682","142.28635638462825","495.75329843897407"
"","canvas-keyboard-response","207","245720","0.0-6.0-5.28","542","","","","","make choice","550","3","","","critical","d","t","c","158.0083","227.1683","164","240","240","164","spektor","0.09","h","164","240","240","164","158.0083","227.1683","39360","39360","35894.4834","dc","null","null","null","null","null","null","[1,3]","","",""
"","canvas-keyboard-response","208","245738","0.0-6.0-6.28","542","","","","","clear_screen","null","null","","","critical","d","t","c","158.0083","227.1683","164","240","240","164","spektor","0.09","h","164","240","240","164","158.0083","227.1683","39360","39360","35894.4834","dc","null","null","null","null","null","null","[1,3]","","",""
"","canvas-keyboard-response","209","245938","0.0-6.0-0.29","542","","","","","pre trial waiting period","null","null","","","critical","t","d","c","164","240","162.6685","237.1485","240","164","spektor","0.02","h","164","240","240","164","162.6685","237.1485","39360","39360","38576.5967","dc","null","null","null","null","null","null","[2,3]","458.9052817988056","130.25123056307274","521.232560831123"
"","canvas-keyboard-response","210","245961","0.0-6.0-1.29","542","","","","","clear_screen","null","null","","","critical","t","d","c","164","240","162.6685","237.1485","240","164","spektor","0.02","h","164","240","240","164","162.6685","237.1485","39360","39360","38576.5967","dc","null","null","null","null","null","null","[2,3]","458.9052817988056","130.25123056307274","521.232560831123"
"","canvas-keyboard-response","211","246466","0.0-6.0-2.29","542","","","","","rectangles no change","null","null","","","critical","t","d","c","164","240","162.6685","237.1485","240","164","spektor","0.02","h","164","240","240","164","162.6685","237.1485","39360","39360","38576.5967","dc","null","null","null","null","null","null","[2,3]","458.9052817988056","130.25123056307274","521.232560831123"
"","canvas-keyboard-response","212","247802","0.0-6.0-3.29","542","","","","","rectangles with change","null","null","","","critical","t","d","c","164","240","162.6685","237.1485","240","164","spektor","0.02","h","164","240","240","164","162.6685","237.1485","39360","39360","38576.5967","dc","null","null","null","null","null","null","[2,3]","458.9052817988056","130.25123056307274","521.232560831123"
"","canvas-keyboard-response","213","247823","0.0-6.0-4.29","542","","","","","clear_screen","null","null","","","critical","t","d","c","164","240","162.6685","237.1485","240","164","spektor","0.02","h","164","240","240","164","162.6685","237.1485","39360","39360","38576.5967","dc","null","null","null","null","null","null","[2,3]","458.9052817988056","130.25123056307274","521.232560831123"
"","canvas-keyboard-response","214","248360","0.0-6.0-5.29","542","","","","","make choice","532","3","","","critical","t","d","c","164","240","162.6685","237.1485","240","164","spektor","0.02","h","164","240","240","164","162.6685","237.1485","39360","39360","38576.5967","dc","null","null","null","null","null","null","[2,3]","","",""
"","canvas-keyboard-response","215","248378","0.0-6.0-6.29","542","","","","","clear_screen","null","null","","","critical","t","d","c","164","240","162.6685","237.1485","240","164","spektor","0.02","h","164","240","240","164","162.6685","237.1485","39360","39360","38576.5967","dc","null","null","null","null","null","null","[2,3]","","",""
"","canvas-keyboard-response","216","248579","0.0-6.0-0.30","542","","","","","pre trial waiting period","null","null","","","critical","d","t","c","240","164","240","164","164","240","trueblood","0","w","240","164","164","240","240","164","39360","39360","39360","dc","null","null","null","null","null","null","[1,3]","484.53346938887495","482.69765760343074","463.7610750286516"
"","canvas-keyboard-response","217","248600","0.0-6.0-1.30","542","","","","","clear_screen","null","null","","","critical","d","t","c","240","164","240","164","164","240","trueblood","0","w","240","164","164","240","240","164","39360","39360","39360","dc","null","null","null","null","null","null","[1,3]","484.53346938887495","482.69765760343074","463.7610750286516"
"","canvas-keyboard-response","218","249107","0.0-6.0-2.30","542","","","","","rectangles no change","null","null","","","critical","d","t","c","240","164","240","164","164","240","trueblood","0","w","240","164","164","240","240","164","39360","39360","39360","dc","null","null","null","null","null","null","[1,3]","484.53346938887495","482.69765760343074","463.7610750286516"
"","canvas-keyboard-response","219","250444","0.0-6.0-3.30","542","","","","","rectangles with change","null","null","","","critical","d","t","c","240","164","240","164","164","240","trueblood","0","w","240","164","164","240","240","164","39360","39360","39360","dc","null","null","null","null","null","null","[1,3]","484.53346938887495","482.69765760343074","463.7610750286516"
"","canvas-keyboard-response","220","250462","0.0-6.0-4.30","542","","","","","clear_screen","null","null","","","critical","d","t","c","240","164","240","164","164","240","trueblood","0","w","240","164","164","240","240","164","39360","39360","39360","dc","null","null","null","null","null","null","[1,3]","484.53346938887495","482.69765760343074","463.7610750286516"
"","canvas-keyboard-response","221","252049","0.0-6.0-5.30","542","","","","","make choice","1583","3","","","critical","d","t","c","240","164","240","164","164","240","trueblood","0","w","240","164","164","240","240","164","39360","39360","39360","dc","null","null","null","null","null","null","[1,3]","","",""
"","canvas-keyboard-response","222","252067","0.0-6.0-6.30","542","","","","","clear_screen","null","null","","","critical","d","t","c","240","164","240","164","164","240","trueblood","0","w","240","164","164","240","240","164","39360","39360","39360","dc","null","null","null","null","null","null","[1,3]","","",""
"","canvas-keyboard-response","223","252268","0.0-6.0-0.31","542","","","","","pre trial waiting period","null","null","","","critical","c","d","t","164","240","240","164","240","164","trueblood","0","w","240","164","164","240","240","164","39360","39360","39360","tc","null","null","null","null","null","null","[3,1]","428.20519236505163","498.96882660037863","484.7821858993321"
"","canvas-keyboard-response","224","252287","0.0-6.0-1.31","542","","","","","clear_screen","null","null","","","critical","c","d","t","164","240","240","164","240","164","trueblood","0","w","240","164","164","240","240","164","39360","39360","39360","tc","null","null","null","null","null","null","[3,1]","428.20519236505163","498.96882660037863","484.7821858993321"
"","canvas-keyboard-response","225","252800","0.0-6.0-2.31","542","","","","","rectangles no change","null","null","","","critical","c","d","t","164","240","240","164","240","164","trueblood","0","w","240","164","164","240","240","164","39360","39360","39360","tc","null","null","null","null","null","null","[3,1]","428.20519236505163","498.96882660037863","484.7821858993321"
"","canvas-keyboard-response","226","254135","0.0-6.0-3.31","542","","","","","rectangles with change","null","null","","","critical","c","d","t","164","240","240","164","240","164","trueblood","0","w","240","164","164","240","240","164","39360","39360","39360","tc","null","null","null","null","null","null","[3,1]","428.20519236505163","498.96882660037863","484.7821858993321"
"","canvas-keyboard-response","227","254157","0.0-6.0-4.31","542","","","","","clear_screen","null","null","","","critical","c","d","t","164","240","240","164","240","164","trueblood","0","w","240","164","164","240","240","164","39360","39360","39360","tc","null","null","null","null","null","null","[3,1]","428.20519236505163","498.96882660037863","484.7821858993321"
"","canvas-keyboard-response","228","255144","0.0-6.0-5.31","542","","","","","make choice","982","3","","","critical","c","d","t","164","240","240","164","240","164","trueblood","0","w","240","164","164","240","240","164","39360","39360","39360","tc","null","null","null","null","null","null","[3,1]","","",""
"","canvas-keyboard-response","229","255161","0.0-6.0-6.31","542","","","","","clear_screen","null","null","","","critical","c","d","t","164","240","240","164","240","164","trueblood","0","w","240","164","164","240","240","164","39360","39360","39360","tc","null","null","null","null","null","null","[3,1]","","",""
"","canvas-keyboard-response","230","255362","0.0-6.0-0.32","542","","","","","pre trial waiting period","null","null","","","catch","l","sw","sh","274","164","141","211","204","213","trueblood","null","null","null","null","null","null","null","null","null","null","null","","180","200","260","200","36000","52000","[1,2]","511.02563499881546","480.9045463873459","469.09738289156115"
"","canvas-keyboard-response","231","255379","0.0-6.0-1.32","542","","","","","clear_screen","null","null","","","catch","l","sw","sh","274","164","141","211","204","213","trueblood","null","null","null","null","null","null","null","null","null","null","null","","180","200","260","200","36000","52000","[1,2]","511.02563499881546","480.9045463873459","469.09738289156115"
"","canvas-keyboard-response","232","255885","0.0-6.0-2.32","542","","","","","rectangles no change","null","null","","","catch","l","sw","sh","274","164","141","211","204","213","trueblood","null","null","null","null","null","null","null","null","null","null","null","","180","200","260","200","36000","52000","[1,2]","511.02563499881546","480.9045463873459","469.09738289156115"
"","canvas-keyboard-response","233","257221","0.0-6.0-3.32","542","","","","","rectangles with change","null","null","","","catch","l","sw","sh","274","164","141","211","204","213","trueblood","null","null","null","null","null","null","null","null","null","null","null","","180","200","260","200","36000","52000","[1,2]","511.02563499881546","480.9045463873459","469.09738289156115"
"","canvas-keyboard-response","234","257243","0.0-6.0-4.32","542","","","","","clear_screen","null","null","","","catch","l","sw","sh","274","164","141","211","204","213","trueblood","null","null","null","null","null","null","null","null","null","null","null","","180","200","260","200","36000","52000","[1,2]","511.02563499881546","480.9045463873459","469.09738289156115"
"","canvas-keyboard-response","235","258464","0.0-6.0-5.32","542","","","","","make choice","1215","1","","","catch","l","sw","sh","274","164","141","211","204","213","trueblood","null","null","null","null","null","null","null","null","null","null","null","","180","200","260","200","36000","52000","[1,2]","","",""
"","canvas-keyboard-response","236","258481","0.0-6.0-6.32","542","","","","","clear_screen","null","null","","","catch","l","sw","sh","274","164","141","211","204","213","trueblood","null","null","null","null","null","null","null","null","null","null","null","","180","200","260","200","36000","52000","[1,2]","","",""
"","canvas-keyboard-response","237","258682","0.0-6.0-0.33","542","","","","","pre trial waiting period","null","null","","","critical","d","c","t","160.6713","232.8713","240","164","164","240","spektor","0.05","h","164","240","240","164","160.6713","232.8713","39360","39360","37415.7294","dc","null","null","null","null","null","null","[1,2]","470.29011289704465","173.73665312296876","501.77714894155326"
"","canvas-keyboard-response","238","258704","0.0-6.0-1.33","542","","","","","clear_screen","null","null","","","critical","d","c","t","160.6713","232.8713","240","164","164","240","spektor","0.05","h","164","240","240","164","160.6713","232.8713","39360","39360","37415.7294","dc","null","null","null","null","null","null","[1,2]","470.29011289704465","173.73665312296876","501.77714894155326"
"","canvas-keyboard-response","239","259209","0.0-6.0-2.33","542","","","","","rectangles no change","null","null","","","critical","d","c","t","160.6713","232.8713","240","164","164","240","spektor","0.05","h","164","240","240","164","160.6713","232.8713","39360","39360","37415.7294","dc","null","null","null","null","null","null","[1,2]","470.29011289704465","173.73665312296876","501.77714894155326"
"","canvas-keyboard-response","240","260549","0.0-6.0-3.33","542","","","","","rectangles with change","null","null","","","critical","d","c","t","160.6713","232.8713","240","164","164","240","spektor","0.05","h","164","240","240","164","160.6713","232.8713","39360","39360","37415.7294","dc","null","null","null","null","null","null","[1,2]","470.29011289704465","173.73665312296876","501.77714894155326"
"","canvas-keyboard-response","241","260569","0.0-6.0-4.33","542","","","","","clear_screen","null","null","","","critical","d","c","t","160.6713","232.8713","240","164","164","240","spektor","0.05","h","164","240","240","164","160.6713","232.8713","39360","39360","37415.7294","dc","null","null","null","null","null","null","[1,2]","470.29011289704465","173.73665312296876","501.77714894155326"
"","canvas-keyboard-response","242","260992","0.0-6.0-5.33","542","","","","","make choice","420","2","","","critical","d","c","t","160.6713","232.8713","240","164","164","240","spektor","0.05","h","164","240","240","164","160.6713","232.8713","39360","39360","37415.7294","dc","null","null","null","null","null","null","[1,2]","","",""
"","canvas-keyboard-response","243","261011","0.0-6.0-6.33","542","","","","","clear_screen","null","null","","","critical","d","c","t","160.6713","232.8713","240","164","164","240","spektor","0.05","h","164","240","240","164","160.6713","232.8713","39360","39360","37415.7294","dc","null","null","null","null","null","null","[1,2]","","",""
"","canvas-keyboard-response","244","261212","0.0-6.0-0.34","542","","","","","pre trial waiting period","null","null","","","catch","sh","l","sw","180","215","207","271","195","184","spektor","null","null","null","null","null","null","null","null","null","null","null","","180","200","260","200","36000","52000","[1,2]","486.4382907631183","109.66716030086778","522.7416509624343"
"","canvas-keyboard-response","245","261231","0.0-6.0-1.34","542","","","","","clear_screen","null","null","","","catch","sh","l","sw","180","215","207","271","195","184","spektor","null","null","null","null","null","null","null","null","null","null","null","","180","200","260","200","36000","52000","[1,2]","486.4382907631183","109.66716030086778","522.7416509624343"
"","canvas-keyboard-response","246","261738","0.0-6.0-2.34","542","","","","","rectangles no change","null","null","","","catch","sh","l","sw","180","215","207","271","195","184","spektor","null","null","null","null","null","null","null","null","null","null","null","","180","200","260","200","36000","52000","[1,2]","486.4382907631183","109.66716030086778","522.7416509624343"
"","canvas-keyboard-response","247","263074","0.0-6.0-3.34","542","","","","","rectangles with change","null","null","","","catch","sh","l","sw","180","215","207","271","195","184","spektor","null","null","null","null","null","null","null","null","null","null","null","","180","200","260","200","36000","52000","[1,2]","486.4382907631183","109.66716030086778","522.7416509624343"
"","canvas-keyboard-response","248","263097","0.0-6.0-4.34","542","","","","","clear_screen","null","null","","","catch","sh","l","sw","180","215","207","271","195","184","spektor","null","null","null","null","null","null","null","null","null","null","null","","180","200","260","200","36000","52000","[1,2]","486.4382907631183","109.66716030086778","522.7416509624343"
"","canvas-keyboard-response","249","263648","0.0-6.0-5.34","542","","","","","make choice","544","2","","","catch","sh","l","sw","180","215","207","271","195","184","spektor","null","null","null","null","null","null","null","null","null","null","null","","180","200","260","200","36000","52000","[1,2]","","",""
"","canvas-keyboard-response","250","263666","0.0-6.0-6.34","542","","","","","clear_screen","null","null","","","catch","sh","l","sw","180","215","207","271","195","184","spektor","null","null","null","null","null","null","null","null","null","null","null","","180","200","260","200","36000","52000","[1,2]","","",""
"","canvas-keyboard-response","251","263867","0.0-6.0-0.35","542","","","","","pre trial waiting period","null","null","","","critical","d","t","c","232.8713","160.6713","240","164","164","240","trueblood","0.05","w","240","164","164","240","232.8713","160.6713","39360","39360","37415.7294","tc","null","null","null","null","null","null","[2,3]","512.1503840466833","512.8457557906709","455.9735646488204"
"","canvas-keyboard-response","252","263886","0.0-6.0-1.35","542","","","","","clear_screen","null","null","","","critical","d","t","c","232.8713","160.6713","240","164","164","240","trueblood","0.05","w","240","164","164","240","232.8713","160.6713","39360","39360","37415.7294","tc","null","null","null","null","null","null","[2,3]","512.1503840466833","512.8457557906709","455.9735646488204"
"","canvas-keyboard-response","253","264395","0.0-6.0-2.35","542","","","","","rectangles no change","null","null","","","critical","d","t","c","232.8713","160.6713","240","164","164","240","trueblood","0.05","w","240","164","164","240","232.8713","160.6713","39360","39360","37415.7294","tc","null","null","null","null","null","null","[2,3]","512.1503840466833","512.8457557906709","455.9735646488204"
"","canvas-keyboard-response","254","265726","0.0-6.0-3.35","542","","","","","rectangles with change","null","null","","","critical","d","t","c","232.8713","160.6713","240","164","164","240","trueblood","0.05","w","240","164","164","240","232.8713","160.6713","39360","39360","37415.7294","tc","null","null","null","null","null","null","[2,3]","512.1503840466833","512.8457557906709","455.9735646488204"
"","canvas-keyboard-response","255","265746","0.0-6.0-4.35","542","","","","","clear_screen","null","null","","","critical","d","t","c","232.8713","160.6713","240","164","164","240","trueblood","0.05","w","240","164","164","240","232.8713","160.6713","39360","39360","37415.7294","tc","null","null","null","null","null","null","[2,3]","512.1503840466833","512.8457557906709","455.9735646488204"
"","canvas-keyboard-response","256","267439","0.0-6.0-5.35","542","","","","","make choice","1689","2","","","critical","d","t","c","232.8713","160.6713","240","164","164","240","trueblood","0.05","w","240","164","164","240","232.8713","160.6713","39360","39360","37415.7294","tc","null","null","null","null","null","null","[2,3]","","",""
"","canvas-keyboard-response","257","267454","0.0-6.0-6.35","542","","","","","clear_screen","null","null","","","critical","d","t","c","232.8713","160.6713","240","164","164","240","trueblood","0.05","w","240","164","164","240","232.8713","160.6713","39360","39360","37415.7294","tc","null","null","null","null","null","null","[2,3]","","",""
"","canvas-keyboard-response","258","267655","0.0-6.0-0.36","542","","","","","pre trial waiting period","null","null","","","critical","c","d","t","164","240","220.0396","154.6796","240","164","spektor","0.14","w","240","164","164","240","220.0396","154.6796","39360","39360","34035.6388","dc","null","null","null","null","null","null","[2,1]","481.6113642520724","177.2527746540434","535.5961435057334"
"","canvas-keyboard-response","259","267677","0.0-6.0-1.36","542","","","","","clear_screen","null","null","","","critical","c","d","t","164","240","220.0396","154.6796","240","164","spektor","0.14","w","240","164","164","240","220.0396","154.6796","39360","39360","34035.6388","dc","null","null","null","null","null","null","[2,1]","481.6113642520724","177.2527746540434","535.5961435057334"
"","canvas-keyboard-response","260","268185","0.0-6.0-2.36","542","","","","","rectangles no change","null","null","","","critical","c","d","t","164","240","220.0396","154.6796","240","164","spektor","0.14","w","240","164","164","240","220.0396","154.6796","39360","39360","34035.6388","dc","null","null","null","null","null","null","[2,1]","481.6113642520724","177.2527746540434","535.5961435057334"
"","canvas-keyboard-response","261","269520","0.0-6.0-3.36","542","","","","","rectangles with change","null","null","","","critical","c","d","t","164","240","220.0396","154.6796","240","164","spektor","0.14","w","240","164","164","240","220.0396","154.6796","39360","39360","34035.6388","dc","null","null","null","null","null","null","[2,1]","481.6113642520724","177.2527746540434","535.5961435057334"
"","canvas-keyboard-response","262","269534","0.0-6.0-4.36","542","","","","","clear_screen","null","null","","","critical","c","d","t","164","240","220.0396","154.6796","240","164","spektor","0.14","w","240","164","164","240","220.0396","154.6796","39360","39360","34035.6388","dc","null","null","null","null","null","null","[2,1]","481.6113642520724","177.2527746540434","535.5961435057334"
"","canvas-keyboard-response","263","270392","0.0-6.0-5.36","542","","","","","make choice","854","2","","","critical","c","d","t","164","240","220.0396","154.6796","240","164","spektor","0.14","w","240","164","164","240","220.0396","154.6796","39360","39360","34035.6388","dc","null","null","null","null","null","null","[2,1]","","",""
"","canvas-keyboard-response","264","270411","0.0-6.0-6.36","542","","","","","clear_screen","null","null","","","critical","c","d","t","164","240","220.0396","154.6796","240","164","spektor","0.14","w","240","164","164","240","220.0396","154.6796","39360","39360","34035.6388","dc","null","null","null","null","null","null","[2,1]","","",""
"","canvas-keyboard-response","265","270612","0.0-6.0-0.37","542","","","","","pre trial waiting period","null","null","","","catch","sh","l","sw","186","173","283","161","143","204","spektor","null","null","null","null","null","null","null","null","null","null","null","","180","200","260","200","36000","52000","[2,3]","504.9341322004712","203.30116966680723","485.8674880232074"
"","canvas-keyboard-response","266","270631","0.0-6.0-1.37","542","","","","","clear_screen","null","null","","","catch","sh","l","sw","186","173","283","161","143","204","spektor","null","null","null","null","null","null","null","null","null","null","null","","180","200","260","200","36000","52000","[2,3]","504.9341322004712","203.30116966680723","485.8674880232074"
"","canvas-keyboard-response","267","271137","0.0-6.0-2.37","542","","","","","rectangles no change","null","null","","","catch","sh","l","sw","186","173","283","161","143","204","spektor","null","null","null","null","null","null","null","null","null","null","null","","180","200","260","200","36000","52000","[2,3]","504.9341322004712","203.30116966680723","485.8674880232074"
