"success","trial_type","trial_index","time_elapsed","internal_node_id","sub_n","timeout","failed_images","failed_audio","failed_video","screen_id","rt","response","stimulus","view_history","trial","r1","r2","r3","w1","h1","w2","h2","w3","h3","display","tdd","tdo","tw","th","cw","ch","dw","dh","ta","ca","da","probe","csls","csss","clls","clss","sa","la","probe_rects","r1yloc","r2yloc","r3yloc"
"true","fullscreen","0","3356","0.0-0.0","537","","","","","","","","","","","","","","","","","","","","","","","","","","","","","","","","","","","","","","","","","",""
"true","preload","1","3381","0.0-1.0","537","false","[]","[]","[]","img preload","","","","","","","","","","","","","","","","","","","","","","","","","","","","","","","","","","","","",""
"","survey-html-form","2","19807","0.0-2.0","537","","","","","enter-sub-number","16410","{""response"":""537""}","","","","","","","","","","","","","","","","","","","","","","","","","","","","","","","","","","",""
"","image-button-response","3","119376","0.0-3.0","537","","","","","","99464","0","consent.png","","","","","","","","","","","","","","","","","","","","","","","","","","","","","","","","","",""
"","html-button-response","4","126768","0.0-4.0","537","","","","","intro mssg","7386","0","<div style= ""font-size:25px;"" <p> <strong> Welcome! </strong><br> <p style=""color:#8B0000; font-size:25px;""><strong> Please do NOT exit full screen until you are done with the experiment. </strong> </p><p style=""font-size:25px;color:#8B0000;""> <strong> Your data will be lost <br> if you try to go back or refresh the page after the experiment starts. Feel free to click ""previous"" during the instructions, however.</strong> </p><br><p> <strong> Thanks in advance for your contribution to our research! </strong></p>","","","","","","","","","","","","","","","","","","","","","","","","","","","","","","","","","",""
"","instructions","5","175223","0.0-5.0","537","","","","","instructions","48452","","","[{""page_index"":0,""viewing_time"":31947},{""page_index"":1,""viewing_time"":2521},{""page_index"":2,""viewing_time"":1639},{""page_index"":3,""viewing_time"":7393},{""page_index"":4,""viewing_time"":1624},{""page_index"":5,""viewing_time"":1208},{""page_index"":6,""viewing_time"":1248},{""page_index"":7,""viewing_time"":872}]","","","","","","","","","","","","","","","","","","","","","","","","","","","","","","","","",""
"","canvas-keyboard-response","6","175428","0.0-6.0-0.0","537","","","","","pre trial waiting period","null","null","","","critical","c","d","t","240","164","164","240","164","240","trueblood","0","h","164","240","240","164","164","240","39360","39360","39360","td","null","null","null","null","null","null","[3,2]","479.8165002757625","451.70356158355656","424.18281636780085"
"","canvas-keyboard-response","7","175449","0.0-6.0-1.0","537","","","","","clear_screen","null","null","","","critical","c","d","t","240","164","164","240","164","240","trueblood","0","h","164","240","240","164","164","240","39360","39360","39360","td","null","null","null","null","null","null","[3,2]","479.8165002757625","451.70356158355656","424.18281636780085"
"","canvas-keyboard-response","8","175966","0.0-6.0-2.0","537","","","","","rectangles no change","null","null","","","critical","c","d","t","240","164","164","240","164","240","trueblood","0","h","164","240","240","164","164","240","39360","39360","39360","td","null","null","null","null","null","null","[3,2]","479.8165002757625","451.70356158355656","424.18281636780085"
"","canvas-keyboard-response","9","177302","0.0-6.0-3.0","537","","","","","rectangles with change","null","null","","","critical","c","d","t","240","164","164","240","164","240","trueblood","0","h","164","240","240","164","164","240","39360","39360","39360","td","null","null","null","null","null","null","[3,2]","479.8165002757625","451.70356158355656","424.18281636780085"
"","canvas-keyboard-response","10","177321","0.0-6.0-4.0","537","","","","","clear_screen","null","null","","","critical","c","d","t","240","164","164","240","164","240","trueblood","0","h","164","240","240","164","164","240","39360","39360","39360","td","null","null","null","null","null","null","[3,2]","479.8165002757625","451.70356158355656","424.18281636780085"
"","canvas-keyboard-response","11","179898","0.0-6.0-5.0","537","","","","","make choice","2566","2","","","critical","c","d","t","240","164","164","240","164","240","trueblood","0","h","164","240","240","164","164","240","39360","39360","39360","td","null","null","null","null","null","null","[3,2]","","",""
"","canvas-keyboard-response","12","179916","0.0-6.0-6.0","537","","","","","clear_screen","null","null","","","critical","c","d","t","240","164","164","240","164","240","trueblood","0","h","164","240","240","164","164","240","39360","39360","39360","td","null","null","null","null","null","null","[3,2]","","",""
"","canvas-keyboard-response","13","180117","0.0-6.0-0.1","537","","","","","pre trial waiting period","null","null","","","critical","t","c","d","164","240","240","164","162.6685","237.1485","spektor","0.02","h","164","240","240","164","162.6685","237.1485","39360","39360","38576.5967","tc","null","null","null","null","null","null","[1,2]","503.985237778272","167.6196336303553","494.5848114065078"
"","canvas-keyboard-response","14","180136","0.0-6.0-1.1","537","","","","","clear_screen","null","null","","","critical","t","c","d","164","240","240","164","162.6685","237.1485","spektor","0.02","h","164","240","240","164","162.6685","237.1485","39360","39360","38576.5967","tc","null","null","null","null","null","null","[1,2]","503.985237778272","167.6196336303553","494.5848114065078"
"","canvas-keyboard-response","15","180649","0.0-6.0-2.1","537","","","","","rectangles no change","null","null","","","critical","t","c","d","164","240","240","164","162.6685","237.1485","spektor","0.02","h","164","240","240","164","162.6685","237.1485","39360","39360","38576.5967","tc","null","null","null","null","null","null","[1,2]","503.985237778272","167.6196336303553","494.5848114065078"
"","canvas-keyboard-response","16","181985","0.0-6.0-3.1","537","","","","","rectangles with change","null","null","","","critical","t","c","d","164","240","240","164","162.6685","237.1485","spektor","0.02","h","164","240","240","164","162.6685","237.1485","39360","39360","38576.5967","tc","null","null","null","null","null","null","[1,2]","503.985237778272","167.6196336303553","494.5848114065078"
"","canvas-keyboard-response","17","182008","0.0-6.0-4.1","537","","","","","clear_screen","null","null","","","critical","t","c","d","164","240","240","164","162.6685","237.1485","spektor","0.02","h","164","240","240","164","162.6685","237.1485","39360","39360","38576.5967","tc","null","null","null","null","null","null","[1,2]","503.985237778272","167.6196336303553","494.5848114065078"
"","canvas-keyboard-response","18","183874","0.0-6.0-5.1","537","","","","","make choice","1857","2","","","critical","t","c","d","164","240","240","164","162.6685","237.1485","spektor","0.02","h","164","240","240","164","162.6685","237.1485","39360","39360","38576.5967","tc","null","null","null","null","null","null","[1,2]","","",""
"","canvas-keyboard-response","19","183894","0.0-6.0-6.1","537","","","","","clear_screen","null","null","","","critical","t","c","d","164","240","240","164","162.6685","237.1485","spektor","0.02","h","164","240","240","164","162.6685","237.1485","39360","39360","38576.5967","tc","null","null","null","null","null","null","[1,2]","","",""
"","canvas-keyboard-response","20","184095","0.0-6.0-0.2","537","","","","","pre trial waiting period","null","null","","","critical","t","d","c","240","164","240","164","164","240","trueblood","0","w","240","164","164","240","240","164","39360","39360","39360","tc","null","null","null","null","null","null","[1,3]","498.34716482970924","488.52982828445033","468.98859789203306"
"","canvas-keyboard-response","21","184114","0.0-6.0-1.2","537","","","","","clear_screen","null","null","","","critical","t","d","c","240","164","240","164","164","240","trueblood","0","w","240","164","164","240","240","164","39360","39360","39360","tc","null","null","null","null","null","null","[1,3]","498.34716482970924","488.52982828445033","468.98859789203306"
"","canvas-keyboard-response","22","184624","0.0-6.0-2.2","537","","","","","rectangles no change","null","null","","","critical","t","d","c","240","164","240","164","164","240","trueblood","0","w","240","164","164","240","240","164","39360","39360","39360","tc","null","null","null","null","null","null","[1,3]","498.34716482970924","488.52982828445033","468.98859789203306"
"","canvas-keyboard-response","23","185958","0.0-6.0-3.2","537","","","","","rectangles with change","null","null","","","critical","t","d","c","240","164","240","164","164","240","trueblood","0","w","240","164","164","240","240","164","39360","39360","39360","tc","null","null","null","null","null","null","[1,3]","498.34716482970924","488.52982828445033","468.98859789203306"
"","canvas-keyboard-response","24","185977","0.0-6.0-4.2","537","","","","","clear_screen","null","null","","","critical","t","d","c","240","164","240","164","164","240","trueblood","0","w","240","164","164","240","240","164","39360","39360","39360","tc","null","null","null","null","null","null","[1,3]","498.34716482970924","488.52982828445033","468.98859789203306"
"","canvas-keyboard-response","25","187170","0.0-6.0-5.2","537","","","","","make choice","1185","1","","","critical","t","d","c","240","164","240","164","164","240","trueblood","0","w","240","164","164","240","240","164","39360","39360","39360","tc","null","null","null","null","null","null","[1,3]","","",""
"","canvas-keyboard-response","26","187188","0.0-6.0-6.2","537","","","","","clear_screen","null","null","","","critical","t","d","c","240","164","240","164","164","240","trueblood","0","w","240","164","164","240","240","164","39360","39360","39360","tc","null","null","null","null","null","null","[1,3]","","",""
"","canvas-keyboard-response","27","187389","0.0-6.0-0.3","537","","","","","pre trial waiting period","null","null","","","critical","d","t","c","220.0396","154.6796","240","164","164","240","trueblood","0.14","w","240","164","164","240","220.0396","154.6796","39360","39360","34035.6388","td","null","null","null","null","null","null","[2,1]","519.326355932136","493.13232775897967","441.25144957045757"
"","canvas-keyboard-response","28","187409","0.0-6.0-1.3","537","","","","","clear_screen","null","null","","","critical","d","t","c","220.0396","154.6796","240","164","164","240","trueblood","0.14","w","240","164","164","240","220.0396","154.6796","39360","39360","34035.6388","td","null","null","null","null","null","null","[2,1]","519.326355932136","493.13232775897967","441.25144957045757"
"","canvas-keyboard-response","29","187921","0.0-6.0-2.3","537","","","","","rectangles no change","null","null","","","critical","d","t","c","220.0396","154.6796","240","164","164","240","trueblood","0.14","w","240","164","164","240","220.0396","154.6796","39360","39360","34035.6388","td","null","null","null","null","null","null","[2,1]","519.326355932136","493.13232775897967","441.25144957045757"
"","canvas-keyboard-response","30","189255","0.0-6.0-3.3","537","","","","","rectangles with change","null","null","","","critical","d","t","c","220.0396","154.6796","240","164","164","240","trueblood","0.14","w","240","164","164","240","220.0396","154.6796","39360","39360","34035.6388","td","null","null","null","null","null","null","[2,1]","519.326355932136","493.13232775897967","441.25144957045757"
"","canvas-keyboard-response","31","189273","0.0-6.0-4.3","537","","","","","clear_screen","null","null","","","critical","d","t","c","220.0396","154.6796","240","164","164","240","trueblood","0.14","w","240","164","164","240","220.0396","154.6796","39360","39360","34035.6388","td","null","null","null","null","null","null","[2,1]","519.326355932136","493.13232775897967","441.25144957045757"
"","canvas-keyboard-response","32","189650","0.0-6.0-5.3","537","","","","","make choice","369","2","","","critical","d","t","c","220.0396","154.6796","240","164","164","240","trueblood","0.14","w","240","164","164","240","220.0396","154.6796","39360","39360","34035.6388","td","null","null","null","null","null","null","[2,1]","","",""
"","canvas-keyboard-response","33","189669","0.0-6.0-6.3","537","","","","","clear_screen","null","null","","","critical","d","t","c","220.0396","154.6796","240","164","164","240","trueblood","0.14","w","240","164","164","240","220.0396","154.6796","39360","39360","34035.6388","td","null","null","null","null","null","null","[2,1]","","",""
"","canvas-keyboard-response","34","189870","0.0-6.0-0.4","537","","","","","pre trial waiting period","null","null","","","critical","d","c","t","162.6685","237.1485","240","164","164","240","spektor","0.02","h","164","240","240","164","162.6685","237.1485","39360","39360","38576.5967","td","null","null","null","null","null","null","[3,1]","470.0892892249352","155.53263214131152","495.58106573094693"
"","canvas-keyboard-response","35","189889","0.0-6.0-1.4","537","","","","","clear_screen","null","null","","","critical","d","c","t","162.6685","237.1485","240","164","164","240","spektor","0.02","h","164","240","240","164","162.6685","237.1485","39360","39360","38576.5967","td","null","null","null","null","null","null","[3,1]","470.0892892249352","155.53263214131152","495.58106573094693"
"","canvas-keyboard-response","36","190402","0.0-6.0-2.4","537","","","","","rectangles no change","null","null","","","critical","d","c","t","162.6685","237.1485","240","164","164","240","spektor","0.02","h","164","240","240","164","162.6685","237.1485","39360","39360","38576.5967","td","null","null","null","null","null","null","[3,1]","470.0892892249352","155.53263214131152","495.58106573094693"
"","canvas-keyboard-response","37","191738","0.0-6.0-3.4","537","","","","","rectangles with change","null","null","","","critical","d","c","t","162.6685","237.1485","240","164","164","240","spektor","0.02","h","164","240","240","164","162.6685","237.1485","39360","39360","38576.5967","td","null","null","null","null","null","null","[3,1]","470.0892892249352","155.53263214131152","495.58106573094693"
"","canvas-keyboard-response","38","191755","0.0-6.0-4.4","537","","","","","clear_screen","null","null","","","critical","d","c","t","162.6685","237.1485","240","164","164","240","spektor","0.02","h","164","240","240","164","162.6685","237.1485","39360","39360","38576.5967","td","null","null","null","null","null","null","[3,1]","470.0892892249352","155.53263214131152","495.58106573094693"
"","canvas-keyboard-response","39","192164","0.0-6.0-5.4","537","","","","","make choice","400","1","","","critical","d","c","t","162.6685","237.1485","240","164","164","240","spektor","0.02","h","164","240","240","164","162.6685","237.1485","39360","39360","38576.5967","td","null","null","null","null","null","null","[3,1]","","",""
"","canvas-keyboard-response","40","192183","0.0-6.0-6.4","537","","","","","clear_screen","null","null","","","critical","d","c","t","162.6685","237.1485","240","164","164","240","spektor","0.02","h","164","240","240","164","162.6685","237.1485","39360","39360","38576.5967","td","null","null","null","null","null","null","[3,1]","","",""
"","canvas-keyboard-response","41","192386","0.0-6.0-0.5","537","","","","","pre trial waiting period","null","null","","","critical","d","t","c","232.8713","160.6713","240","164","164","240","spektor","0.05","w","240","164","164","240","232.8713","160.6713","39360","39360","37415.7294","td","null","null","null","null","null","null","[2,1]","501.558646111288","180.30018509808087","491.6655889763307"
"","canvas-keyboard-response","42","192405","0.0-6.0-1.5","537","","","","","clear_screen","null","null","","","critical","d","t","c","232.8713","160.6713","240","164","164","240","spektor","0.05","w","240","164","164","240","232.8713","160.6713","39360","39360","37415.7294","td","null","null","null","null","null","null","[2,1]","501.558646111288","180.30018509808087","491.6655889763307"
"","canvas-keyboard-response","43","192919","0.0-6.0-2.5","537","","","","","rectangles no change","null","null","","","critical","d","t","c","232.8713","160.6713","240","164","164","240","spektor","0.05","w","240","164","164","240","232.8713","160.6713","39360","39360","37415.7294","td","null","null","null","null","null","null","[2,1]","501.558646111288","180.30018509808087","491.6655889763307"
"","canvas-keyboard-response","44","194254","0.0-6.0-3.5","537","","","","","rectangles with change","null","null","","","critical","d","t","c","232.8713","160.6713","240","164","164","240","spektor","0.05","w","240","164","164","240","232.8713","160.6713","39360","39360","37415.7294","td","null","null","null","null","null","null","[2,1]","501.558646111288","180.30018509808087","491.6655889763307"
"","canvas-keyboard-response","45","194273","0.0-6.0-4.5","537","","","","","clear_screen","null","null","","","critical","d","t","c","232.8713","160.6713","240","164","164","240","spektor","0.05","w","240","164","164","240","232.8713","160.6713","39360","39360","37415.7294","td","null","null","null","null","null","null","[2,1]","501.558646111288","180.30018509808087","491.6655889763307"
"","canvas-keyboard-response","46","194682","0.0-6.0-5.5","537","","","","","make choice","402","2","","","critical","d","t","c","232.8713","160.6713","240","164","164","240","spektor","0.05","w","240","164","164","240","232.8713","160.6713","39360","39360","37415.7294","td","null","null","null","null","null","null","[2,1]","","",""
"","canvas-keyboard-response","47","194699","0.0-6.0-6.5","537","","","","","clear_screen","null","null","","","critical","d","t","c","232.8713","160.6713","240","164","164","240","spektor","0.05","w","240","164","164","240","232.8713","160.6713","39360","39360","37415.7294","td","null","null","null","null","null","null","[2,1]","","",""
"","canvas-keyboard-response","48","194901","0.0-6.0-0.6","537","","","","","pre trial waiting period","null","null","","","critical","c","t","d","240","164","164","240","154.6796","220.0396","trueblood","0.14","h","164","240","240","164","154.6796","220.0396","39360","39360","34035.6388","tc","null","null","null","null","null","null","[2,1]","511.4077491514359","456.07346148381663","434.563908713671"
"","canvas-keyboard-response","49","194920","0.0-6.0-1.6","537","","","","","clear_screen","null","null","","","critical","c","t","d","240","164","164","240","154.6796","220.0396","trueblood","0.14","h","164","240","240","164","154.6796","220.0396","39360","39360","34035.6388","tc","null","null","null","null","null","null","[2,1]","511.4077491514359","456.07346148381663","434.563908713671"
"","canvas-keyboard-response","50","195430","0.0-6.0-2.6","537","","","","","rectangles no change","null","null","","","critical","c","t","d","240","164","164","240","154.6796","220.0396","trueblood","0.14","h","164","240","240","164","154.6796","220.0396","39360","39360","34035.6388","tc","null","null","null","null","null","null","[2,1]","511.4077491514359","456.07346148381663","434.563908713671"
"","canvas-keyboard-response","51","196765","0.0-6.0-3.6","537","","","","","rectangles with change","null","null","","","critical","c","t","d","240","164","164","240","154.6796","220.0396","trueblood","0.14","h","164","240","240","164","154.6796","220.0396","39360","39360","34035.6388","tc","null","null","null","null","null","null","[2,1]","511.4077491514359","456.07346148381663","434.563908713671"
"","canvas-keyboard-response","52","196783","0.0-6.0-4.6","537","","","","","clear_screen","null","null","","","critical","c","t","d","240","164","164","240","154.6796","220.0396","trueblood","0.14","h","164","240","240","164","154.6796","220.0396","39360","39360","34035.6388","tc","null","null","null","null","null","null","[2,1]","511.4077491514359","456.07346148381663","434.563908713671"
"","canvas-keyboard-response","53","197058","0.0-6.0-5.6","537","","","","","make choice","266","2","","","critical","c","t","d","240","164","164","240","154.6796","220.0396","trueblood","0.14","h","164","240","240","164","154.6796","220.0396","39360","39360","34035.6388","tc","null","null","null","null","null","null","[2,1]","","",""
"","canvas-keyboard-response","54","197075","0.0-6.0-6.6","537","","","","","clear_screen","null","null","","","critical","c","t","d","240","164","164","240","154.6796","220.0396","trueblood","0.14","h","164","240","240","164","154.6796","220.0396","39360","39360","34035.6388","tc","null","null","null","null","null","null","[2,1]","","",""
"","canvas-keyboard-response","55","197277","0.0-6.0-0.7","537","","","","","pre trial waiting period","null","null","","","critical","c","t","d","164","240","240","164","232.8713","160.6713","spektor","0.05","w","240","164","164","240","232.8713","160.6713","39360","39360","37415.7294","tc","null","null","null","null","null","null","[2,1]","465.2797089213084","207.70728644754718","502.71611341533594"
"","canvas-keyboard-response","56","197297","0.0-6.0-1.7","537","","","","","clear_screen","null","null","","","critical","c","t","d","164","240","240","164","232.8713","160.6713","spektor","0.05","w","240","164","164","240","232.8713","160.6713","39360","39360","37415.7294","tc","null","null","null","null","null","null","[2,1]","465.2797089213084","207.70728644754718","502.71611341533594"
"","canvas-keyboard-response","57","197807","0.0-6.0-2.7","537","","","","","rectangles no change","null","null","","","critical","c","t","d","164","240","240","164","232.8713","160.6713","spektor","0.05","w","240","164","164","240","232.8713","160.6713","39360","39360","37415.7294","tc","null","null","null","null","null","null","[2,1]","465.2797089213084","207.70728644754718","502.71611341533594"
"","canvas-keyboard-response","58","199143","0.0-6.0-3.7","537","","","","","rectangles with change","null","null","","","critical","c","t","d","164","240","240","164","232.8713","160.6713","spektor","0.05","w","240","164","164","240","232.8713","160.6713","39360","39360","37415.7294","tc","null","null","null","null","null","null","[2,1]","465.2797089213084","207.70728644754718","502.71611341533594"
"","canvas-keyboard-response","59","199162","0.0-6.0-4.7","537","","","","","clear_screen","null","null","","","critical","c","t","d","164","240","240","164","232.8713","160.6713","spektor","0.05","w","240","164","164","240","232.8713","160.6713","39360","39360","37415.7294","tc","null","null","null","null","null","null","[2,1]","465.2797089213084","207.70728644754718","502.71611341533594"
"","canvas-keyboard-response","60","199370","0.0-6.0-5.7","537","","","","","make choice","201","2","","","critical","c","t","d","164","240","240","164","232.8713","160.6713","spektor","0.05","w","240","164","164","240","232.8713","160.6713","39360","39360","37415.7294","tc","null","null","null","null","null","null","[2,1]","","",""
"","canvas-keyboard-response","61","199387","0.0-6.0-6.7","537","","","","","clear_screen","null","null","","","critical","c","t","d","164","240","240","164","232.8713","160.6713","spektor","0.05","w","240","164","164","240","232.8713","160.6713","39360","39360","37415.7294","tc","null","null","null","null","null","null","[2,1]","","",""
"","canvas-keyboard-response","62","199588","0.0-6.0-0.8","537","","","","","pre trial waiting period","null","null","","","catch","sw","l","sh","180","200","209","239","237","165","trueblood","null","null","null","null","null","null","null","null","null","null","null","","180","200","260","200","36000","52000","[2,3]","488.91840279513787","435.37673492506684","499.8370134457494"
"","canvas-keyboard-response","63","199609","0.0-6.0-1.8","537","","","","","clear_screen","null","null","","","catch","sw","l","sh","180","200","209","239","237","165","trueblood","null","null","null","null","null","null","null","null","null","null","null","","180","200","260","200","36000","52000","[2,3]","488.91840279513787","435.37673492506684","499.8370134457494"
"","canvas-keyboard-response","64","200119","0.0-6.0-2.8","537","","","","","rectangles no change","null","null","","","catch","sw","l","sh","180","200","209","239","237","165","trueblood","null","null","null","null","null","null","null","null","null","null","null","","180","200","260","200","36000","52000","[2,3]","488.91840279513787","435.37673492506684","499.8370134457494"
"","canvas-keyboard-response","65","201454","0.0-6.0-3.8","537","","","","","rectangles with change","null","null","","","catch","sw","l","sh","180","200","209","239","237","165","trueblood","null","null","null","null","null","null","null","null","null","null","null","","180","200","260","200","36000","52000","[2,3]","488.91840279513787","435.37673492506684","499.8370134457494"
"","canvas-keyboard-response","66","201472","0.0-6.0-4.8","537","","","","","clear_screen","null","null","","","catch","sw","l","sh","180","200","209","239","237","165","trueblood","null","null","null","null","null","null","null","null","null","null","null","","180","200","260","200","36000","52000","[2,3]","488.91840279513787","435.37673492506684","499.8370134457494"
"","canvas-keyboard-response","67","201826","0.0-6.0-5.8","537","","","","","make choice","346","2","","","catch","sw","l","sh","180","200","209","239","237","165","trueblood","null","null","null","null","null","null","null","null","null","null","null","","180","200","260","200","36000","52000","[2,3]","","",""
"","canvas-keyboard-response","68","201844","0.0-6.0-6.8","537","","","","","clear_screen","null","null","","","catch","sw","l","sh","180","200","209","239","237","165","trueblood","null","null","null","null","null","null","null","null","null","null","null","","180","200","260","200","36000","52000","[2,3]","","",""
"","canvas-keyboard-response","69","202045","0.0-6.0-0.9","537","","","","","pre trial waiting period","null","null","","","critical","d","c","t","240","164","164","240","240","164","spektor","0","w","240","164","164","240","240","164","39360","39360","39360","dc","null","null","null","null","null","null","[1,2]","522.8938596143668","117.17745347578968","513.9106592487532"
"","canvas-keyboard-response","70","202064","0.0-6.0-1.9","537","","","","","clear_screen","null","null","","","critical","d","c","t","240","164","164","240","240","164","spektor","0","w","240","164","164","240","240","164","39360","39360","39360","dc","null","null","null","null","null","null","[1,2]","522.8938596143668","117.17745347578968","513.9106592487532"
"","canvas-keyboard-response","71","202575","0.0-6.0-2.9","537","","","","","rectangles no change","null","null","","","critical","d","c","t","240","164","164","240","240","164","spektor","0","w","240","164","164","240","240","164","39360","39360","39360","dc","null","null","null","null","null","null","[1,2]","522.8938596143668","117.17745347578968","513.9106592487532"
"","canvas-keyboard-response","72","203910","0.0-6.0-3.9","537","","","","","rectangles with change","null","null","","","critical","d","c","t","240","164","164","240","240","164","spektor","0","w","240","164","164","240","240","164","39360","39360","39360","dc","null","null","null","null","null","null","[1,2]","522.8938596143668","117.17745347578968","513.9106592487532"
"","canvas-keyboard-response","73","203929","0.0-6.0-4.9","537","","","","","clear_screen","null","null","","","critical","d","c","t","240","164","164","240","240","164","spektor","0","w","240","164","164","240","240","164","39360","39360","39360","dc","null","null","null","null","null","null","[1,2]","522.8938596143668","117.17745347578968","513.9106592487532"
"","canvas-keyboard-response","74","204105","0.0-6.0-5.9","537","","","","","make choice","171","1","","","critical","d","c","t","240","164","164","240","240","164","spektor","0","w","240","164","164","240","240","164","39360","39360","39360","dc","null","null","null","null","null","null","[1,2]","","",""
"","canvas-keyboard-response","75","204124","0.0-6.0-6.9","537","","","","","clear_screen","null","null","","","critical","d","c","t","240","164","164","240","240","164","spektor","0","w","240","164","164","240","240","164","39360","39360","39360","dc","null","null","null","null","null","null","[1,2]","","",""
"","canvas-keyboard-response","76","204326","0.0-6.0-0.10","537","","","","","pre trial waiting period","null","null","","","catch","sh","l","sw","217","203","236","177","203","196","spektor","null","null","null","null","null","null","null","null","null","null","null","","180","200","260","200","36000","52000","[1,2]","481.3545344523683","179.97345659446023","493.3746174238539"
"","canvas-keyboard-response","77","204349","0.0-6.0-1.10","537","","","","","clear_screen","null","null","","","catch","sh","l","sw","217","203","236","177","203","196","spektor","null","null","null","null","null","null","null","null","null","null","null","","180","200","260","200","36000","52000","[1,2]","481.3545344523683","179.97345659446023","493.3746174238539"
"","canvas-keyboard-response","78","204860","0.0-6.0-2.10","537","","","","","rectangles no change","null","null","","","catch","sh","l","sw","217","203","236","177","203","196","spektor","null","null","null","null","null","null","null","null","null","null","null","","180","200","260","200","36000","52000","[1,2]","481.3545344523683","179.97345659446023","493.3746174238539"
"","canvas-keyboard-response","79","206197","0.0-6.0-3.10","537","","","","","rectangles with change","null","null","","","catch","sh","l","sw","217","203","236","177","203","196","spektor","null","null","null","null","null","null","null","null","null","null","null","","180","200","260","200","36000","52000","[1,2]","481.3545344523683","179.97345659446023","493.3746174238539"
"","canvas-keyboard-response","80","206214","0.0-6.0-4.10","537","","","","","clear_screen","null","null","","","catch","sh","l","sw","217","203","236","177","203","196","spektor","null","null","null","null","null","null","null","null","null","null","null","","180","200","260","200","36000","52000","[1,2]","481.3545344523683","179.97345659446023","493.3746174238539"
"","canvas-keyboard-response","81","206818","0.0-6.0-5.10","537","","","","","make choice","597","1","","","catch","sh","l","sw","217","203","236","177","203","196","spektor","null","null","null","null","null","null","null","null","null","null","null","","180","200","260","200","36000","52000","[1,2]","","",""
"","canvas-keyboard-response","82","206836","0.0-6.0-6.10","537","","","","","clear_screen","null","null","","","catch","sh","l","sw","217","203","236","177","203","196","spektor","null","null","null","null","null","null","null","null","null","null","null","","180","200","260","200","36000","52000","[1,2]","","",""
"","canvas-keyboard-response","83","207037","0.0-6.0-0.11","537","","","","","pre trial waiting period","null","null","","","critical","c","d","t","240","164","154.6796","220.0396","164","240","trueblood","0.14","h","164","240","240","164","154.6796","220.0396","39360","39360","34035.6388","dc","null","null","null","null","null","null","[2,1]","483.52563154047397","451.06259959425574","436.8837067519065"
"","canvas-keyboard-response","84","207057","0.0-6.0-1.11","537","","","","","clear_screen","null","null","","","critical","c","d","t","240","164","154.6796","220.0396","164","240","trueblood","0.14","h","164","240","240","164","154.6796","220.0396","39360","39360","34035.6388","dc","null","null","null","null","null","null","[2,1]","483.52563154047397","451.06259959425574","436.8837067519065"
"","canvas-keyboard-response","85","207567","0.0-6.0-2.11","537","","","","","rectangles no change","null","null","","","critical","c","d","t","240","164","154.6796","220.0396","164","240","trueblood","0.14","h","164","240","240","164","154.6796","220.0396","39360","39360","34035.6388","dc","null","null","null","null","null","null","[2,1]","483.52563154047397","451.06259959425574","436.8837067519065"
"","canvas-keyboard-response","86","208902","0.0-6.0-3.11","537","","","","","rectangles with change","null","null","","","critical","c","d","t","240","164","154.6796","220.0396","164","240","trueblood","0.14","h","164","240","240","164","154.6796","220.0396","39360","39360","34035.6388","dc","null","null","null","null","null","null","[2,1]","483.52563154047397","451.06259959425574","436.8837067519065"
"","canvas-keyboard-response","87","208920","0.0-6.0-4.11","537","","","","","clear_screen","null","null","","","critical","c","d","t","240","164","154.6796","220.0396","164","240","trueblood","0.14","h","164","240","240","164","154.6796","220.0396","39360","39360","34035.6388","dc","null","null","null","null","null","null","[2,1]","483.52563154047397","451.06259959425574","436.8837067519065"
"","canvas-keyboard-response","88","209282","0.0-6.0-5.11","537","","","","","make choice","355","1","","","critical","c","d","t","240","164","154.6796","220.0396","164","240","trueblood","0.14","h","164","240","240","164","154.6796","220.0396","39360","39360","34035.6388","dc","null","null","null","null","null","null","[2,1]","","",""
"","canvas-keyboard-response","89","209300","0.0-6.0-6.11","537","","","","","clear_screen","null","null","","","critical","c","d","t","240","164","154.6796","220.0396","164","240","trueblood","0.14","h","164","240","240","164","154.6796","220.0396","39360","39360","34035.6388","dc","null","null","null","null","null","null","[2,1]","","",""
"","canvas-keyboard-response","90","209502","0.0-6.0-0.12","537","","","","","pre trial waiting period","null","null","","","critical","c","d","t","164","240","227.1683","158.0083","240","164","spektor","0.09","w","240","164","164","240","227.1683","158.0083","39360","39360","35894.4834","dc","null","null","null","null","null","null","[2,1]","462.8885172222988","198.93949689010998","542.1858681807166"
"","canvas-keyboard-response","91","209521","0.0-6.0-1.12","537","","","","","clear_screen","null","null","","","critical","c","d","t","164","240","227.1683","158.0083","240","164","spektor","0.09","w","240","164","164","240","227.1683","158.0083","39360","39360","35894.4834","dc","null","null","null","null","null","null","[2,1]","462.8885172222988","198.93949689010998","542.1858681807166"
"","canvas-keyboard-response","92","210036","0.0-6.0-2.12","537","","","","","rectangles no change","null","null","","","critical","c","d","t","164","240","227.1683","158.0083","240","164","spektor","0.09","w","240","164","164","240","227.1683","158.0083","39360","39360","35894.4834","dc","null","null","null","null","null","null","[2,1]","462.8885172222988","198.93949689010998","542.1858681807166"
"","canvas-keyboard-response","93","211371","0.0-6.0-3.12","537","","","","","rectangles with change","null","null","","","critical","c","d","t","164","240","227.1683","158.0083","240","164","spektor","0.09","w","240","164","164","240","227.1683","158.0083","39360","39360","35894.4834","dc","null","null","null","null","null","null","[2,1]","462.8885172222988","198.93949689010998","542.1858681807166"
"","canvas-keyboard-response","94","211388","0.0-6.0-4.12","537","","","","","clear_screen","null","null","","","critical","c","d","t","164","240","227.1683","158.0083","240","164","spektor","0.09","w","240","164","164","240","227.1683","158.0083","39360","39360","35894.4834","dc","null","null","null","null","null","null","[2,1]","462.8885172222988","198.93949689010998","542.1858681807166"
"","canvas-keyboard-response","95","211682","0.0-6.0-5.12","537","","","","","make choice","287","2","","","critical","c","d","t","164","240","227.1683","158.0083","240","164","spektor","0.09","w","240","164","164","240","227.1683","158.0083","39360","39360","35894.4834","dc","null","null","null","null","null","null","[2,1]","","",""
"","canvas-keyboard-response","96","211699","0.0-6.0-6.12","537","","","","","clear_screen","null","null","","","critical","c","d","t","164","240","227.1683","158.0083","240","164","spektor","0.09","w","240","164","164","240","227.1683","158.0083","39360","39360","35894.4834","dc","null","null","null","null","null","null","[2,1]","","",""
"","canvas-keyboard-response","97","211900","0.0-6.0-0.13","537","","","","","pre trial waiting period","null","null","","","catch","l","sh","sw","292","203","236","151","183","228","spektor","null","null","null","null","null","null","null","null","null","null","null","","180","200","260","200","36000","52000","[1,2]","503.61888100296954","219.44421515721473","498.55719164884636"
"","canvas-keyboard-response","98","211918","0.0-6.0-1.13","537","","","","","clear_screen","null","null","","","catch","l","sh","sw","292","203","236","151","183","228","spektor","null","null","null","null","null","null","null","null","null","null","null","","180","200","260","200","36000","52000","[1,2]","503.61888100296954","219.44421515721473","498.55719164884636"
"","canvas-keyboard-response","99","212428","0.0-6.0-2.13","537","","","","","rectangles no change","null","null","","","catch","l","sh","sw","292","203","236","151","183","228","spektor","null","null","null","null","null","null","null","null","null","null","null","","180","200","260","200","36000","52000","[1,2]","503.61888100296954","219.44421515721473","498.55719164884636"
"","canvas-keyboard-response","100","213763","0.0-6.0-3.13","537","","","","","rectangles with change","null","null","","","catch","l","sh","sw","292","203","236","151","183","228","spektor","null","null","null","null","null","null","null","null","null","null","null","","180","200","260","200","36000","52000","[1,2]","503.61888100296954","219.44421515721473","498.55719164884636"
"","canvas-keyboard-response","101","213781","0.0-6.0-4.13","537","","","","","clear_screen","null","null","","","catch","l","sh","sw","292","203","236","151","183","228","spektor","null","null","null","null","null","null","null","null","null","null","null","","180","200","260","200","36000","52000","[1,2]","503.61888100296954","219.44421515721473","498.55719164884636"
"","canvas-keyboard-response","102","213802","0.0-6.0-5.13","537","","","","","make choice","12","1","","","catch","l","sh","sw","292","203","236","151","183","228","spektor","null","null","null","null","null","null","null","null","null","null","null","","180","200","260","200","36000","52000","[1,2]","","",""
"","canvas-keyboard-response","103","213817","0.0-6.0-6.13","537","","","","","clear_screen","null","null","","","catch","l","sh","sw","292","203","236","151","183","228","spektor","null","null","null","null","null","null","null","null","null","null","null","","180","200","260","200","36000","52000","[1,2]","","",""
"","canvas-keyboard-response","104","214017","0.0-6.0-0.14","537","","","","","pre trial waiting period","null","null","","","critical","t","c","d","240","164","164","240","237.1485","162.6685","spektor","0.02","w","240","164","164","240","237.1485","162.6685","39360","39360","38576.5967","dc","null","null","null","null","null","null","[3,2]","517.1147522839144","153.02299361020687","540.8585849657192"
"","canvas-keyboard-response","105","214036","0.0-6.0-1.14","537","","","","","clear_screen","null","null","","","critical","t","c","d","240","164","164","240","237.1485","162.6685","spektor","0.02","w","240","164","164","240","237.1485","162.6685","39360","39360","38576.5967","dc","null","null","null","null","null","null","[3,2]","517.1147522839144","153.02299361020687","540.8585849657192"
"","canvas-keyboard-response","106","214546","0.0-6.0-2.14","537","","","","","rectangles no change","null","null","","","critical","t","c","d","240","164","164","240","237.1485","162.6685","spektor","0.02","w","240","164","164","240","237.1485","162.6685","39360","39360","38576.5967","dc","null","null","null","null","null","null","[3,2]","517.1147522839144","153.02299361020687","540.8585849657192"
"","canvas-keyboard-response","107","215881","0.0-6.0-3.14","537","","","","","rectangles with change","null","null","","","critical","t","c","d","240","164","164","240","237.1485","162.6685","spektor","0.02","w","240","164","164","240","237.1485","162.6685","39360","39360","38576.5967","dc","null","null","null","null","null","null","[3,2]","517.1147522839144","153.02299361020687","540.8585849657192"
"","canvas-keyboard-response","108","215898","0.0-6.0-4.14","537","","","","","clear_screen","null","null","","","critical","t","c","d","240","164","164","240","237.1485","162.6685","spektor","0.02","w","240","164","164","240","237.1485","162.6685","39360","39360","38576.5967","dc","null","null","null","null","null","null","[3,2]","517.1147522839144","153.02299361020687","540.8585849657192"
"","canvas-keyboard-response","109","215986","0.0-6.0-5.14","537","","","","","make choice","82","3","","","critical","t","c","d","240","164","164","240","237.1485","162.6685","spektor","0.02","w","240","164","164","240","237.1485","162.6685","39360","39360","38576.5967","dc","null","null","null","null","null","null","[3,2]","","",""
"","canvas-keyboard-response","110","216003","0.0-6.0-6.14","537","","","","","clear_screen","null","null","","","critical","t","c","d","240","164","164","240","237.1485","162.6685","spektor","0.02","w","240","164","164","240","237.1485","162.6685","39360","39360","38576.5967","dc","null","null","null","null","null","null","[3,2]","","",""
"","canvas-keyboard-response","111","216204","0.0-6.0-0.15","537","","","","","pre trial waiting period","null","null","","","critical","d","c","t","220.0396","154.6796","164","240","240","164","spektor","0.14","w","240","164","164","240","220.0396","154.6796","39360","39360","34035.6388","td","null","null","null","null","null","null","[3,1]","521.6092223150238","145.46226145660785","525.498743996239"
"","canvas-keyboard-response","112","216222","0.0-6.0-1.15","537","","","","","clear_screen","null","null","","","critical","d","c","t","220.0396","154.6796","164","240","240","164","spektor","0.14","w","240","164","164","240","220.0396","154.6796","39360","39360","34035.6388","td","null","null","null","null","null","null","[3,1]","521.6092223150238","145.46226145660785","525.498743996239"
"","canvas-keyboard-response","113","216732","0.0-6.0-2.15","537","","","","","rectangles no change","null","null","","","critical","d","c","t","220.0396","154.6796","164","240","240","164","spektor","0.14","w","240","164","164","240","220.0396","154.6796","39360","39360","34035.6388","td","null","null","null","null","null","null","[3,1]","521.6092223150238","145.46226145660785","525.498743996239"
"","canvas-keyboard-response","114","218068","0.0-6.0-3.15","537","","","","","rectangles with change","null","null","","","critical","d","c","t","220.0396","154.6796","164","240","240","164","spektor","0.14","w","240","164","164","240","220.0396","154.6796","39360","39360","34035.6388","td","null","null","null","null","null","null","[3,1]","521.6092223150238","145.46226145660785","525.498743996239"
"","canvas-keyboard-response","115","218090","0.0-6.0-4.15","537","","","","","clear_screen","null","null","","","critical","d","c","t","220.0396","154.6796","164","240","240","164","spektor","0.14","w","240","164","164","240","220.0396","154.6796","39360","39360","34035.6388","td","null","null","null","null","null","null","[3,1]","521.6092223150238","145.46226145660785","525.498743996239"
"","canvas-keyboard-response","116","218122","0.0-6.0-5.15","537","","","","","make choice","23","3","","","critical","d","c","t","220.0396","154.6796","164","240","240","164","spektor","0.14","w","240","164","164","240","220.0396","154.6796","39360","39360","34035.6388","td","null","null","null","null","null","null","[3,1]","","",""
"","canvas-keyboard-response","117","218141","0.0-6.0-6.15","537","","","","","clear_screen","null","null","","","critical","d","c","t","220.0396","154.6796","164","240","240","164","spektor","0.14","w","240","164","164","240","220.0396","154.6796","39360","39360","34035.6388","td","null","null","null","null","null","null","[3,1]","","",""
"","canvas-keyboard-response","118","218343","0.0-6.0-0.16","537","","","","","pre trial waiting period","null","null","","","catch","sh","l","sw","217","205","231","271","162","214","trueblood","null","null","null","null","null","null","null","null","null","null","null","","180","200","260","200","36000","52000","[1,2]","456.61421115569846","427.80303997120416","453.87011492380464"
"","canvas-keyboard-response","119","218363","0.0-6.0-1.16","537","","","","","clear_screen","null","null","","","catch","sh","l","sw","217","205","231","271","162","214","trueblood","null","null","null","null","null","null","null","null","null","null","null","","180","200","260","200","36000","52000","[1,2]","456.61421115569846","427.80303997120416","453.87011492380464"
"","canvas-keyboard-response","120","218873","0.0-6.0-2.16","537","","","","","rectangles no change","null","null","","","catch","sh","l","sw","217","205","231","271","162","214","trueblood","null","null","null","null","null","null","null","null","null","null","null","","180","200","260","200","36000","52000","[1,2]","456.61421115569846","427.80303997120416","453.87011492380464"
"","canvas-keyboard-response","121","220208","0.0-6.0-3.16","537","","","","","rectangles with change","null","null","","","catch","sh","l","sw","217","205","231","271","162","214","trueblood","null","null","null","null","null","null","null","null","null","null","null","","180","200","260","200","36000","52000","[1,2]","456.61421115569846","427.80303997120416","453.87011492380464"
"","canvas-keyboard-response","122","220227","0.0-6.0-4.16","537","","","","","clear_screen","null","null","","","catch","sh","l","sw","217","205","231","271","162","214","trueblood","null","null","null","null","null","null","null","null","null","null","null","","180","200","260","200","36000","52000","[1,2]","456.61421115569846","427.80303997120416","453.87011492380464"
"","canvas-keyboard-response","123","220346","0.0-6.0-5.16","537","","","","","make choice","111","2","","","catch","sh","l","sw","217","205","231","271","162","214","trueblood","null","null","null","null","null","null","null","null","null","null","null","","180","200","260","200","36000","52000","[1,2]","","",""
"","canvas-keyboard-response","124","220364","0.0-6.0-6.16","537","","","","","clear_screen","null","null","","","catch","sh","l","sw","217","205","231","271","162","214","trueblood","null","null","null","null","null","null","null","null","null","null","null","","180","200","260","200","36000","52000","[1,2]","","",""
"","canvas-keyboard-response","125","220566","0.0-6.0-0.17","537","","","","","pre trial waiting period","null","null","","","critical","t","d","c","164","240","160.6713","232.8713","240","164","trueblood","0.05","h","164","240","240","164","160.6713","232.8713","39360","39360","37415.7294","tc","null","null","null","null","null","null","[1,3]","455.435974321179","451.88676738530376","500.21105634642856"
"","canvas-keyboard-response","126","220586","0.0-6.0-1.17","537","","","","","clear_screen","null","null","","","critical","t","d","c","164","240","160.6713","232.8713","240","164","trueblood","0.05","h","164","240","240","164","160.6713","232.8713","39360","39360","37415.7294","tc","null","null","null","null","null","null","[1,3]","455.435974321179","451.88676738530376","500.21105634642856"
"","canvas-keyboard-response","127","221095","0.0-6.0-2.17","537","","","","","rectangles no change","null","null","","","critical","t","d","c","164","240","160.6713","232.8713","240","164","trueblood","0.05","h","164","240","240","164","160.6713","232.8713","39360","39360","37415.7294","tc","null","null","null","null","null","null","[1,3]","455.435974321179","451.88676738530376","500.21105634642856"
"","canvas-keyboard-response","128","222431","0.0-6.0-3.17","537","","","","","rectangles with change","null","null","","","critical","t","d","c","164","240","160.6713","232.8713","240","164","trueblood","0.05","h","164","240","240","164","160.6713","232.8713","39360","39360","37415.7294","tc","null","null","null","null","null","null","[1,3]","455.435974321179","451.88676738530376","500.21105634642856"
"","canvas-keyboard-response","129","222448","0.0-6.0-4.17","537","","","","","clear_screen","null","null","","","critical","t","d","c","164","240","160.6713","232.8713","240","164","trueblood","0.05","h","164","240","240","164","160.6713","232.8713","39360","39360","37415.7294","tc","null","null","null","null","null","null","[1,3]","455.435974321179","451.88676738530376","500.21105634642856"
"","canvas-keyboard-response","130","222577","0.0-6.0-5.17","537","","","","","make choice","123","3","","","critical","t","d","c","164","240","160.6713","232.8713","240","164","trueblood","0.05","h","164","240","240","164","160.6713","232.8713","39360","39360","37415.7294","tc","null","null","null","null","null","null","[1,3]","","",""
"","canvas-keyboard-response","131","222595","0.0-6.0-6.17","537","","","","","clear_screen","null","null","","","critical","t","d","c","164","240","160.6713","232.8713","240","164","trueblood","0.05","h","164","240","240","164","160.6713","232.8713","39360","39360","37415.7294","tc","null","null","null","null","null","null","[1,3]","","",""
"","canvas-keyboard-response","132","222796","0.0-6.0-0.18","537","","","","","pre trial waiting period","null","null","","","critical","d","c","t","227.1683","158.0083","164","240","240","164","trueblood","0.09","w","240","164","164","240","227.1683","158.0083","39360","39360","35894.4834","tc","null","null","null","null","null","null","[3,2]","479.8482863500406","459.63828231353784","497.50501374382986"
"","canvas-keyboard-response","133","222816","0.0-6.0-1.18","537","","","","","clear_screen","null","null","","","critical","d","c","t","227.1683","158.0083","164","240","240","164","trueblood","0.09","w","240","164","164","240","227.1683","158.0083","39360","39360","35894.4834","tc","null","null","null","null","null","null","[3,2]","479.8482863500406","459.63828231353784","497.50501374382986"
"","canvas-keyboard-response","134","223328","0.0-6.0-2.18","537","","","","","rectangles no change","null","null","","","critical","d","c","t","227.1683","158.0083","164","240","240","164","trueblood","0.09","w","240","164","164","240","227.1683","158.0083","39360","39360","35894.4834","tc","null","null","null","null","null","null","[3,2]","479.8482863500406","459.63828231353784","497.50501374382986"
"","canvas-keyboard-response","135","224663","0.0-6.0-3.18","537","","","","","rectangles with change","null","null","","","critical","d","c","t","227.1683","158.0083","164","240","240","164","trueblood","0.09","w","240","164","164","240","227.1683","158.0083","39360","39360","35894.4834","tc","null","null","null","null","null","null","[3,2]","479.8482863500406","459.63828231353784","497.50501374382986"
"","canvas-keyboard-response","136","224681","0.0-6.0-4.18","537","","","","","clear_screen","null","null","","","critical","d","c","t","227.1683","158.0083","164","240","240","164","trueblood","0.09","w","240","164","164","240","227.1683","158.0083","39360","39360","35894.4834","tc","null","null","null","null","null","null","[3,2]","479.8482863500406","459.63828231353784","497.50501374382986"
"","canvas-keyboard-response","137","225330","0.0-6.0-5.18","537","","","","","make choice","643","3","","","critical","d","c","t","227.1683","158.0083","164","240","240","164","trueblood","0.09","w","240","164","164","240","227.1683","158.0083","39360","39360","35894.4834","tc","null","null","null","null","null","null","[3,2]","","",""
"","canvas-keyboard-response","138","225348","0.0-6.0-6.18","537","","","","","clear_screen","null","null","","","critical","d","c","t","227.1683","158.0083","164","240","240","164","trueblood","0.09","w","240","164","164","240","227.1683","158.0083","39360","39360","35894.4834","tc","null","null","null","null","null","null","[3,2]","","",""
"","canvas-keyboard-response","139","225549","0.0-6.0-0.19","537","","","","","pre trial waiting period","null","null","","","critical","t","c","d","240","164","164","240","237.1485","162.6685","spektor","0.02","w","240","164","164","240","237.1485","162.6685","39360","39360","38576.5967","tc","null","null","null","null","null","null","[1,2]","506.2596197367691","157.74482876573384","495.7828146214343"
"","canvas-keyboard-response","140","225570","0.0-6.0-1.19","537","","","","","clear_screen","null","null","","","critical","t","c","d","240","164","164","240","237.1485","162.6685","spektor","0.02","w","240","164","164","240","237.1485","162.6685","39360","39360","38576.5967","tc","null","null","null","null","null","null","[1,2]","506.2596197367691","157.74482876573384","495.7828146214343"
"","canvas-keyboard-response","141","226084","0.0-6.0-2.19","537","","","","","rectangles no change","null","null","","","critical","t","c","d","240","164","164","240","237.1485","162.6685","spektor","0.02","w","240","164","164","240","237.1485","162.6685","39360","39360","38576.5967","tc","null","null","null","null","null","null","[1,2]","506.2596197367691","157.74482876573384","495.7828146214343"
"","canvas-keyboard-response","142","227419","0.0-6.0-3.19","537","","","","","rectangles with change","null","null","","","critical","t","c","d","240","164","164","240","237.1485","162.6685","spektor","0.02","w","240","164","164","240","237.1485","162.6685","39360","39360","38576.5967","tc","null","null","null","null","null","null","[1,2]","506.2596197367691","157.74482876573384","495.7828146214343"
"","canvas-keyboard-response","143","227436","0.0-6.0-4.19","537","","","","","clear_screen","null","null","","","critical","t","c","d","240","164","164","240","237.1485","162.6685","spektor","0.02","w","240","164","164","240","237.1485","162.6685","39360","39360","38576.5967","tc","null","null","null","null","null","null","[1,2]","506.2596197367691","157.74482876573384","495.7828146214343"
"","canvas-keyboard-response","144","227610","0.0-6.0-5.19","537","","","","","make choice","167","1","","","critical","t","c","d","240","164","164","240","237.1485","162.6685","spektor","0.02","w","240","164","164","240","237.1485","162.6685","39360","39360","38576.5967","tc","null","null","null","null","null","null","[1,2]","","",""
"","canvas-keyboard-response","145","227627","0.0-6.0-6.19","537","","","","","clear_screen","null","null","","","critical","t","c","d","240","164","164","240","237.1485","162.6685","spektor","0.02","w","240","164","164","240","237.1485","162.6685","39360","39360","38576.5967","tc","null","null","null","null","null","null","[1,2]","","",""
"","canvas-keyboard-response","146","227828","0.0-6.0-0.20","537","","","","","pre trial waiting period","null","null","","","critical","d","t","c","162.6685","237.1485","164","240","240","164","trueblood","0.02","h","164","240","240","164","162.6685","237.1485","39360","39360","38576.5967","td","null","null","null","null","null","null","[2,1]","455.4100180469031","444.42005893147405","515.8164433733119"
"","canvas-keyboard-response","147","227847","0.0-6.0-1.20","537","","","","","clear_screen","null","null","","","critical","d","t","c","162.6685","237.1485","164","240","240","164","trueblood","0.02","h","164","240","240","164","162.6685","237.1485","39360","39360","38576.5967","td","null","null","null","null","null","null","[2,1]","455.4100180469031","444.42005893147405","515.8164433733119"
"","canvas-keyboard-response","148","228357","0.0-6.0-2.20","537","","","","","rectangles no change","null","null","","","critical","d","t","c","162.6685","237.1485","164","240","240","164","trueblood","0.02","h","164","240","240","164","162.6685","237.1485","39360","39360","38576.5967","td","null","null","null","null","null","null","[2,1]","455.4100180469031","444.42005893147405","515.8164433733119"
"","canvas-keyboard-response","149","229693","0.0-6.0-3.20","537","","","","","rectangles with change","null","null","","","critical","d","t","c","162.6685","237.1485","164","240","240","164","trueblood","0.02","h","164","240","240","164","162.6685","237.1485","39360","39360","38576.5967","td","null","null","null","null","null","null","[2,1]","455.4100180469031","444.42005893147405","515.8164433733119"
"","canvas-keyboard-response","150","229711","0.0-6.0-4.20","537","","","","","clear_screen","null","null","","","critical","d","t","c","162.6685","237.1485","164","240","240","164","trueblood","0.02","h","164","240","240","164","162.6685","237.1485","39360","39360","38576.5967","td","null","null","null","null","null","null","[2,1]","455.4100180469031","444.42005893147405","515.8164433733119"
"","canvas-keyboard-response","151","229777","0.0-6.0-5.20","537","","","","","make choice","58","2","","","critical","d","t","c","162.6685","237.1485","164","240","240","164","trueblood","0.02","h","164","240","240","164","162.6685","237.1485","39360","39360","38576.5967","td","null","null","null","null","null","null","[2,1]","","",""
"","canvas-keyboard-response","152","229795","0.0-6.0-6.20","537","","","","","clear_screen","null","null","","","critical","d","t","c","162.6685","237.1485","164","240","240","164","trueblood","0.02","h","164","240","240","164","162.6685","237.1485","39360","39360","38576.5967","td","null","null","null","null","null","null","[2,1]","","",""
"","canvas-keyboard-response","153","229996","0.0-6.0-0.21","537","","","","","pre trial waiting period","null","null","","","catch","l","sw","sh","226","195","191","191","238","145","spektor","null","null","null","null","null","null","null","null","null","null","null","","180","200","260","200","36000","52000","[1,3]","498.3061621140556","173.92292223388358","524.829083820852"
"","canvas-keyboard-response","154","230015","0.0-6.0-1.21","537","","","","","clear_screen","null","null","","","catch","l","sw","sh","226","195","191","191","238","145","spektor","null","null","null","null","null","null","null","null","null","null","null","","180","200","260","200","36000","52000","[1,3]","498.3061621140556","173.92292223388358","524.829083820852"
"","canvas-keyboard-response","155","230525","0.0-6.0-2.21","537","","","","","rectangles no change","null","null","","","catch","l","sw","sh","226","195","191","191","238","145","spektor","null","null","null","null","null","null","null","null","null","null","null","","180","200","260","200","36000","52000","[1,3]","498.3061621140556","173.92292223388358","524.829083820852"
"","canvas-keyboard-response","156","231859","0.0-6.0-3.21","537","","","","","rectangles with change","null","null","","","catch","l","sw","sh","226","195","191","191","238","145","spektor","null","null","null","null","null","null","null","null","null","null","null","","180","200","260","200","36000","52000","[1,3]","498.3061621140556","173.92292223388358","524.829083820852"
"","canvas-keyboard-response","157","231877","0.0-6.0-4.21","537","","","","","clear_screen","null","null","","","catch","l","sw","sh","226","195","191","191","238","145","spektor","null","null","null","null","null","null","null","null","null","null","null","","180","200","260","200","36000","52000","[1,3]","498.3061621140556","173.92292223388358","524.829083820852"
"","canvas-keyboard-response","158","232346","0.0-6.0-5.21","537","","","","","make choice","460","1","","","catch","l","sw","sh","226","195","191","191","238","145","spektor","null","null","null","null","null","null","null","null","null","null","null","","180","200","260","200","36000","52000","[1,3]","","",""
"","canvas-keyboard-response","159","232363","0.0-6.0-6.21","537","","","","","clear_screen","null","null","","","catch","l","sw","sh","226","195","191","191","238","145","spektor","null","null","null","null","null","null","null","null","null","null","null","","180","200","260","200","36000","52000","[1,3]","","",""
"","canvas-keyboard-response","160","232564","0.0-6.0-0.22","537","","","","","pre trial waiting period","null","null","","","critical","d","c","t","227.1683","158.0083","164","240","240","164","trueblood","0.09","w","240","164","164","240","227.1683","158.0083","39360","39360","35894.4834","td","null","null","null","null","null","null","[3,1]","493.4841385131718","450.7292907209639","468.7942745571239"
"","canvas-keyboard-response","161","232583","0.0-6.0-1.22","537","","","","","clear_screen","null","null","","","critical","d","c","t","227.1683","158.0083","164","240","240","164","trueblood","0.09","w","240","164","164","240","227.1683","158.0083","39360","39360","35894.4834","td","null","null","null","null","null","null","[3,1]","493.4841385131718","450.7292907209639","468.7942745571239"
"","canvas-keyboard-response","162","233094","0.0-6.0-2.22","537","","","","","rectangles no change","null","null","","","critical","d","c","t","227.1683","158.0083","164","240","240","164","trueblood","0.09","w","240","164","164","240","227.1683","158.0083","39360","39360","35894.4834","td","null","null","null","null","null","null","[3,1]","493.4841385131718","450.7292907209639","468.7942745571239"
"","canvas-keyboard-response","163","234428","0.0-6.0-3.22","537","","","","","rectangles with change","null","null","","","critical","d","c","t","227.1683","158.0083","164","240","240","164","trueblood","0.09","w","240","164","164","240","227.1683","158.0083","39360","39360","35894.4834","td","null","null","null","null","null","null","[3,1]","493.4841385131718","450.7292907209639","468.7942745571239"
"","canvas-keyboard-response","164","234447","0.0-6.0-4.22","537","","","","","clear_screen","null","null","","","critical","d","c","t","227.1683","158.0083","164","240","240","164","trueblood","0.09","w","240","164","164","240","227.1683","158.0083","39360","39360","35894.4834","td","null","null","null","null","null","null","[3,1]","493.4841385131718","450.7292907209639","468.7942745571239"
"","canvas-keyboard-response","165","234705","0.0-6.0-5.22","537","","","","","make choice","248","3","","","critical","d","c","t","227.1683","158.0083","164","240","240","164","trueblood","0.09","w","240","164","164","240","227.1683","158.0083","39360","39360","35894.4834","td","null","null","null","null","null","null","[3,1]","","",""
"","canvas-keyboard-response","166","234724","0.0-6.0-6.22","537","","","","","clear_screen","null","null","","","critical","d","c","t","227.1683","158.0083","164","240","240","164","trueblood","0.09","w","240","164","164","240","227.1683","158.0083","39360","39360","35894.4834","td","null","null","null","null","null","null","[3,1]","","",""
"","canvas-keyboard-response","167","234926","0.0-6.0-0.23","537","","","","","pre trial waiting period","null","null","","","critical","c","t","d","240","164","164","240","158.0083","227.1683","trueblood","0.09","h","164","240","240","164","158.0083","227.1683","39360","39360","35894.4834","dc","null","null","null","null","null","null","[3,1]","473.9853618267322","463.75963844535295","454.96922973009447"
"","canvas-keyboard-response","168","234944","0.0-6.0-1.23","537","","","","","clear_screen","null","null","","","critical","c","t","d","240","164","164","240","158.0083","227.1683","trueblood","0.09","h","164","240","240","164","158.0083","227.1683","39360","39360","35894.4834","dc","null","null","null","null","null","null","[3,1]","473.9853618267322","463.75963844535295","454.96922973009447"
"","canvas-keyboard-response","169","235454","0.0-6.0-2.23","537","","","","","rectangles no change","null","null","","","critical","c","t","d","240","164","164","240","158.0083","227.1683","trueblood","0.09","h","164","240","240","164","158.0083","227.1683","39360","39360","35894.4834","dc","null","null","null","null","null","null","[3,1]","473.9853618267322","463.75963844535295","454.96922973009447"
"","canvas-keyboard-response","170","236789","0.0-6.0-3.23","537","","","","","rectangles with change","null","null","","","critical","c","t","d","240","164","164","240","158.0083","227.1683","trueblood","0.09","h","164","240","240","164","158.0083","227.1683","39360","39360","35894.4834","dc","null","null","null","null","null","null","[3,1]","473.9853618267322","463.75963844535295","454.96922973009447"
"","canvas-keyboard-response","171","236806","0.0-6.0-4.23","537","","","","","clear_screen","null","null","","","critical","c","t","d","240","164","164","240","158.0083","227.1683","trueblood","0.09","h","164","240","240","164","158.0083","227.1683","39360","39360","35894.4834","dc","null","null","null","null","null","null","[3,1]","473.9853618267322","463.75963844535295","454.96922973009447"
"","canvas-keyboard-response","172","237482","0.0-6.0-5.23","537","","","","","make choice","668","1","","","critical","c","t","d","240","164","164","240","158.0083","227.1683","trueblood","0.09","h","164","240","240","164","158.0083","227.1683","39360","39360","35894.4834","dc","null","null","null","null","null","null","[3,1]","","",""
"","canvas-keyboard-response","173","237499","0.0-6.0-6.23","537","","","","","clear_screen","null","null","","","critical","c","t","d","240","164","164","240","158.0083","227.1683","trueblood","0.09","h","164","240","240","164","158.0083","227.1683","39360","39360","35894.4834","dc","null","null","null","null","null","null","[3,1]","","",""
"","canvas-keyboard-response","174","237700","0.0-6.0-0.24","537","","","","","pre trial waiting period","null","null","","","critical","t","d","c","164","240","164","240","240","164","trueblood","0","h","164","240","240","164","164","240","39360","39360","39360","tc","null","null","null","null","null","null","[1,3]","455.4225283135234","464.30726032520636","477.3186869399753"
"","canvas-keyboard-response","175","237718","0.0-6.0-1.24","537","","","","","clear_screen","null","null","","","critical","t","d","c","164","240","164","240","240","164","trueblood","0","h","164","240","240","164","164","240","39360","39360","39360","tc","null","null","null","null","null","null","[1,3]","455.4225283135234","464.30726032520636","477.3186869399753"
"","canvas-keyboard-response","176","238227","0.0-6.0-2.24","537","","","","","rectangles no change","null","null","","","critical","t","d","c","164","240","164","240","240","164","trueblood","0","h","164","240","240","164","164","240","39360","39360","39360","tc","null","null","null","null","null","null","[1,3]","455.4225283135234","464.30726032520636","477.3186869399753"
"","canvas-keyboard-response","177","239562","0.0-6.0-3.24","537","","","","","rectangles with change","null","null","","","critical","t","d","c","164","240","164","240","240","164","trueblood","0","h","164","240","240","164","164","240","39360","39360","39360","tc","null","null","null","null","null","null","[1,3]","455.4225283135234","464.30726032520636","477.3186869399753"
"","canvas-keyboard-response","178","239581","0.0-6.0-4.24","537","","","","","clear_screen","null","null","","","critical","t","d","c","164","240","164","240","240","164","trueblood","0","h","164","240","240","164","164","240","39360","39360","39360","tc","null","null","null","null","null","null","[1,3]","455.4225283135234","464.30726032520636","477.3186869399753"
"","canvas-keyboard-response","179","239809","0.0-6.0-5.24","537","","","","","make choice","223","3","","","critical","t","d","c","164","240","164","240","240","164","trueblood","0","h","164","240","240","164","164","240","39360","39360","39360","tc","null","null","null","null","null","null","[1,3]","","",""
"","canvas-keyboard-response","180","239827","0.0-6.0-6.24","537","","","","","clear_screen","null","null","","","critical","t","d","c","164","240","164","240","240","164","trueblood","0","h","164","240","240","164","164","240","39360","39360","39360","tc","null","null","null","null","null","null","[1,3]","","",""
"","canvas-keyboard-response","181","240028","0.0-6.0-0.25","537","","","","","pre trial waiting period","null","null","","","critical","t","c","d","240","164","164","240","240","164","trueblood","0","w","240","164","164","240","240","164","39360","39360","39360","td","null","null","null","null","null","null","[1,3]","506.78063661770904","441.6475630424976","481.3526226884747"
"","canvas-keyboard-response","182","240047","0.0-6.0-1.25","537","","","","","clear_screen","null","null","","","critical","t","c","d","240","164","164","240","240","164","trueblood","0","w","240","164","164","240","240","164","39360","39360","39360","td","null","null","null","null","null","null","[1,3]","506.78063661770904","441.6475630424976","481.3526226884747"
"","canvas-keyboard-response","183","240557","0.0-6.0-2.25","537","","","","","rectangles no change","null","null","","","critical","t","c","d","240","164","164","240","240","164","trueblood","0","w","240","164","164","240","240","164","39360","39360","39360","td","null","null","null","null","null","null","[1,3]","506.78063661770904","441.6475630424976","481.3526226884747"
"","canvas-keyboard-response","184","241891","0.0-6.0-3.25","537","","","","","rectangles with change","null","null","","","critical","t","c","d","240","164","164","240","240","164","trueblood","0","w","240","164","164","240","240","164","39360","39360","39360","td","null","null","null","null","null","null","[1,3]","506.78063661770904","441.6475630424976","481.3526226884747"
"","canvas-keyboard-response","185","241908","0.0-6.0-4.25","537","","","","","clear_screen","null","null","","","critical","t","c","d","240","164","164","240","240","164","trueblood","0","w","240","164","164","240","240","164","39360","39360","39360","td","null","null","null","null","null","null","[1,3]","506.78063661770904","441.6475630424976","481.3526226884747"
"","canvas-keyboard-response","186","242122","0.0-6.0-5.25","537","","","","","make choice","205","3","","","critical","t","c","d","240","164","164","240","240","164","trueblood","0","w","240","164","164","240","240","164","39360","39360","39360","td","null","null","null","null","null","null","[1,3]","","",""
"","canvas-keyboard-response","187","242139","0.0-6.0-6.25","537","","","","","clear_screen","null","null","","","critical","t","c","d","240","164","164","240","240","164","trueblood","0","w","240","164","164","240","240","164","39360","39360","39360","td","null","null","null","null","null","null","[1,3]","","",""
"","canvas-keyboard-response","188","242352","0.0-6.0-0.26","537","","","","","pre trial waiting period","null","null","","","critical","c","d","t","240","164","162.6685","237.1485","164","240","trueblood","0.02","h","164","240","240","164","162.6685","237.1485","39360","39360","38576.5967","dc","null","null","null","null","null","null","[2,1]","517.4973634762756","448.4586614498478","453.3263670076222"
"","canvas-keyboard-response","189","242370","0.0-6.0-1.26","537","","","","","clear_screen","null","null","","","critical","c","d","t","240","164","162.6685","237.1485","164","240","trueblood","0.02","h","164","240","240","164","162.6685","237.1485","39360","39360","38576.5967","dc","null","null","null","null","null","null","[2,1]","517.4973634762756","448.4586614498478","453.3263670076222"
"","canvas-keyboard-response","190","242882","0.0-6.0-2.26","537","","","","","rectangles no change","null","null","","","critical","c","d","t","240","164","162.6685","237.1485","164","240","trueblood","0.02","h","164","240","240","164","162.6685","237.1485","39360","39360","38576.5967","dc","null","null","null","null","null","null","[2,1]","517.4973634762756","448.4586614498478","453.3263670076222"
"","canvas-keyboard-response","191","244217","0.0-6.0-3.26","537","","","","","rectangles with change","null","null","","","critical","c","d","t","240","164","162.6685","237.1485","164","240","trueblood","0.02","h","164","240","240","164","162.6685","237.1485","39360","39360","38576.5967","dc","null","null","null","null","null","null","[2,1]","517.4973634762756","448.4586614498478","453.3263670076222"
"","canvas-keyboard-response","192","244236","0.0-6.0-4.26","537","","","","","clear_screen","null","null","","","critical","c","d","t","240","164","162.6685","237.1485","164","240","trueblood","0.02","h","164","240","240","164","162.6685","237.1485","39360","39360","38576.5967","dc","null","null","null","null","null","null","[2,1]","517.4973634762756","448.4586614498478","453.3263670076222"
"","canvas-keyboard-response","193","244313","0.0-6.0-5.26","537","","","","","make choice","70","1","","","critical","c","d","t","240","164","162.6685","237.1485","164","240","trueblood","0.02","h","164","240","240","164","162.6685","237.1485","39360","39360","38576.5967","dc","null","null","null","null","null","null","[2,1]","","",""
"","canvas-keyboard-response","194","244331","0.0-6.0-6.26","537","","","","","clear_screen","null","null","","","critical","c","d","t","240","164","162.6685","237.1485","164","240","trueblood","0.02","h","164","240","240","164","162.6685","237.1485","39360","39360","38576.5967","dc","null","null","null","null","null","null","[2,1]","","",""
"","canvas-keyboard-response","195","244533","0.0-6.0-0.27","537","","","","","pre trial waiting period","null","null","","","critical","c","d","t","164","240","240","164","240","164","spektor","0","w","240","164","164","240","240","164","39360","39360","39360","tc","null","null","null","null","null","null","[3,1]","456.46801953000903","196.4209811753188","494.2232922779196"
"","canvas-keyboard-response","196","244552","0.0-6.0-1.27","537","","","","","clear_screen","null","null","","","critical","c","d","t","164","240","240","164","240","164","spektor","0","w","240","164","164","240","240","164","39360","39360","39360","tc","null","null","null","null","null","null","[3,1]","456.46801953000903","196.4209811753188","494.2232922779196"
"","canvas-keyboard-response","197","245062","0.0-6.0-2.27","537","","","","","rectangles no change","null","null","","","critical","c","d","t","164","240","240","164","240","164","spektor","0","w","240","164","164","240","240","164","39360","39360","39360","tc","null","null","null","null","null","null","[3,1]","456.46801953000903","196.4209811753188","494.2232922779196"
"","canvas-keyboard-response","198","246396","0.0-6.0-3.27","537","","","","","rectangles with change","null","null","","","critical","c","d","t","164","240","240","164","240","164","spektor","0","w","240","164","164","240","240","164","39360","39360","39360","tc","null","null","null","null","null","null","[3,1]","456.46801953000903","196.4209811753188","494.2232922779196"
"","canvas-keyboard-response","199","246404","0.0-6.0-4.27","537","","","","","clear_screen","1","3","","","critical","c","d","t","164","240","240","164","240","164","spektor","0","w","240","164","164","240","240","164","39360","39360","39360","tc","null","null","null","null","null","null","[3,1]","456.46801953000903","196.4209811753188","494.2232922779196"
"","canvas-keyboard-response","200","246825","0.0-6.0-5.27","537","","","","","make choice","411","3","","","critical","c","d","t","164","240","240","164","240","164","spektor","0","w","240","164","164","240","240","164","39360","39360","39360","tc","null","null","null","null","null","null","[3,1]","","",""
"","canvas-keyboard-response","201","246843","0.0-6.0-6.27","537","","","","","clear_screen","null","null","","","critical","c","d","t","164","240","240","164","240","164","spektor","0","w","240","164","164","240","240","164","39360","39360","39360","tc","null","null","null","null","null","null","[3,1]","","",""
"","canvas-keyboard-response","202","247045","0.0-6.0-0.28","537","","","","","pre trial waiting period","null","null","","","catch","l","sh","sw","293","225","164","166","159","218","trueblood","null","null","null","null","null","null","null","null","null","null","null","","180","200","260","200","36000","52000","[1,3]","473.1512576263986","503.60772419595384","459.87096650127523"
"","canvas-keyboard-response","203","247064","0.0-6.0-1.28","537","","","","","clear_screen","null","null","","","catch","l","sh","sw","293","225","164","166","159","218","trueblood","null","null","null","null","null","null","null","null","null","null","null","","180","200","260","200","36000","52000","[1,3]","473.1512576263986","503.60772419595384","459.87096650127523"
"","canvas-keyboard-response","204","247574","0.0-6.0-2.28","537","","","","","rectangles no change","null","null","","","catch","l","sh","sw","293","225","164","166","159","218","trueblood","null","null","null","null","null","null","null","null","null","null","null","","180","200","260","200","36000","52000","[1,3]","473.1512576263986","503.60772419595384","459.87096650127523"
"","canvas-keyboard-response","205","248907","0.0-6.0-3.28","537","","","","","rectangles with change","null","null","","","catch","l","sh","sw","293","225","164","166","159","218","trueblood","null","null","null","null","null","null","null","null","null","null","null","","180","200","260","200","36000","52000","[1,3]","473.1512576263986","503.60772419595384","459.87096650127523"
"","canvas-keyboard-response","206","248925","0.0-6.0-4.28","537","","","","","clear_screen","null","null","","","catch","l","sh","sw","293","225","164","166","159","218","trueblood","null","null","null","null","null","null","null","null","null","null","null","","180","200","260","200","36000","52000","[1,3]","473.1512576263986","503.60772419595384","459.87096650127523"
"","canvas-keyboard-response","207","249153","0.0-6.0-5.28","537","","","","","make choice","220","1","","","catch","l","sh","sw","293","225","164","166","159","218","trueblood","null","null","null","null","null","null","null","null","null","null","null","","180","200","260","200","36000","52000","[1,3]","","",""
"","canvas-keyboard-response","208","249171","0.0-6.0-6.28","537","","","","","clear_screen","null","null","","","catch","l","sh","sw","293","225","164","166","159","218","trueblood","null","null","null","null","null","null","null","null","null","null","null","","180","200","260","200","36000","52000","[1,3]","","",""
"","canvas-keyboard-response","209","249372","0.0-6.0-0.29","537","","","","","pre trial waiting period","null","null","","","catch","sw","sh","l","180","200","202","190","162","272","trueblood","null","null","null","null","null","null","null","null","null","null","null","","180","200","260","200","36000","52000","[2,3]","464.7636462439077","476.2634507085052","400.129804755911"
"","canvas-keyboard-response","210","249390","0.0-6.0-1.29","537","","","","","clear_screen","null","null","","","catch","sw","sh","l","180","200","202","190","162","272","trueblood","null","null","null","null","null","null","null","null","null","null","null","","180","200","260","200","36000","52000","[2,3]","464.7636462439077","476.2634507085052","400.129804755911"
"","canvas-keyboard-response","211","249902","0.0-6.0-2.29","537","","","","","rectangles no change","null","null","","","catch","sw","sh","l","180","200","202","190","162","272","trueblood","null","null","null","null","null","null","null","null","null","null","null","","180","200","260","200","36000","52000","[2,3]","464.7636462439077","476.2634507085052","400.129804755911"
"","canvas-keyboard-response","212","251235","0.0-6.0-3.29","537","","","","","rectangles with change","null","null","","","catch","sw","sh","l","180","200","202","190","162","272","trueblood","null","null","null","null","null","null","null","null","null","null","null","","180","200","260","200","36000","52000","[2,3]","464.7636462439077","476.2634507085052","400.129804755911"
"","canvas-keyboard-response","213","251254","0.0-6.0-4.29","537","","","","","clear_screen","null","null","","","catch","sw","sh","l","180","200","202","190","162","272","trueblood","null","null","null","null","null","null","null","null","null","null","null","","180","200","260","200","36000","52000","[2,3]","464.7636462439077","476.2634507085052","400.129804755911"
"","canvas-keyboard-response","214","251585","0.0-6.0-5.29","537","","","","","make choice","324","2","","","catch","sw","sh","l","180","200","202","190","162","272","trueblood","null","null","null","null","null","null","null","null","null","null","null","","180","200","260","200","36000","52000","[2,3]","","",""
"","canvas-keyboard-response","215","251603","0.0-6.0-6.29","537","","","","","clear_screen","null","null","","","catch","sw","sh","l","180","200","202","190","162","272","trueblood","null","null","null","null","null","null","null","null","null","null","null","","180","200","260","200","36000","52000","[2,3]","","",""
"","canvas-keyboard-response","216","251804","0.0-6.0-0.30","537","","","","","pre trial waiting period","null","null","","","catch","l","sw","sh","236","217","202","183","235","178","trueblood","null","null","null","null","null","null","null","null","null","null","null","","180","200","260","200","36000","52000","[1,2]","482.8561677437844","504.67607298007766","478.1847076228792"
"","canvas-keyboard-response","217","251822","0.0-6.0-1.30","537","","","","","clear_screen","null","null","","","catch","l","sw","sh","236","217","202","183","235","178","trueblood","null","null","null","null","null","null","null","null","null","null","null","","180","200","260","200","36000","52000","[1,2]","482.8561677437844","504.67607298007766","478.1847076228792"
"","canvas-keyboard-response","218","252335","0.0-6.0-2.30","537","","","","","rectangles no change","null","null","","","catch","l","sw","sh","236","217","202","183","235","178","trueblood","null","null","null","null","null","null","null","null","null","null","null","","180","200","260","200","36000","52000","[1,2]","482.8561677437844","504.67607298007766","478.1847076228792"
"","canvas-keyboard-response","219","253668","0.0-6.0-3.30","537","","","","","rectangles with change","null","null","","","catch","l","sw","sh","236","217","202","183","235","178","trueblood","null","null","null","null","null","null","null","null","null","null","null","","180","200","260","200","36000","52000","[1,2]","482.8561677437844","504.67607298007766","478.1847076228792"
"","canvas-keyboard-response","220","253685","0.0-6.0-4.30","537","","","","","clear_screen","null","null","","","catch","l","sw","sh","236","217","202","183","235","178","trueblood","null","null","null","null","null","null","null","null","null","null","null","","180","200","260","200","36000","52000","[1,2]","482.8561677437844","504.67607298007766","478.1847076228792"
"","canvas-keyboard-response","221","253834","0.0-6.0-5.30","537","","","","","make choice","141","1","","","catch","l","sw","sh","236","217","202","183","235","178","trueblood","null","null","null","null","null","null","null","null","null","null","null","","180","200","260","200","36000","52000","[1,2]","","",""
"","canvas-keyboard-response","222","253851","0.0-6.0-6.30","537","","","","","clear_screen","null","null","","","catch","l","sw","sh","236","217","202","183","235","178","trueblood","null","null","null","null","null","null","null","null","null","null","null","","180","200","260","200","36000","52000","[1,2]","","",""
"","canvas-keyboard-response","223","254052","0.0-6.0-0.31","537","","","","","pre trial waiting period","null","null","","","critical","c","d","t","164","240","220.0396","154.6796","240","164","trueblood","0.14","w","240","164","164","240","220.0396","154.6796","39360","39360","34035.6388","dc","null","null","null","null","null","null","[2,1]","457.2915841560328","476.85199459838907","499.5712843366417"
"","canvas-keyboard-response","224","254071","0.0-6.0-1.31","537","","","","","clear_screen","null","null","","","critical","c","d","t","164","240","220.0396","154.6796","240","164","trueblood","0.14","w","240","164","164","240","220.0396","154.6796","39360","39360","34035.6388","dc","null","null","null","null","null","null","[2,1]","457.2915841560328","476.85199459838907","499.5712843366417"
"","canvas-keyboard-response","225","254586","0.0-6.0-2.31","537","","","","","rectangles no change","null","null","","","critical","c","d","t","164","240","220.0396","154.6796","240","164","trueblood","0.14","w","240","164","164","240","220.0396","154.6796","39360","39360","34035.6388","dc","null","null","null","null","null","null","[2,1]","457.2915841560328","476.85199459838907","499.5712843366417"
"","canvas-keyboard-response","226","255920","0.0-6.0-3.31","537","","","","","rectangles with change","null","null","","","critical","c","d","t","164","240","220.0396","154.6796","240","164","trueblood","0.14","w","240","164","164","240","220.0396","154.6796","39360","39360","34035.6388","dc","null","null","null","null","null","null","[2,1]","457.2915841560328","476.85199459838907","499.5712843366417"
"","canvas-keyboard-response","227","255937","0.0-6.0-4.31","537","","","","","clear_screen","null","null","","","critical","c","d","t","164","240","220.0396","154.6796","240","164","trueblood","0.14","w","240","164","164","240","220.0396","154.6796","39360","39360","34035.6388","dc","null","null","null","null","null","null","[2,1]","457.2915841560328","476.85199459838907","499.5712843366417"
"","canvas-keyboard-response","228","256034","0.0-6.0-5.31","537","","","","","make choice","90","1","","","critical","c","d","t","164","240","220.0396","154.6796","240","164","trueblood","0.14","w","240","164","164","240","220.0396","154.6796","39360","39360","34035.6388","dc","null","null","null","null","null","null","[2,1]","","",""
"","canvas-keyboard-response","229","256051","0.0-6.0-6.31","537","","","","","clear_screen","null","null","","","critical","c","d","t","164","240","220.0396","154.6796","240","164","trueblood","0.14","w","240","164","164","240","220.0396","154.6796","39360","39360","34035.6388","dc","null","null","null","null","null","null","[2,1]","","",""
"","canvas-keyboard-response","230","256252","0.0-6.0-0.32","537","","","","","pre trial waiting period","null","null","","","catch","sh","sw","l","190","172","145","212","264","163","trueblood","null","null","null","null","null","null","null","null","null","null","null","","180","200","260","200","36000","52000","[1,3]","476.3779052003531","483.4969717562018","474.8511356468581"
"","canvas-keyboard-response","231","256271","0.0-6.0-1.32","537","","","","","clear_screen","null","null","","","catch","sh","sw","l","190","172","145","212","264","163","trueblood","null","null","null","null","null","null","null","null","null","null","null","","180","200","260","200","36000","52000","[1,3]","476.3779052003531","483.4969717562018","474.8511356468581"
"","canvas-keyboard-response","232","256780","0.0-6.0-2.32","537","","","","","rectangles no change","null","null","","","catch","sh","sw","l","190","172","145","212","264","163","trueblood","null","null","null","null","null","null","null","null","null","null","null","","180","200","260","200","36000","52000","[1,3]","476.3779052003531","483.4969717562018","474.8511356468581"
"","canvas-keyboard-response","233","258114","0.0-6.0-3.32","537","","","","","rectangles with change","null","null","","","catch","sh","sw","l","190","172","145","212","264","163","trueblood","null","null","null","null","null","null","null","null","null","null","null","","180","200","260","200","36000","52000","[1,3]","476.3779052003531","483.4969717562018","474.8511356468581"
"","canvas-keyboard-response","234","258130","0.0-6.0-4.32","537","","","","","clear_screen","null","null","","","catch","sh","sw","l","190","172","145","212","264","163","trueblood","null","null","null","null","null","null","null","null","null","null","null","","180","200","260","200","36000","52000","[1,3]","476.3779052003531","483.4969717562018","474.8511356468581"
"","canvas-keyboard-response","235","258513","0.0-6.0-5.32","537","","","","","make choice","377","3","","","catch","sh","sw","l","190","172","145","212","264","163","trueblood","null","null","null","null","null","null","null","null","null","null","null","","180","200","260","200","36000","52000","[1,3]","","",""
"","canvas-keyboard-response","236","258531","0.0-6.0-6.32","537","","","","","clear_screen","null","null","","","catch","sh","sw","l","190","172","145","212","264","163","trueblood","null","null","null","null","null","null","null","null","null","null","null","","180","200","260","200","36000","52000","[1,3]","","",""
"","canvas-keyboard-response","237","258731","0.0-6.0-0.33","537","","","","","pre trial waiting period","null","null","","","catch","l","sw","sh","224","216","193","162","165","203","trueblood","null","null","null","null","null","null","null","null","null","null","null","","180","200","260","200","36000","52000","[1,3]","463.98690656473536","477.9756098714011","473.6525540473326"
"","canvas-keyboard-response","238","258750","0.0-6.0-1.33","537","","","","","clear_screen","null","null","","","catch","l","sw","sh","224","216","193","162","165","203","trueblood","null","null","null","null","null","null","null","null","null","null","null","","180","200","260","200","36000","52000","[1,3]","463.98690656473536","477.9756098714011","473.6525540473326"
"","canvas-keyboard-response","239","259260","0.0-6.0-2.33","537","","","","","rectangles no change","null","null","","","catch","l","sw","sh","224","216","193","162","165","203","trueblood","null","null","null","null","null","null","null","null","null","null","null","","180","200","260","200","36000","52000","[1,3]","463.98690656473536","477.9756098714011","473.6525540473326"
"","canvas-keyboard-response","240","260593","0.0-6.0-3.33","537","","","","","rectangles with change","null","null","","","catch","l","sw","sh","224","216","193","162","165","203","trueblood","null","null","null","null","null","null","null","null","null","null","null","","180","200","260","200","36000","52000","[1,3]","463.98690656473536","477.9756098714011","473.6525540473326"
"","canvas-keyboard-response","241","260612","0.0-6.0-4.33","537","","","","","clear_screen","null","null","","","catch","l","sw","sh","224","216","193","162","165","203","trueblood","null","null","null","null","null","null","null","null","null","null","null","","180","200","260","200","36000","52000","[1,3]","463.98690656473536","477.9756098714011","473.6525540473326"
"","canvas-keyboard-response","242","260809","0.0-6.0-5.33","537","","","","","make choice","190","1","","","catch","l","sw","sh","224","216","193","162","165","203","trueblood","null","null","null","null","null","null","null","null","null","null","null","","180","200","260","200","36000","52000","[1,3]","","",""
"","canvas-keyboard-response","243","260826","0.0-6.0-6.33","537","","","","","clear_screen","null","null","","","catch","l","sw","sh","224","216","193","162","165","203","trueblood","null","null","null","null","null","null","null","null","null","null","null","","180","200","260","200","36000","52000","[1,3]","","",""
"","canvas-keyboard-response","244","261027","0.0-6.0-0.34","537","","","","","pre trial waiting period","null","null","","","critical","d","c","t","162.6685","237.1485","240","164","164","240","trueblood","0.02","h","164","240","240","164","162.6685","237.1485","39360","39360","38576.5967","tc","null","null","null","null","null","null","[3,2]","447.92696490154435","473.693904975365","422.7843854674139"
"","canvas-keyboard-response","245","261046","0.0-6.0-1.34","537","","","","","clear_screen","null","null","","","critical","d","c","t","162.6685","237.1485","240","164","164","240","trueblood","0.02","h","164","240","240","164","162.6685","237.1485","39360","39360","38576.5967","tc","null","null","null","null","null","null","[3,2]","447.92696490154435","473.693904975365","422.7843854674139"
"","canvas-keyboard-response","246","261556","0.0-6.0-2.34","537","","","","","rectangles no change","null","null","","","critical","d","c","t","162.6685","237.1485","240","164","164","240","trueblood","0.02","h","164","240","240","164","162.6685","237.1485","39360","39360","38576.5967","tc","null","null","null","null","null","null","[3,2]","447.92696490154435","473.693904975365","422.7843854674139"
"","canvas-keyboard-response","247","262890","0.0-6.0-3.34","537","","","","","rectangles with change","null","null","","","critical","d","c","t","162.6685","237.1485","240","164","164","240","trueblood","0.02","h","164","240","240","164","162.6685","237.1485","39360","39360","38576.5967","tc","null","null","null","null","null","null","[3,2]","447.92696490154435","473.693904975365","422.7843854674139"
"","canvas-keyboard-response","248","262909","0.0-6.0-4.34","537","","","","","clear_screen","null","null","","","critical","d","c","t","162.6685","237.1485","240","164","164","240","trueblood","0.02","h","164","240","240","164","162.6685","237.1485","39360","39360","38576.5967","tc","null","null","null","null","null","null","[3,2]","447.92696490154435","473.693904975365","422.7843854674139"
"","canvas-keyboard-response","249","263145","0.0-6.0-5.34","537","","","","","make choice","226","2","","","critical","d","c","t","162.6685","237.1485","240","164","164","240","trueblood","0.02","h","164","240","240","164","162.6685","237.1485","39360","39360","38576.5967","tc","null","null","null","null","null","null","[3,2]","","",""
"","canvas-keyboard-response","250","263162","0.0-6.0-6.34","537","","","","","clear_screen","null","null","","","critical","d","c","t","162.6685","237.1485","240","164","164","240","trueblood","0.02","h","164","240","240","164","162.6685","237.1485","39360","39360","38576.5967","tc","null","null","null","null","null","null","[3,2]","","",""
"","canvas-keyboard-response","251","263364","0.0-6.0-0.35","537","","","","","pre trial waiting period","null","null","","","critical","t","d","c","240","164","237.1485","162.6685","164","240","spektor","0.02","w","240","164","164","240","237.1485","162.6685","39360","39360","38576.5967","td","null","null","null","null","null","null","[1,2]","528.734104407949","167.36222169080423","502.8432803948362"
"","canvas-keyboard-response","252","263382","0.0-6.0-1.35","537","","","","","clear_screen","null","null","","","critical","t","d","c","240","164","237.1485","162.6685","164","240","spektor","0.02","w","240","164","164","240","237.1485","162.6685","39360","39360","38576.5967","td","null","null","null","null","null","null","[1,2]","528.734104407949","167.36222169080423","502.8432803948362"
"","canvas-keyboard-response","253","263891","0.0-6.0-2.35","537","","","","","rectangles no change","null","null","","","critical","t","d","c","240","164","237.1485","162.6685","164","240","spektor","0.02","w","240","164","164","240","237.1485","162.6685","39360","39360","38576.5967","td","null","null","null","null","null","null","[1,2]","528.734104407949","167.36222169080423","502.8432803948362"
"","canvas-keyboard-response","254","265227","0.0-6.0-3.35","537","","","","","rectangles with change","null","null","","","critical","t","d","c","240","164","237.1485","162.6685","164","240","spektor","0.02","w","240","164","164","240","237.1485","162.6685","39360","39360","38576.5967","td","null","null","null","null","null","null","[1,2]","528.734104407949","167.36222169080423","502.8432803948362"
"","canvas-keyboard-response","255","265244","0.0-6.0-4.35","537","","","","","clear_screen","null","null","","","critical","t","d","c","240","164","237.1485","162.6685","164","240","spektor","0.02","w","240","164","164","240","237.1485","162.6685","39360","39360","38576.5967","td","null","null","null","null","null","null","[1,2]","528.734104407949","167.36222169080423","502.8432803948362"
"","canvas-keyboard-response","256","265601","0.0-6.0-5.35","537","","","","","make choice","350","1","","","critical","t","d","c","240","164","237.1485","162.6685","164","240","spektor","0.02","w","240","164","164","240","237.1485","162.6685","39360","39360","38576.5967","td","null","null","null","null","null","null","[1,2]","","",""
"","canvas-keyboard-response","257","265619","0.0-6.0-6.35","537","","","","","clear_screen","null","null","","","critical","t","d","c","240","164","237.1485","162.6685","164","240","spektor","0.02","w","240","164","164","240","237.1485","162.6685","39360","39360","38576.5967","td","null","null","null","null","null","null","[1,2]","","",""
"","canvas-keyboard-response","258","265820","0.0-6.0-0.36","537","","","","","pre trial waiting period","null","null","","","catch","l","sw","sh","167","299","162","238","167","211","spektor","null","null","null","null","null","null","null","null","null","null","null","","180","200","260","200","36000","52000","[1,2]","446.99211332881373","91.47959847191724","518.9175738461441"
"","canvas-keyboard-response","259","265838","0.0-6.0-1.36","537","","","","","clear_screen","null","null","","","catch","l","sw","sh","167","299","162","238","167","211","spektor","null","null","null","null","null","null","null","null","null","null","null","","180","200","260","200","36000","52000","[1,2]","446.99211332881373","91.47959847191724","518.9175738461441"
"","canvas-keyboard-response","260","266351","0.0-6.0-2.36","537","","","","","rectangles no change","null","null","","","catch","l","sw","sh","167","299","162","238","167","211","spektor","null","null","null","null","null","null","null","null","null","null","null","","180","200","260","200","36000","52000","[1,2]","446.99211332881373","91.47959847191724","518.9175738461441"
"","canvas-keyboard-response","261","267687","0.0-6.0-3.36","537","","","","","rectangles with change","null","null","","","catch","l","sw","sh","167","299","162","238","167","211","spektor","null","null","null","null","null","null","null","null","null","null","null","","180","200","260","200","36000","52000","[1,2]","446.99211332881373","91.47959847191724","518.9175738461441"
"","canvas-keyboard-response","262","267704","0.0-6.0-4.36","537","","","","","clear_screen","null","null","","","catch","l","sw","sh","167","299","162","238","167","211","spektor","null","null","null","null","null","null","null","null","null","null","null","","180","200","260","200","36000","52000","[1,2]","446.99211332881373","91.47959847191724","518.9175738461441"
"","canvas-keyboard-response","263","267785","0.0-6.0-5.36","537","","","","","make choice","73","1","","","catch","l","sw","sh","167","299","162","238","167","211","spektor","null","null","null","null","null","null","null","null","null","null","null","","180","200","260","200","36000","52000","[1,2]","","",""
"","canvas-keyboard-response","264","267803","0.0-6.0-6.36","537","","","","","clear_screen","null","null","","","catch","l","sw","sh","167","299","162","238","167","211","spektor","null","null","null","null","null","null","null","null","null","null","null","","180","200","260","200","36000","52000","[1,2]","","",""
"","canvas-keyboard-response","265","268004","0.0-6.0-0.37","537","","","","","pre trial waiting period","null","null","","","critical","t","d","c","164","240","164","240","240","164","spektor","0","h","164","240","240","164","164","240","39360","39360","39360","dc","null","null","null","null","null","null","[2,3]","477.95472751192716","99.19232902579104","534.2638788203058"
"","canvas-keyboard-response","266","268021","0.0-6.0-1.37","537","","","","","clear_screen","null","null","","","critical","t","d","c","164","240","164","240","240","164","spektor","0","h","164","240","240","164","164","240","39360","39360","39360","dc","null","null","null","null","null","null","[2,3]","477.95472751192716","99.19232902579104","534.2638788203058"
