"success","trial_type","trial_index","time_elapsed","internal_node_id","sub_n","timeout","failed_images","failed_audio","failed_video","screen_id","rt","response","stimulus","view_history","trial","r1","r2","r3","w1","h1","w2","h2","w3","h3","display","tdd","tdo","tw","th","cw","ch","dw","dh","ta","ca","da","probe","csls","csss","clls","clss","sa","la","probe_rects","r1yloc","r2yloc","r3yloc"
"true","fullscreen","0","2020","0.0-0.0","506","","","","","","","","","","","","","","","","","","","","","","","","","","","","","","","","","","","","","","","","","",""
"true","preload","1","2061","0.0-1.0","506","false","[]","[]","[]","img preload","","","","","","","","","","","","","","","","","","","","","","","","","","","","","","","","","","","","",""
"","survey-html-form","2","6211","0.0-2.0","506","","","","","enter-sub-number","4141","{""response"":""506""}","","","","","","","","","","","","","","","","","","","","","","","","","","","","","","","","","","",""
"","image-button-response","3","55370","0.0-3.0","506","","","","","","49050","0","consent.png","","","","","","","","","","","","","","","","","","","","","","","","","","","","","","","","","",""
"","html-button-response","4","62545","0.0-4.0","506","","","","","intro mssg","7171","0","<div style= ""font-size:25px;"" <p> <strong> Welcome! </strong><br> <p style=""color:#8B0000; font-size:25px;""><strong> Please do NOT exit full screen until you are done with the experiment. </strong> </p><p style=""font-size:25px;color:#8B0000;""> <strong> Your data will be lost <br> if you try to go back or refresh the page after the experiment starts. Feel free to click ""previous"" during the instructions, however.</strong> </p><br><p> <strong> Thanks in advance for your contribution to our research! </strong></p>","","","","","","","","","","","","","","","","","","","","","","","","","","","","","","","","","",""
"","instructions","5","110338","0.0-5.0","506","","","","","instructions","47787","","","[{""page_index"":0,""viewing_time"":7221},{""page_index"":1,""viewing_time"":6055},{""page_index"":2,""viewing_time"":6120},{""page_index"":3,""viewing_time"":16103},{""page_index"":4,""viewing_time"":5480},{""page_index"":5,""viewing_time"":2607},{""page_index"":6,""viewing_time"":2505},{""page_index"":7,""viewing_time"":1696}]","","","","","","","","","","","","","","","","","","","","","","","","","","","","","","","","",""
"","canvas-keyboard-response","6","110542","0.0-6.0-0.0","506","","","","","pre trial waiting period","null","null","","","critical","c","t","d","240","164","164","240","158.0083","227.1683","trueblood","0.09","h","164","240","240","164","158.0083","227.1683","39360","39360","35894.4834","tc","null","null","null","null","null","null","[2,1]","511.99943843471755","449.0591109839862","473.6690199164438"
"","canvas-keyboard-response","7","110576","0.0-6.0-1.0","506","","","","","clear_screen","null","null","","","critical","c","t","d","240","164","164","240","158.0083","227.1683","trueblood","0.09","h","164","240","240","164","158.0083","227.1683","39360","39360","35894.4834","tc","null","null","null","null","null","null","[2,1]","511.99943843471755","449.0591109839862","473.6690199164438"
"","canvas-keyboard-response","8","111093","0.0-6.0-2.0","506","","","","","rectangles no change","null","null","","","critical","c","t","d","240","164","164","240","158.0083","227.1683","trueblood","0.09","h","164","240","240","164","158.0083","227.1683","39360","39360","35894.4834","tc","null","null","null","null","null","null","[2,1]","511.99943843471755","449.0591109839862","473.6690199164438"
"","canvas-keyboard-response","9","112431","0.0-6.0-3.0","506","","","","","rectangles with change","null","null","","","critical","c","t","d","240","164","164","240","158.0083","227.1683","trueblood","0.09","h","164","240","240","164","158.0083","227.1683","39360","39360","35894.4834","tc","null","null","null","null","null","null","[2,1]","511.99943843471755","449.0591109839862","473.6690199164438"
"","canvas-keyboard-response","10","112453","0.0-6.0-4.0","506","","","","","clear_screen","null","null","","","critical","c","t","d","240","164","164","240","158.0083","227.1683","trueblood","0.09","h","164","240","240","164","158.0083","227.1683","39360","39360","35894.4834","tc","null","null","null","null","null","null","[2,1]","511.99943843471755","449.0591109839862","473.6690199164438"
"","canvas-keyboard-response","11","114711","0.0-6.0-5.0","506","","","","","make choice","2247","1","","","critical","c","t","d","240","164","164","240","158.0083","227.1683","trueblood","0.09","h","164","240","240","164","158.0083","227.1683","39360","39360","35894.4834","tc","null","null","null","null","null","null","[2,1]","","",""
"","canvas-keyboard-response","12","114731","0.0-6.0-6.0","506","","","","","clear_screen","null","null","","","critical","c","t","d","240","164","164","240","158.0083","227.1683","trueblood","0.09","h","164","240","240","164","158.0083","227.1683","39360","39360","35894.4834","tc","null","null","null","null","null","null","[2,1]","","",""
"","canvas-keyboard-response","13","114932","0.0-6.0-0.1","506","","","","","pre trial waiting period","null","null","","","catch","l","sw","sh","224","192","190","233","200","143","trueblood","null","null","null","null","null","null","null","null","null","null","null","","180","200","260","200","36000","52000","[1,2]","495.37970923828163","464.8431668041936","507.22861213272625"
"","canvas-keyboard-response","14","114952","0.0-6.0-1.1","506","","","","","clear_screen","null","null","","","catch","l","sw","sh","224","192","190","233","200","143","trueblood","null","null","null","null","null","null","null","null","null","null","null","","180","200","260","200","36000","52000","[1,2]","495.37970923828163","464.8431668041936","507.22861213272625"
"","canvas-keyboard-response","15","115464","0.0-6.0-2.1","506","","","","","rectangles no change","null","null","","","catch","l","sw","sh","224","192","190","233","200","143","trueblood","null","null","null","null","null","null","null","null","null","null","null","","180","200","260","200","36000","52000","[1,2]","495.37970923828163","464.8431668041936","507.22861213272625"
"","canvas-keyboard-response","16","116799","0.0-6.0-3.1","506","","","","","rectangles with change","null","null","","","catch","l","sw","sh","224","192","190","233","200","143","trueblood","null","null","null","null","null","null","null","null","null","null","null","","180","200","260","200","36000","52000","[1,2]","495.37970923828163","464.8431668041936","507.22861213272625"
"","canvas-keyboard-response","17","116824","0.0-6.0-4.1","506","","","","","clear_screen","null","null","","","catch","l","sw","sh","224","192","190","233","200","143","trueblood","null","null","null","null","null","null","null","null","null","null","null","","180","200","260","200","36000","52000","[1,2]","495.37970923828163","464.8431668041936","507.22861213272625"
"","canvas-keyboard-response","18","117887","0.0-6.0-5.1","506","","","","","make choice","1056","2","","","catch","l","sw","sh","224","192","190","233","200","143","trueblood","null","null","null","null","null","null","null","null","null","null","null","","180","200","260","200","36000","52000","[1,2]","","",""
"","canvas-keyboard-response","19","117906","0.0-6.0-6.1","506","","","","","clear_screen","null","null","","","catch","l","sw","sh","224","192","190","233","200","143","trueblood","null","null","null","null","null","null","null","null","null","null","null","","180","200","260","200","36000","52000","[1,2]","","",""
"","canvas-keyboard-response","20","118106","0.0-6.0-0.2","506","","","","","pre trial waiting period","null","null","","","critical","t","c","d","240","164","164","240","237.1485","162.6685","trueblood","0.02","w","240","164","164","240","237.1485","162.6685","39360","39360","38576.5967","td","null","null","null","null","null","null","[1,3]","474.12082982704953","420.05380323817377","516.4878094383338"
"","canvas-keyboard-response","21","118127","0.0-6.0-1.2","506","","","","","clear_screen","null","null","","","critical","t","c","d","240","164","164","240","237.1485","162.6685","trueblood","0.02","w","240","164","164","240","237.1485","162.6685","39360","39360","38576.5967","td","null","null","null","null","null","null","[1,3]","474.12082982704953","420.05380323817377","516.4878094383338"
"","canvas-keyboard-response","22","118638","0.0-6.0-2.2","506","","","","","rectangles no change","null","null","","","critical","t","c","d","240","164","164","240","237.1485","162.6685","trueblood","0.02","w","240","164","164","240","237.1485","162.6685","39360","39360","38576.5967","td","null","null","null","null","null","null","[1,3]","474.12082982704953","420.05380323817377","516.4878094383338"
"","canvas-keyboard-response","23","119974","0.0-6.0-3.2","506","","","","","rectangles with change","null","null","","","critical","t","c","d","240","164","164","240","237.1485","162.6685","trueblood","0.02","w","240","164","164","240","237.1485","162.6685","39360","39360","38576.5967","td","null","null","null","null","null","null","[1,3]","474.12082982704953","420.05380323817377","516.4878094383338"
"","canvas-keyboard-response","24","119992","0.0-6.0-4.2","506","","","","","clear_screen","null","null","","","critical","t","c","d","240","164","164","240","237.1485","162.6685","trueblood","0.02","w","240","164","164","240","237.1485","162.6685","39360","39360","38576.5967","td","null","null","null","null","null","null","[1,3]","474.12082982704953","420.05380323817377","516.4878094383338"
"","canvas-keyboard-response","25","121086","0.0-6.0-5.2","506","","","","","make choice","1088","1","","","critical","t","c","d","240","164","164","240","237.1485","162.6685","trueblood","0.02","w","240","164","164","240","237.1485","162.6685","39360","39360","38576.5967","td","null","null","null","null","null","null","[1,3]","","",""
"","canvas-keyboard-response","26","121105","0.0-6.0-6.2","506","","","","","clear_screen","null","null","","","critical","t","c","d","240","164","164","240","237.1485","162.6685","trueblood","0.02","w","240","164","164","240","237.1485","162.6685","39360","39360","38576.5967","td","null","null","null","null","null","null","[1,3]","","",""
"","canvas-keyboard-response","27","121307","0.0-6.0-0.3","506","","","","","pre trial waiting period","null","null","","","catch","sw","l","sh","180","200","292","212","191","209","spektor","null","null","null","null","null","null","null","null","null","null","null","","180","200","260","200","36000","52000","[1,2]","508.65454795727715","158.42291168335598","507.70683226334836"
"","canvas-keyboard-response","28","121328","0.0-6.0-1.3","506","","","","","clear_screen","null","null","","","catch","sw","l","sh","180","200","292","212","191","209","spektor","null","null","null","null","null","null","null","null","null","null","null","","180","200","260","200","36000","52000","[1,2]","508.65454795727715","158.42291168335598","507.70683226334836"
"","canvas-keyboard-response","29","121839","0.0-6.0-2.3","506","","","","","rectangles no change","null","null","","","catch","sw","l","sh","180","200","292","212","191","209","spektor","null","null","null","null","null","null","null","null","null","null","null","","180","200","260","200","36000","52000","[1,2]","508.65454795727715","158.42291168335598","507.70683226334836"
"","canvas-keyboard-response","30","123175","0.0-6.0-3.3","506","","","","","rectangles with change","null","null","","","catch","sw","l","sh","180","200","292","212","191","209","spektor","null","null","null","null","null","null","null","null","null","null","null","","180","200","260","200","36000","52000","[1,2]","508.65454795727715","158.42291168335598","507.70683226334836"
"","canvas-keyboard-response","31","123194","0.0-6.0-4.3","506","","","","","clear_screen","null","null","","","catch","sw","l","sh","180","200","292","212","191","209","spektor","null","null","null","null","null","null","null","null","null","null","null","","180","200","260","200","36000","52000","[1,2]","508.65454795727715","158.42291168335598","507.70683226334836"
"","canvas-keyboard-response","32","123926","0.0-6.0-5.3","506","","","","","make choice","726","2","","","catch","sw","l","sh","180","200","292","212","191","209","spektor","null","null","null","null","null","null","null","null","null","null","null","","180","200","260","200","36000","52000","[1,2]","","",""
"","canvas-keyboard-response","33","123946","0.0-6.0-6.3","506","","","","","clear_screen","null","null","","","catch","sw","l","sh","180","200","292","212","191","209","spektor","null","null","null","null","null","null","null","null","null","null","null","","180","200","260","200","36000","52000","[1,2]","","",""
"","canvas-keyboard-response","34","124148","0.0-6.0-0.4","506","","","","","pre trial waiting period","null","null","","","critical","d","c","t","164","240","240","164","164","240","spektor","0","h","164","240","240","164","164","240","39360","39360","39360","dc","null","null","null","null","null","null","[1,2]","476.45072892489054","193.7493258414412","475.54725991386863"
"","canvas-keyboard-response","35","124171","0.0-6.0-1.4","506","","","","","clear_screen","null","null","","","critical","d","c","t","164","240","240","164","164","240","spektor","0","h","164","240","240","164","164","240","39360","39360","39360","dc","null","null","null","null","null","null","[1,2]","476.45072892489054","193.7493258414412","475.54725991386863"
"","canvas-keyboard-response","36","124681","0.0-6.0-2.4","506","","","","","rectangles no change","null","null","","","critical","d","c","t","164","240","240","164","164","240","spektor","0","h","164","240","240","164","164","240","39360","39360","39360","dc","null","null","null","null","null","null","[1,2]","476.45072892489054","193.7493258414412","475.54725991386863"
"","canvas-keyboard-response","37","126017","0.0-6.0-3.4","506","","","","","rectangles with change","null","null","","","critical","d","c","t","164","240","240","164","164","240","spektor","0","h","164","240","240","164","164","240","39360","39360","39360","dc","null","null","null","null","null","null","[1,2]","476.45072892489054","193.7493258414412","475.54725991386863"
"","canvas-keyboard-response","38","126035","0.0-6.0-4.4","506","","","","","clear_screen","null","null","","","critical","d","c","t","164","240","240","164","164","240","spektor","0","h","164","240","240","164","164","240","39360","39360","39360","dc","null","null","null","null","null","null","[1,2]","476.45072892489054","193.7493258414412","475.54725991386863"
"","canvas-keyboard-response","39","127599","0.0-6.0-5.4","506","","","","","make choice","1555","2","","","critical","d","c","t","164","240","240","164","164","240","spektor","0","h","164","240","240","164","164","240","39360","39360","39360","dc","null","null","null","null","null","null","[1,2]","","",""
"","canvas-keyboard-response","40","127621","0.0-6.0-6.4","506","","","","","clear_screen","null","null","","","critical","d","c","t","164","240","240","164","164","240","spektor","0","h","164","240","240","164","164","240","39360","39360","39360","dc","null","null","null","null","null","null","[1,2]","","",""
"","canvas-keyboard-response","41","127822","0.0-6.0-0.5","506","","","","","pre trial waiting period","null","null","","","critical","d","c","t","227.1683","158.0083","164","240","240","164","trueblood","0.09","w","240","164","164","240","227.1683","158.0083","39360","39360","35894.4834","dc","null","null","null","null","null","null","[1,2]","516.0261448213719","427.79582433125495","497.0376452622853"
"","canvas-keyboard-response","42","127842","0.0-6.0-1.5","506","","","","","clear_screen","null","null","","","critical","d","c","t","227.1683","158.0083","164","240","240","164","trueblood","0.09","w","240","164","164","240","227.1683","158.0083","39360","39360","35894.4834","dc","null","null","null","null","null","null","[1,2]","516.0261448213719","427.79582433125495","497.0376452622853"
"","canvas-keyboard-response","43","128352","0.0-6.0-2.5","506","","","","","rectangles no change","null","null","","","critical","d","c","t","227.1683","158.0083","164","240","240","164","trueblood","0.09","w","240","164","164","240","227.1683","158.0083","39360","39360","35894.4834","dc","null","null","null","null","null","null","[1,2]","516.0261448213719","427.79582433125495","497.0376452622853"
"","canvas-keyboard-response","44","129687","0.0-6.0-3.5","506","","","","","rectangles with change","null","null","","","critical","d","c","t","227.1683","158.0083","164","240","240","164","trueblood","0.09","w","240","164","164","240","227.1683","158.0083","39360","39360","35894.4834","dc","null","null","null","null","null","null","[1,2]","516.0261448213719","427.79582433125495","497.0376452622853"
"","canvas-keyboard-response","45","129705","0.0-6.0-4.5","506","","","","","clear_screen","null","null","","","critical","d","c","t","227.1683","158.0083","164","240","240","164","trueblood","0.09","w","240","164","164","240","227.1683","158.0083","39360","39360","35894.4834","dc","null","null","null","null","null","null","[1,2]","516.0261448213719","427.79582433125495","497.0376452622853"
"","canvas-keyboard-response","46","131087","0.0-6.0-5.5","506","","","","","make choice","1373","1","","","critical","d","c","t","227.1683","158.0083","164","240","240","164","trueblood","0.09","w","240","164","164","240","227.1683","158.0083","39360","39360","35894.4834","dc","null","null","null","null","null","null","[1,2]","","",""
"","canvas-keyboard-response","47","131104","0.0-6.0-6.5","506","","","","","clear_screen","null","null","","","critical","d","c","t","227.1683","158.0083","164","240","240","164","trueblood","0.09","w","240","164","164","240","227.1683","158.0083","39360","39360","35894.4834","dc","null","null","null","null","null","null","[1,2]","","",""
"","canvas-keyboard-response","48","131305","0.0-6.0-0.6","506","","","","","pre trial waiting period","null","null","","","critical","t","c","d","240","164","164","240","227.1683","158.0083","trueblood","0.09","w","240","164","164","240","227.1683","158.0083","39360","39360","35894.4834","tc","null","null","null","null","null","null","[1,2]","468.5070873954808","441.2828392476193","521.7958269554416"
"","canvas-keyboard-response","49","131325","0.0-6.0-1.6","506","","","","","clear_screen","null","null","","","critical","t","c","d","240","164","164","240","227.1683","158.0083","trueblood","0.09","w","240","164","164","240","227.1683","158.0083","39360","39360","35894.4834","tc","null","null","null","null","null","null","[1,2]","468.5070873954808","441.2828392476193","521.7958269554416"
"","canvas-keyboard-response","50","131836","0.0-6.0-2.6","506","","","","","rectangles no change","null","null","","","critical","t","c","d","240","164","164","240","227.1683","158.0083","trueblood","0.09","w","240","164","164","240","227.1683","158.0083","39360","39360","35894.4834","tc","null","null","null","null","null","null","[1,2]","468.5070873954808","441.2828392476193","521.7958269554416"
"","canvas-keyboard-response","51","133171","0.0-6.0-3.6","506","","","","","rectangles with change","null","null","","","critical","t","c","d","240","164","164","240","227.1683","158.0083","trueblood","0.09","w","240","164","164","240","227.1683","158.0083","39360","39360","35894.4834","tc","null","null","null","null","null","null","[1,2]","468.5070873954808","441.2828392476193","521.7958269554416"
"","canvas-keyboard-response","52","133190","0.0-6.0-4.6","506","","","","","clear_screen","null","null","","","critical","t","c","d","240","164","164","240","227.1683","158.0083","trueblood","0.09","w","240","164","164","240","227.1683","158.0083","39360","39360","35894.4834","tc","null","null","null","null","null","null","[1,2]","468.5070873954808","441.2828392476193","521.7958269554416"
"","canvas-keyboard-response","53","134096","0.0-6.0-5.6","506","","","","","make choice","897","1","","","critical","t","c","d","240","164","164","240","227.1683","158.0083","trueblood","0.09","w","240","164","164","240","227.1683","158.0083","39360","39360","35894.4834","tc","null","null","null","null","null","null","[1,2]","","",""
"","canvas-keyboard-response","54","134117","0.0-6.0-6.6","506","","","","","clear_screen","null","null","","","critical","t","c","d","240","164","164","240","227.1683","158.0083","trueblood","0.09","w","240","164","164","240","227.1683","158.0083","39360","39360","35894.4834","tc","null","null","null","null","null","null","[1,2]","","",""
"","canvas-keyboard-response","55","134322","0.0-6.0-0.7","506","","","","","pre trial waiting period","null","null","","","catch","sw","sh","l","180","200","208","193","217","254","spektor","null","null","null","null","null","null","null","null","null","null","null","","180","200","260","200","36000","52000","[1,3]","517.2050254894623","140.5514897791214","451.04402854758365"
"","canvas-keyboard-response","56","134344","0.0-6.0-1.7","506","","","","","clear_screen","null","null","","","catch","sw","sh","l","180","200","208","193","217","254","spektor","null","null","null","null","null","null","null","null","null","null","null","","180","200","260","200","36000","52000","[1,3]","517.2050254894623","140.5514897791214","451.04402854758365"
"","canvas-keyboard-response","57","134858","0.0-6.0-2.7","506","","","","","rectangles no change","null","null","","","catch","sw","sh","l","180","200","208","193","217","254","spektor","null","null","null","null","null","null","null","null","null","null","null","","180","200","260","200","36000","52000","[1,3]","517.2050254894623","140.5514897791214","451.04402854758365"
"","canvas-keyboard-response","58","136195","0.0-6.0-3.7","506","","","","","rectangles with change","null","null","","","catch","sw","sh","l","180","200","208","193","217","254","spektor","null","null","null","null","null","null","null","null","null","null","null","","180","200","260","200","36000","52000","[1,3]","517.2050254894623","140.5514897791214","451.04402854758365"
"","canvas-keyboard-response","59","136213","0.0-6.0-4.7","506","","","","","clear_screen","null","null","","","catch","sw","sh","l","180","200","208","193","217","254","spektor","null","null","null","null","null","null","null","null","null","null","null","","180","200","260","200","36000","52000","[1,3]","517.2050254894623","140.5514897791214","451.04402854758365"
"","canvas-keyboard-response","60","136991","0.0-6.0-5.7","506","","","","","make choice","769","3","","","catch","sw","sh","l","180","200","208","193","217","254","spektor","null","null","null","null","null","null","null","null","null","null","null","","180","200","260","200","36000","52000","[1,3]","","",""
"","canvas-keyboard-response","61","137010","0.0-6.0-6.7","506","","","","","clear_screen","null","null","","","catch","sw","sh","l","180","200","208","193","217","254","spektor","null","null","null","null","null","null","null","null","null","null","null","","180","200","260","200","36000","52000","[1,3]","","",""
"","canvas-keyboard-response","62","137211","0.0-6.0-0.8","506","","","","","pre trial waiting period","null","null","","","critical","d","c","t","220.0396","154.6796","164","240","240","164","spektor","0.14","w","240","164","164","240","220.0396","154.6796","39360","39360","34035.6388","tc","null","null","null","null","null","null","[3,2]","546.3101343274574","120.63000159382949","513.8390121169957"
"","canvas-keyboard-response","63","137231","0.0-6.0-1.8","506","","","","","clear_screen","null","null","","","critical","d","c","t","220.0396","154.6796","164","240","240","164","spektor","0.14","w","240","164","164","240","220.0396","154.6796","39360","39360","34035.6388","tc","null","null","null","null","null","null","[3,2]","546.3101343274574","120.63000159382949","513.8390121169957"
"","canvas-keyboard-response","64","137746","0.0-6.0-2.8","506","","","","","rectangles no change","null","null","","","critical","d","c","t","220.0396","154.6796","164","240","240","164","spektor","0.14","w","240","164","164","240","220.0396","154.6796","39360","39360","34035.6388","tc","null","null","null","null","null","null","[3,2]","546.3101343274574","120.63000159382949","513.8390121169957"
"","canvas-keyboard-response","65","139082","0.0-6.0-3.8","506","","","","","rectangles with change","null","null","","","critical","d","c","t","220.0396","154.6796","164","240","240","164","spektor","0.14","w","240","164","164","240","220.0396","154.6796","39360","39360","34035.6388","tc","null","null","null","null","null","null","[3,2]","546.3101343274574","120.63000159382949","513.8390121169957"
"","canvas-keyboard-response","66","139102","0.0-6.0-4.8","506","","","","","clear_screen","null","null","","","critical","d","c","t","220.0396","154.6796","164","240","240","164","spektor","0.14","w","240","164","164","240","220.0396","154.6796","39360","39360","34035.6388","tc","null","null","null","null","null","null","[3,2]","546.3101343274574","120.63000159382949","513.8390121169957"
"","canvas-keyboard-response","67","140463","0.0-6.0-5.8","506","","","","","make choice","1348","3","","","critical","d","c","t","220.0396","154.6796","164","240","240","164","spektor","0.14","w","240","164","164","240","220.0396","154.6796","39360","39360","34035.6388","tc","null","null","null","null","null","null","[3,2]","","",""
"","canvas-keyboard-response","68","140480","0.0-6.0-6.8","506","","","","","clear_screen","null","null","","","critical","d","c","t","220.0396","154.6796","164","240","240","164","spektor","0.14","w","240","164","164","240","220.0396","154.6796","39360","39360","34035.6388","tc","null","null","null","null","null","null","[3,2]","","",""
"","canvas-keyboard-response","69","140682","0.0-6.0-0.9","506","","","","","pre trial waiting period","null","null","","","catch","sw","sh","l","180","200","225","193","286","197","trueblood","null","null","null","null","null","null","null","null","null","null","null","","180","200","260","200","36000","52000","[2,3]","478.80769527427236","476.74262264579454","450.55297940626184"
"","canvas-keyboard-response","70","140703","0.0-6.0-1.9","506","","","","","clear_screen","null","null","","","catch","sw","sh","l","180","200","225","193","286","197","trueblood","null","null","null","null","null","null","null","null","null","null","null","","180","200","260","200","36000","52000","[2,3]","478.80769527427236","476.74262264579454","450.55297940626184"
"","canvas-keyboard-response","71","141214","0.0-6.0-2.9","506","","","","","rectangles no change","null","null","","","catch","sw","sh","l","180","200","225","193","286","197","trueblood","null","null","null","null","null","null","null","null","null","null","null","","180","200","260","200","36000","52000","[2,3]","478.80769527427236","476.74262264579454","450.55297940626184"
"","canvas-keyboard-response","72","142549","0.0-6.0-3.9","506","","","","","rectangles with change","null","null","","","catch","sw","sh","l","180","200","225","193","286","197","trueblood","null","null","null","null","null","null","null","null","null","null","null","","180","200","260","200","36000","52000","[2,3]","478.80769527427236","476.74262264579454","450.55297940626184"
"","canvas-keyboard-response","73","142570","0.0-6.0-4.9","506","","","","","clear_screen","null","null","","","catch","sw","sh","l","180","200","225","193","286","197","trueblood","null","null","null","null","null","null","null","null","null","null","null","","180","200","260","200","36000","52000","[2,3]","478.80769527427236","476.74262264579454","450.55297940626184"
"","canvas-keyboard-response","74","143614","0.0-6.0-5.9","506","","","","","make choice","1037","3","","","catch","sw","sh","l","180","200","225","193","286","197","trueblood","null","null","null","null","null","null","null","null","null","null","null","","180","200","260","200","36000","52000","[2,3]","","",""
"","canvas-keyboard-response","75","143634","0.0-6.0-6.9","506","","","","","clear_screen","null","null","","","catch","sw","sh","l","180","200","225","193","286","197","trueblood","null","null","null","null","null","null","null","null","null","null","null","","180","200","260","200","36000","52000","[2,3]","","",""
"","canvas-keyboard-response","76","143836","0.0-6.0-0.10","506","","","","","pre trial waiting period","null","null","","","critical","t","d","c","240","164","220.0396","154.6796","164","240","trueblood","0.14","w","240","164","164","240","220.0396","154.6796","39360","39360","34035.6388","tc","null","null","null","null","null","null","[1,3]","489.46802248973137","510.8120170910365","442.6045123915635"
"","canvas-keyboard-response","77","143858","0.0-6.0-1.10","506","","","","","clear_screen","null","null","","","critical","t","d","c","240","164","220.0396","154.6796","164","240","trueblood","0.14","w","240","164","164","240","220.0396","154.6796","39360","39360","34035.6388","tc","null","null","null","null","null","null","[1,3]","489.46802248973137","510.8120170910365","442.6045123915635"
"","canvas-keyboard-response","78","144370","0.0-6.0-2.10","506","","","","","rectangles no change","null","null","","","critical","t","d","c","240","164","220.0396","154.6796","164","240","trueblood","0.14","w","240","164","164","240","220.0396","154.6796","39360","39360","34035.6388","tc","null","null","null","null","null","null","[1,3]","489.46802248973137","510.8120170910365","442.6045123915635"
"","canvas-keyboard-response","79","145705","0.0-6.0-3.10","506","","","","","rectangles with change","null","null","","","critical","t","d","c","240","164","220.0396","154.6796","164","240","trueblood","0.14","w","240","164","164","240","220.0396","154.6796","39360","39360","34035.6388","tc","null","null","null","null","null","null","[1,3]","489.46802248973137","510.8120170910365","442.6045123915635"
"","canvas-keyboard-response","80","145723","0.0-6.0-4.10","506","","","","","clear_screen","null","null","","","critical","t","d","c","240","164","220.0396","154.6796","164","240","trueblood","0.14","w","240","164","164","240","220.0396","154.6796","39360","39360","34035.6388","tc","null","null","null","null","null","null","[1,3]","489.46802248973137","510.8120170910365","442.6045123915635"
"","canvas-keyboard-response","81","146750","0.0-6.0-5.10","506","","","","","make choice","1021","1","","","critical","t","d","c","240","164","220.0396","154.6796","164","240","trueblood","0.14","w","240","164","164","240","220.0396","154.6796","39360","39360","34035.6388","tc","null","null","null","null","null","null","[1,3]","","",""
"","canvas-keyboard-response","82","146770","0.0-6.0-6.10","506","","","","","clear_screen","null","null","","","critical","t","d","c","240","164","220.0396","154.6796","164","240","trueblood","0.14","w","240","164","164","240","220.0396","154.6796","39360","39360","34035.6388","tc","null","null","null","null","null","null","[1,3]","","",""
"","canvas-keyboard-response","83","146971","0.0-6.0-0.11","506","","","","","pre trial waiting period","null","null","","","critical","d","t","c","162.6685","237.1485","164","240","240","164","spektor","0.02","h","164","240","240","164","162.6685","237.1485","39360","39360","38576.5967","dc","null","null","null","null","null","null","[1,3]","493.39134047911716","104.4339451235256","515.3432883008697"
"","canvas-keyboard-response","84","146991","0.0-6.0-1.11","506","","","","","clear_screen","null","null","","","critical","d","t","c","162.6685","237.1485","164","240","240","164","spektor","0.02","h","164","240","240","164","162.6685","237.1485","39360","39360","38576.5967","dc","null","null","null","null","null","null","[1,3]","493.39134047911716","104.4339451235256","515.3432883008697"
"","canvas-keyboard-response","85","147500","0.0-6.0-2.11","506","","","","","rectangles no change","null","null","","","critical","d","t","c","162.6685","237.1485","164","240","240","164","spektor","0.02","h","164","240","240","164","162.6685","237.1485","39360","39360","38576.5967","dc","null","null","null","null","null","null","[1,3]","493.39134047911716","104.4339451235256","515.3432883008697"
"","canvas-keyboard-response","86","148835","0.0-6.0-3.11","506","","","","","rectangles with change","null","null","","","critical","d","t","c","162.6685","237.1485","164","240","240","164","spektor","0.02","h","164","240","240","164","162.6685","237.1485","39360","39360","38576.5967","dc","null","null","null","null","null","null","[1,3]","493.39134047911716","104.4339451235256","515.3432883008697"
"","canvas-keyboard-response","87","148854","0.0-6.0-4.11","506","","","","","clear_screen","null","null","","","critical","d","t","c","162.6685","237.1485","164","240","240","164","spektor","0.02","h","164","240","240","164","162.6685","237.1485","39360","39360","38576.5967","dc","null","null","null","null","null","null","[1,3]","493.39134047911716","104.4339451235256","515.3432883008697"
"","canvas-keyboard-response","88","149838","0.0-6.0-5.11","506","","","","","make choice","976","3","","","critical","d","t","c","162.6685","237.1485","164","240","240","164","spektor","0.02","h","164","240","240","164","162.6685","237.1485","39360","39360","38576.5967","dc","null","null","null","null","null","null","[1,3]","","",""
"","canvas-keyboard-response","89","149857","0.0-6.0-6.11","506","","","","","clear_screen","null","null","","","critical","d","t","c","162.6685","237.1485","164","240","240","164","spektor","0.02","h","164","240","240","164","162.6685","237.1485","39360","39360","38576.5967","dc","null","null","null","null","null","null","[1,3]","","",""
"","canvas-keyboard-response","90","150058","0.0-6.0-0.12","506","","","","","pre trial waiting period","null","null","","","critical","d","t","c","240","164","240","164","164","240","spektor","0","w","240","164","164","240","240","164","39360","39360","39360","td","null","null","null","null","null","null","[2,1]","503.4143993056738","215.0591333939786","481.2038732919596"
"","canvas-keyboard-response","91","150080","0.0-6.0-1.12","506","","","","","clear_screen","null","null","","","critical","d","t","c","240","164","240","164","164","240","spektor","0","w","240","164","164","240","240","164","39360","39360","39360","td","null","null","null","null","null","null","[2,1]","503.4143993056738","215.0591333939786","481.2038732919596"
"","canvas-keyboard-response","92","150593","0.0-6.0-2.12","506","","","","","rectangles no change","null","null","","","critical","d","t","c","240","164","240","164","164","240","spektor","0","w","240","164","164","240","240","164","39360","39360","39360","td","null","null","null","null","null","null","[2,1]","503.4143993056738","215.0591333939786","481.2038732919596"
"","canvas-keyboard-response","93","151929","0.0-6.0-3.12","506","","","","","rectangles with change","null","null","","","critical","d","t","c","240","164","240","164","164","240","spektor","0","w","240","164","164","240","240","164","39360","39360","39360","td","null","null","null","null","null","null","[2,1]","503.4143993056738","215.0591333939786","481.2038732919596"
"","canvas-keyboard-response","94","151947","0.0-6.0-4.12","506","","","","","clear_screen","null","null","","","critical","d","t","c","240","164","240","164","164","240","spektor","0","w","240","164","164","240","240","164","39360","39360","39360","td","null","null","null","null","null","null","[2,1]","503.4143993056738","215.0591333939786","481.2038732919596"
"","canvas-keyboard-response","95","152927","0.0-6.0-5.12","506","","","","","make choice","972","2","","","critical","d","t","c","240","164","240","164","164","240","spektor","0","w","240","164","164","240","240","164","39360","39360","39360","td","null","null","null","null","null","null","[2,1]","","",""
"","canvas-keyboard-response","96","152945","0.0-6.0-6.12","506","","","","","clear_screen","null","null","","","critical","d","t","c","240","164","240","164","164","240","spektor","0","w","240","164","164","240","240","164","39360","39360","39360","td","null","null","null","null","null","null","[2,1]","","",""
"","canvas-keyboard-response","97","153147","0.0-6.0-0.13","506","","","","","pre trial waiting period","null","null","","","critical","d","t","c","158.0083","227.1683","164","240","240","164","spektor","0.09","h","164","240","240","164","158.0083","227.1683","39360","39360","35894.4834","dc","null","null","null","null","null","null","[1,3]","476.58929992573206","140.9380473947311","496.8720567343633"
"","canvas-keyboard-response","98","153164","0.0-6.0-1.13","506","","","","","clear_screen","null","null","","","critical","d","t","c","158.0083","227.1683","164","240","240","164","spektor","0.09","h","164","240","240","164","158.0083","227.1683","39360","39360","35894.4834","dc","null","null","null","null","null","null","[1,3]","476.58929992573206","140.9380473947311","496.8720567343633"
"","canvas-keyboard-response","99","153678","0.0-6.0-2.13","506","","","","","rectangles no change","null","null","","","critical","d","t","c","158.0083","227.1683","164","240","240","164","spektor","0.09","h","164","240","240","164","158.0083","227.1683","39360","39360","35894.4834","dc","null","null","null","null","null","null","[1,3]","476.58929992573206","140.9380473947311","496.8720567343633"
"","canvas-keyboard-response","100","155014","0.0-6.0-3.13","506","","","","","rectangles with change","null","null","","","critical","d","t","c","158.0083","227.1683","164","240","240","164","spektor","0.09","h","164","240","240","164","158.0083","227.1683","39360","39360","35894.4834","dc","null","null","null","null","null","null","[1,3]","476.58929992573206","140.9380473947311","496.8720567343633"
"","canvas-keyboard-response","101","155032","0.0-6.0-4.13","506","","","","","clear_screen","null","null","","","critical","d","t","c","158.0083","227.1683","164","240","240","164","spektor","0.09","h","164","240","240","164","158.0083","227.1683","39360","39360","35894.4834","dc","null","null","null","null","null","null","[1,3]","476.58929992573206","140.9380473947311","496.8720567343633"
"","canvas-keyboard-response","102","155710","0.0-6.0-5.13","506","","","","","make choice","671","3","","","critical","d","t","c","158.0083","227.1683","164","240","240","164","spektor","0.09","h","164","240","240","164","158.0083","227.1683","39360","39360","35894.4834","dc","null","null","null","null","null","null","[1,3]","","",""
"","canvas-keyboard-response","103","155729","0.0-6.0-6.13","506","","","","","clear_screen","null","null","","","critical","d","t","c","158.0083","227.1683","164","240","240","164","spektor","0.09","h","164","240","240","164","158.0083","227.1683","39360","39360","35894.4834","dc","null","null","null","null","null","null","[1,3]","","",""
"","canvas-keyboard-response","104","155931","0.0-6.0-0.14","506","","","","","pre trial waiting period","null","null","","","critical","c","t","d","164","240","240","164","240","164","trueblood","0","w","240","164","164","240","240","164","39360","39360","39360","td","null","null","null","null","null","null","[2,3]","442.85305678054794","490.95556622966313","468.9601988208777"
"","canvas-keyboard-response","105","155950","0.0-6.0-1.14","506","","","","","clear_screen","null","null","","","critical","c","t","d","164","240","240","164","240","164","trueblood","0","w","240","164","164","240","240","164","39360","39360","39360","td","null","null","null","null","null","null","[2,3]","442.85305678054794","490.95556622966313","468.9601988208777"
"","canvas-keyboard-response","106","156462","0.0-6.0-2.14","506","","","","","rectangles no change","null","null","","","critical","c","t","d","164","240","240","164","240","164","trueblood","0","w","240","164","164","240","240","164","39360","39360","39360","td","null","null","null","null","null","null","[2,3]","442.85305678054794","490.95556622966313","468.9601988208777"
"","canvas-keyboard-response","107","157796","0.0-6.0-3.14","506","","","","","rectangles with change","null","null","","","critical","c","t","d","164","240","240","164","240","164","trueblood","0","w","240","164","164","240","240","164","39360","39360","39360","td","null","null","null","null","null","null","[2,3]","442.85305678054794","490.95556622966313","468.9601988208777"
"","canvas-keyboard-response","108","157815","0.0-6.0-4.14","506","","","","","clear_screen","null","null","","","critical","c","t","d","164","240","240","164","240","164","trueblood","0","w","240","164","164","240","240","164","39360","39360","39360","td","null","null","null","null","null","null","[2,3]","442.85305678054794","490.95556622966313","468.9601988208777"
"","canvas-keyboard-response","109","158383","0.0-6.0-5.14","506","","","","","make choice","560","2","","","critical","c","t","d","164","240","240","164","240","164","trueblood","0","w","240","164","164","240","240","164","39360","39360","39360","td","null","null","null","null","null","null","[2,3]","","",""
"","canvas-keyboard-response","110","158401","0.0-6.0-6.14","506","","","","","clear_screen","null","null","","","critical","c","t","d","164","240","240","164","240","164","trueblood","0","w","240","164","164","240","240","164","39360","39360","39360","td","null","null","null","null","null","null","[2,3]","","",""
"","canvas-keyboard-response","111","158603","0.0-6.0-0.15","506","","","","","pre trial waiting period","null","null","","","critical","c","d","t","240","164","160.6713","232.8713","164","240","spektor","0.05","h","164","240","240","164","160.6713","232.8713","39360","39360","37415.7294","td","null","null","null","null","null","null","[3,2]","540.9725621021859","98.84748764124605","483.2668234340359"
"","canvas-keyboard-response","112","158621","0.0-6.0-1.15","506","","","","","clear_screen","null","null","","","critical","c","d","t","240","164","160.6713","232.8713","164","240","spektor","0.05","h","164","240","240","164","160.6713","232.8713","39360","39360","37415.7294","td","null","null","null","null","null","null","[3,2]","540.9725621021859","98.84748764124605","483.2668234340359"
"","canvas-keyboard-response","113","159131","0.0-6.0-2.15","506","","","","","rectangles no change","null","null","","","critical","c","d","t","240","164","160.6713","232.8713","164","240","spektor","0.05","h","164","240","240","164","160.6713","232.8713","39360","39360","37415.7294","td","null","null","null","null","null","null","[3,2]","540.9725621021859","98.84748764124605","483.2668234340359"
"","canvas-keyboard-response","114","160467","0.0-6.0-3.15","506","","","","","rectangles with change","null","null","","","critical","c","d","t","240","164","160.6713","232.8713","164","240","spektor","0.05","h","164","240","240","164","160.6713","232.8713","39360","39360","37415.7294","td","null","null","null","null","null","null","[3,2]","540.9725621021859","98.84748764124605","483.2668234340359"
"","canvas-keyboard-response","115","160485","0.0-6.0-4.15","506","","","","","clear_screen","null","null","","","critical","c","d","t","240","164","160.6713","232.8713","164","240","spektor","0.05","h","164","240","240","164","160.6713","232.8713","39360","39360","37415.7294","td","null","null","null","null","null","null","[3,2]","540.9725621021859","98.84748764124605","483.2668234340359"
"","canvas-keyboard-response","116","161542","0.0-6.0-5.15","506","","","","","make choice","1044","3","","","critical","c","d","t","240","164","160.6713","232.8713","164","240","spektor","0.05","h","164","240","240","164","160.6713","232.8713","39360","39360","37415.7294","td","null","null","null","null","null","null","[3,2]","","",""
"","canvas-keyboard-response","117","161560","0.0-6.0-6.15","506","","","","","clear_screen","null","null","","","critical","c","d","t","240","164","160.6713","232.8713","164","240","spektor","0.05","h","164","240","240","164","160.6713","232.8713","39360","39360","37415.7294","td","null","null","null","null","null","null","[3,2]","","",""
"","canvas-keyboard-response","118","161761","0.0-6.0-0.16","506","","","","","pre trial waiting period","null","null","","","critical","c","t","d","164","240","240","164","227.1683","158.0083","spektor","0.09","w","240","164","164","240","227.1683","158.0083","39360","39360","35894.4834","dc","null","null","null","null","null","null","[3,1]","461.7319155008961","184.1343597877447","498.72152892806696"
"","canvas-keyboard-response","119","161780","0.0-6.0-1.16","506","","","","","clear_screen","null","null","","","critical","c","t","d","164","240","240","164","227.1683","158.0083","spektor","0.09","w","240","164","164","240","227.1683","158.0083","39360","39360","35894.4834","dc","null","null","null","null","null","null","[3,1]","461.7319155008961","184.1343597877447","498.72152892806696"
"","canvas-keyboard-response","120","162291","0.0-6.0-2.16","506","","","","","rectangles no change","null","null","","","critical","c","t","d","164","240","240","164","227.1683","158.0083","spektor","0.09","w","240","164","164","240","227.1683","158.0083","39360","39360","35894.4834","dc","null","null","null","null","null","null","[3,1]","461.7319155008961","184.1343597877447","498.72152892806696"
"","canvas-keyboard-response","121","163627","0.0-6.0-3.16","506","","","","","rectangles with change","null","null","","","critical","c","t","d","164","240","240","164","227.1683","158.0083","spektor","0.09","w","240","164","164","240","227.1683","158.0083","39360","39360","35894.4834","dc","null","null","null","null","null","null","[3,1]","461.7319155008961","184.1343597877447","498.72152892806696"
"","canvas-keyboard-response","122","163645","0.0-6.0-4.16","506","","","","","clear_screen","null","null","","","critical","c","t","d","164","240","240","164","227.1683","158.0083","spektor","0.09","w","240","164","164","240","227.1683","158.0083","39360","39360","35894.4834","dc","null","null","null","null","null","null","[3,1]","461.7319155008961","184.1343597877447","498.72152892806696"
"","canvas-keyboard-response","123","164334","0.0-6.0-5.16","506","","","","","make choice","681","1","","","critical","c","t","d","164","240","240","164","227.1683","158.0083","spektor","0.09","w","240","164","164","240","227.1683","158.0083","39360","39360","35894.4834","dc","null","null","null","null","null","null","[3,1]","","",""
"","canvas-keyboard-response","124","164353","0.0-6.0-6.16","506","","","","","clear_screen","null","null","","","critical","c","t","d","164","240","240","164","227.1683","158.0083","spektor","0.09","w","240","164","164","240","227.1683","158.0083","39360","39360","35894.4834","dc","null","null","null","null","null","null","[3,1]","","",""
"","canvas-keyboard-response","125","164554","0.0-6.0-0.17","506","","","","","pre trial waiting period","null","null","","","catch","sh","sw","l","199","160","201","188","198","295","spektor","null","null","null","null","null","null","null","null","null","null","null","","180","200","260","200","36000","52000","[1,3]","523.8039154428355","142.31916696108902","459.7574690897704"
"","canvas-keyboard-response","126","164577","0.0-6.0-1.17","506","","","","","clear_screen","null","null","","","catch","sh","sw","l","199","160","201","188","198","295","spektor","null","null","null","null","null","null","null","null","null","null","null","","180","200","260","200","36000","52000","[1,3]","523.8039154428355","142.31916696108902","459.7574690897704"
"","canvas-keyboard-response","127","165090","0.0-6.0-2.17","506","","","","","rectangles no change","null","null","","","catch","sh","sw","l","199","160","201","188","198","295","spektor","null","null","null","null","null","null","null","null","null","null","null","","180","200","260","200","36000","52000","[1,3]","523.8039154428355","142.31916696108902","459.7574690897704"
"","canvas-keyboard-response","128","166427","0.0-6.0-3.17","506","","","","","rectangles with change","null","null","","","catch","sh","sw","l","199","160","201","188","198","295","spektor","null","null","null","null","null","null","null","null","null","null","null","","180","200","260","200","36000","52000","[1,3]","523.8039154428355","142.31916696108902","459.7574690897704"
"","canvas-keyboard-response","129","166445","0.0-6.0-4.17","506","","","","","clear_screen","null","null","","","catch","sh","sw","l","199","160","201","188","198","295","spektor","null","null","null","null","null","null","null","null","null","null","null","","180","200","260","200","36000","52000","[1,3]","523.8039154428355","142.31916696108902","459.7574690897704"
"","canvas-keyboard-response","130","167222","0.0-6.0-5.17","506","","","","","make choice","769","3","","","catch","sh","sw","l","199","160","201","188","198","295","spektor","null","null","null","null","null","null","null","null","null","null","null","","180","200","260","200","36000","52000","[1,3]","","",""
"","canvas-keyboard-response","131","167241","0.0-6.0-6.17","506","","","","","clear_screen","null","null","","","catch","sh","sw","l","199","160","201","188","198","295","spektor","null","null","null","null","null","null","null","null","null","null","null","","180","200","260","200","36000","52000","[1,3]","","",""
"","canvas-keyboard-response","132","167443","0.0-6.0-0.18","506","","","","","pre trial waiting period","null","null","","","critical","d","t","c","164","240","164","240","240","164","trueblood","0","h","164","240","240","164","164","240","39360","39360","39360","td","null","null","null","null","null","null","[2,1]","420.3967247895806","426.80377792624574","503.4061561632805"
"","canvas-keyboard-response","133","167463","0.0-6.0-1.18","506","","","","","clear_screen","null","null","","","critical","d","t","c","164","240","164","240","240","164","trueblood","0","h","164","240","240","164","164","240","39360","39360","39360","td","null","null","null","null","null","null","[2,1]","420.3967247895806","426.80377792624574","503.4061561632805"
"","canvas-keyboard-response","134","167976","0.0-6.0-2.18","506","","","","","rectangles no change","null","null","","","critical","d","t","c","164","240","164","240","240","164","trueblood","0","h","164","240","240","164","164","240","39360","39360","39360","td","null","null","null","null","null","null","[2,1]","420.3967247895806","426.80377792624574","503.4061561632805"
"","canvas-keyboard-response","135","169312","0.0-6.0-3.18","506","","","","","rectangles with change","null","null","","","critical","d","t","c","164","240","164","240","240","164","trueblood","0","h","164","240","240","164","164","240","39360","39360","39360","td","null","null","null","null","null","null","[2,1]","420.3967247895806","426.80377792624574","503.4061561632805"
"","canvas-keyboard-response","136","169332","0.0-6.0-4.18","506","","","","","clear_screen","null","null","","","critical","d","t","c","164","240","164","240","240","164","trueblood","0","h","164","240","240","164","164","240","39360","39360","39360","td","null","null","null","null","null","null","[2,1]","420.3967247895806","426.80377792624574","503.4061561632805"
"","canvas-keyboard-response","137","170255","0.0-6.0-5.18","506","","","","","make choice","913","1","","","critical","d","t","c","164","240","164","240","240","164","trueblood","0","h","164","240","240","164","164","240","39360","39360","39360","td","null","null","null","null","null","null","[2,1]","","",""
"","canvas-keyboard-response","138","170273","0.0-6.0-6.18","506","","","","","clear_screen","null","null","","","critical","d","t","c","164","240","164","240","240","164","trueblood","0","h","164","240","240","164","164","240","39360","39360","39360","td","null","null","null","null","null","null","[2,1]","","",""
"","canvas-keyboard-response","139","170476","0.0-6.0-0.19","506","","","","","pre trial waiting period","null","null","","","catch","sw","l","sh","180","200","223","251","202","153","spektor","null","null","null","null","null","null","null","null","null","null","null","","180","200","260","200","36000","52000","[1,2]","506.24693241524324","139.92750347662783","520.8465345892109"
"","canvas-keyboard-response","140","170496","0.0-6.0-1.19","506","","","","","clear_screen","null","null","","","catch","sw","l","sh","180","200","223","251","202","153","spektor","null","null","null","null","null","null","null","null","null","null","null","","180","200","260","200","36000","52000","[1,2]","506.24693241524324","139.92750347662783","520.8465345892109"
"","canvas-keyboard-response","141","171006","0.0-6.0-2.19","506","","","","","rectangles no change","null","null","","","catch","sw","l","sh","180","200","223","251","202","153","spektor","null","null","null","null","null","null","null","null","null","null","null","","180","200","260","200","36000","52000","[1,2]","506.24693241524324","139.92750347662783","520.8465345892109"
"","canvas-keyboard-response","142","172343","0.0-6.0-3.19","506","","","","","rectangles with change","null","null","","","catch","sw","l","sh","180","200","223","251","202","153","spektor","null","null","null","null","null","null","null","null","null","null","null","","180","200","260","200","36000","52000","[1,2]","506.24693241524324","139.92750347662783","520.8465345892109"
"","canvas-keyboard-response","143","172361","0.0-6.0-4.19","506","","","","","clear_screen","null","null","","","catch","sw","l","sh","180","200","223","251","202","153","spektor","null","null","null","null","null","null","null","null","null","null","null","","180","200","260","200","36000","52000","[1,2]","506.24693241524324","139.92750347662783","520.8465345892109"
"","canvas-keyboard-response","144","173094","0.0-6.0-5.19","506","","","","","make choice","723","2","","","catch","sw","l","sh","180","200","223","251","202","153","spektor","null","null","null","null","null","null","null","null","null","null","null","","180","200","260","200","36000","52000","[1,2]","","",""
"","canvas-keyboard-response","145","173114","0.0-6.0-6.19","506","","","","","clear_screen","null","null","","","catch","sw","l","sh","180","200","223","251","202","153","spektor","null","null","null","null","null","null","null","null","null","null","null","","180","200","260","200","36000","52000","[1,2]","","",""
"","canvas-keyboard-response","146","173316","0.0-6.0-0.20","506","","","","","pre trial waiting period","null","null","","","catch","sh","l","sw","171","211","265","167","209","222","trueblood","null","null","null","null","null","null","null","null","null","null","null","","180","200","260","200","36000","52000","[1,2]","479.95476121671896","477.01683869077897","432.31321532201844"
"","canvas-keyboard-response","147","173336","0.0-6.0-1.20","506","","","","","clear_screen","null","null","","","catch","sh","l","sw","171","211","265","167","209","222","trueblood","null","null","null","null","null","null","null","null","null","null","null","","180","200","260","200","36000","52000","[1,2]","479.95476121671896","477.01683869077897","432.31321532201844"
"","canvas-keyboard-response","148","173848","0.0-6.0-2.20","506","","","","","rectangles no change","null","null","","","catch","sh","l","sw","171","211","265","167","209","222","trueblood","null","null","null","null","null","null","null","null","null","null","null","","180","200","260","200","36000","52000","[1,2]","479.95476121671896","477.01683869077897","432.31321532201844"
"","canvas-keyboard-response","149","175184","0.0-6.0-3.20","506","","","","","rectangles with change","null","null","","","catch","sh","l","sw","171","211","265","167","209","222","trueblood","null","null","null","null","null","null","null","null","null","null","null","","180","200","260","200","36000","52000","[1,2]","479.95476121671896","477.01683869077897","432.31321532201844"
"","canvas-keyboard-response","150","175203","0.0-6.0-4.20","506","","","","","clear_screen","null","null","","","catch","sh","l","sw","171","211","265","167","209","222","trueblood","null","null","null","null","null","null","null","null","null","null","null","","180","200","260","200","36000","52000","[1,2]","479.95476121671896","477.01683869077897","432.31321532201844"
"","canvas-keyboard-response","151","175896","0.0-6.0-5.20","506","","","","","make choice","682","2","","","catch","sh","l","sw","171","211","265","167","209","222","trueblood","null","null","null","null","null","null","null","null","null","null","null","","180","200","260","200","36000","52000","[1,2]","","",""
"","canvas-keyboard-response","152","175913","0.0-6.0-6.20","506","","","","","clear_screen","null","null","","","catch","sh","l","sw","171","211","265","167","209","222","trueblood","null","null","null","null","null","null","null","null","null","null","null","","180","200","260","200","36000","52000","[1,2]","","",""
"","canvas-keyboard-response","153","176115","0.0-6.0-0.21","506","","","","","pre trial waiting period","null","null","","","catch","l","sw","sh","253","213","191","227","172","182","trueblood","null","null","null","null","null","null","null","null","null","null","null","","180","200","260","200","36000","52000","[1,2]","443.8378030415102","450.39846002827335","465.3690738267892"
"","canvas-keyboard-response","154","176135","0.0-6.0-1.21","506","","","","","clear_screen","null","null","","","catch","l","sw","sh","253","213","191","227","172","182","trueblood","null","null","null","null","null","null","null","null","null","null","null","","180","200","260","200","36000","52000","[1,2]","443.8378030415102","450.39846002827335","465.3690738267892"
"","canvas-keyboard-response","155","176645","0.0-6.0-2.21","506","","","","","rectangles no change","null","null","","","catch","l","sw","sh","253","213","191","227","172","182","trueblood","null","null","null","null","null","null","null","null","null","null","null","","180","200","260","200","36000","52000","[1,2]","443.8378030415102","450.39846002827335","465.3690738267892"
"","canvas-keyboard-response","156","177981","0.0-6.0-3.21","506","","","","","rectangles with change","null","null","","","catch","l","sw","sh","253","213","191","227","172","182","trueblood","null","null","null","null","null","null","null","null","null","null","null","","180","200","260","200","36000","52000","[1,2]","443.8378030415102","450.39846002827335","465.3690738267892"
"","canvas-keyboard-response","157","178000","0.0-6.0-4.21","506","","","","","clear_screen","null","null","","","catch","l","sw","sh","253","213","191","227","172","182","trueblood","null","null","null","null","null","null","null","null","null","null","null","","180","200","260","200","36000","52000","[1,2]","443.8378030415102","450.39846002827335","465.3690738267892"
"","canvas-keyboard-response","158","178638","0.0-6.0-5.21","506","","","","","make choice","630","1","","","catch","l","sw","sh","253","213","191","227","172","182","trueblood","null","null","null","null","null","null","null","null","null","null","null","","180","200","260","200","36000","52000","[1,2]","","",""
"","canvas-keyboard-response","159","178656","0.0-6.0-6.21","506","","","","","clear_screen","null","null","","","catch","l","sw","sh","253","213","191","227","172","182","trueblood","null","null","null","null","null","null","null","null","null","null","null","","180","200","260","200","36000","52000","[1,2]","","",""
"","canvas-keyboard-response","160","178858","0.0-6.0-0.22","506","","","","","pre trial waiting period","null","null","","","catch","sw","l","sh","180","200","265","221","177","167","spektor","null","null","null","null","null","null","null","null","null","null","null","","180","200","260","200","36000","52000","[1,2]","489.2927776560054","163.43720590603792","491.9816705620391"
"","canvas-keyboard-response","161","178879","0.0-6.0-1.22","506","","","","","clear_screen","null","null","","","catch","sw","l","sh","180","200","265","221","177","167","spektor","null","null","null","null","null","null","null","null","null","null","null","","180","200","260","200","36000","52000","[1,2]","489.2927776560054","163.43720590603792","491.9816705620391"
"","canvas-keyboard-response","162","179389","0.0-6.0-2.22","506","","","","","rectangles no change","null","null","","","catch","sw","l","sh","180","200","265","221","177","167","spektor","null","null","null","null","null","null","null","null","null","null","null","","180","200","260","200","36000","52000","[1,2]","489.2927776560054","163.43720590603792","491.9816705620391"
"","canvas-keyboard-response","163","180725","0.0-6.0-3.22","506","","","","","rectangles with change","null","null","","","catch","sw","l","sh","180","200","265","221","177","167","spektor","null","null","null","null","null","null","null","null","null","null","null","","180","200","260","200","36000","52000","[1,2]","489.2927776560054","163.43720590603792","491.9816705620391"
"","canvas-keyboard-response","164","180742","0.0-6.0-4.22","506","","","","","clear_screen","null","null","","","catch","sw","l","sh","180","200","265","221","177","167","spektor","null","null","null","null","null","null","null","null","null","null","null","","180","200","260","200","36000","52000","[1,2]","489.2927776560054","163.43720590603792","491.9816705620391"
"","canvas-keyboard-response","165","181358","0.0-6.0-5.22","506","","","","","make choice","607","2","","","catch","sw","l","sh","180","200","265","221","177","167","spektor","null","null","null","null","null","null","null","null","null","null","null","","180","200","260","200","36000","52000","[1,2]","","",""
"","canvas-keyboard-response","166","181375","0.0-6.0-6.22","506","","","","","clear_screen","null","null","","","catch","sw","l","sh","180","200","265","221","177","167","spektor","null","null","null","null","null","null","null","null","null","null","null","","180","200","260","200","36000","52000","[1,2]","","",""
"","canvas-keyboard-response","167","181577","0.0-6.0-0.23","506","","","","","pre trial waiting period","null","null","","","critical","d","t","c","220.0396","154.6796","240","164","164","240","trueblood","0.14","w","240","164","164","240","220.0396","154.6796","39360","39360","34035.6388","dc","null","null","null","null","null","null","[1,3]","493.35575032791735","515.8207967763761","440.1688403958685"
"","canvas-keyboard-response","168","181596","0.0-6.0-1.23","506","","","","","clear_screen","null","null","","","critical","d","t","c","220.0396","154.6796","240","164","164","240","trueblood","0.14","w","240","164","164","240","220.0396","154.6796","39360","39360","34035.6388","dc","null","null","null","null","null","null","[1,3]","493.35575032791735","515.8207967763761","440.1688403958685"
"","canvas-keyboard-response","169","182112","0.0-6.0-2.23","506","","","","","rectangles no change","null","null","","","critical","d","t","c","220.0396","154.6796","240","164","164","240","trueblood","0.14","w","240","164","164","240","220.0396","154.6796","39360","39360","34035.6388","dc","null","null","null","null","null","null","[1,3]","493.35575032791735","515.8207967763761","440.1688403958685"
"","canvas-keyboard-response","170","183448","0.0-6.0-3.23","506","","","","","rectangles with change","null","null","","","critical","d","t","c","220.0396","154.6796","240","164","164","240","trueblood","0.14","w","240","164","164","240","220.0396","154.6796","39360","39360","34035.6388","dc","null","null","null","null","null","null","[1,3]","493.35575032791735","515.8207967763761","440.1688403958685"
"","canvas-keyboard-response","171","183465","0.0-6.0-4.23","506","","","","","clear_screen","null","null","","","critical","d","t","c","220.0396","154.6796","240","164","164","240","trueblood","0.14","w","240","164","164","240","220.0396","154.6796","39360","39360","34035.6388","dc","null","null","null","null","null","null","[1,3]","493.35575032791735","515.8207967763761","440.1688403958685"
"","canvas-keyboard-response","172","184429","0.0-6.0-5.23","506","","","","","make choice","956","1","","","critical","d","t","c","220.0396","154.6796","240","164","164","240","trueblood","0.14","w","240","164","164","240","220.0396","154.6796","39360","39360","34035.6388","dc","null","null","null","null","null","null","[1,3]","","",""
"","canvas-keyboard-response","173","184448","0.0-6.0-6.23","506","","","","","clear_screen","null","null","","","critical","d","t","c","220.0396","154.6796","240","164","164","240","trueblood","0.14","w","240","164","164","240","220.0396","154.6796","39360","39360","34035.6388","dc","null","null","null","null","null","null","[1,3]","","",""
"","canvas-keyboard-response","174","184650","0.0-6.0-0.24","506","","","","","pre trial waiting period","null","null","","","catch","sh","l","sw","209","208","231","203","182","236","trueblood","null","null","null","null","null","null","null","null","null","null","null","","180","200","260","200","36000","52000","[1,2]","460.2351213469618","467.6386497115805","421.90714980855336"
"","canvas-keyboard-response","175","184670","0.0-6.0-1.24","506","","","","","clear_screen","null","null","","","catch","sh","l","sw","209","208","231","203","182","236","trueblood","null","null","null","null","null","null","null","null","null","null","null","","180","200","260","200","36000","52000","[1,2]","460.2351213469618","467.6386497115805","421.90714980855336"
"","canvas-keyboard-response","176","185180","0.0-6.0-2.24","506","","","","","rectangles no change","null","null","","","catch","sh","l","sw","209","208","231","203","182","236","trueblood","null","null","null","null","null","null","null","null","null","null","null","","180","200","260","200","36000","52000","[1,2]","460.2351213469618","467.6386497115805","421.90714980855336"
"","canvas-keyboard-response","177","186514","0.0-6.0-3.24","506","","","","","rectangles with change","null","null","","","catch","sh","l","sw","209","208","231","203","182","236","trueblood","null","null","null","null","null","null","null","null","null","null","null","","180","200","260","200","36000","52000","[1,2]","460.2351213469618","467.6386497115805","421.90714980855336"
"","canvas-keyboard-response","178","186536","0.0-6.0-4.24","506","","","","","clear_screen","null","null","","","catch","sh","l","sw","209","208","231","203","182","236","trueblood","null","null","null","null","null","null","null","null","null","null","null","","180","200","260","200","36000","52000","[1,2]","460.2351213469618","467.6386497115805","421.90714980855336"
"","canvas-keyboard-response","179","187461","0.0-6.0-5.24","506","","","","","make choice","919","2","","","catch","sh","l","sw","209","208","231","203","182","236","trueblood","null","null","null","null","null","null","null","null","null","null","null","","180","200","260","200","36000","52000","[1,2]","","",""
"","canvas-keyboard-response","180","187480","0.0-6.0-6.24","506","","","","","clear_screen","null","null","","","catch","sh","l","sw","209","208","231","203","182","236","trueblood","null","null","null","null","null","null","null","null","null","null","null","","180","200","260","200","36000","52000","[1,2]","","",""
"","canvas-keyboard-response","181","187681","0.0-6.0-0.25","506","","","","","pre trial waiting period","null","null","","","critical","d","t","c","162.6685","237.1485","164","240","240","164","trueblood","0.02","h","164","240","240","164","162.6685","237.1485","39360","39360","38576.5967","dc","null","null","null","null","null","null","[1,3]","458.3769250080303","465.3754396578181","478.03451002776893"
"","canvas-keyboard-response","182","187700","0.0-6.0-1.25","506","","","","","clear_screen","null","null","","","critical","d","t","c","162.6685","237.1485","164","240","240","164","trueblood","0.02","h","164","240","240","164","162.6685","237.1485","39360","39360","38576.5967","dc","null","null","null","null","null","null","[1,3]","458.3769250080303","465.3754396578181","478.03451002776893"
"","canvas-keyboard-response","183","188215","0.0-6.0-2.25","506","","","","","rectangles no change","null","null","","","critical","d","t","c","162.6685","237.1485","164","240","240","164","trueblood","0.02","h","164","240","240","164","162.6685","237.1485","39360","39360","38576.5967","dc","null","null","null","null","null","null","[1,3]","458.3769250080303","465.3754396578181","478.03451002776893"
"","canvas-keyboard-response","184","189549","0.0-6.0-3.25","506","","","","","rectangles with change","null","null","","","critical","d","t","c","162.6685","237.1485","164","240","240","164","trueblood","0.02","h","164","240","240","164","162.6685","237.1485","39360","39360","38576.5967","dc","null","null","null","null","null","null","[1,3]","458.3769250080303","465.3754396578181","478.03451002776893"
"","canvas-keyboard-response","185","189568","0.0-6.0-4.25","506","","","","","clear_screen","null","null","","","critical","d","t","c","162.6685","237.1485","164","240","240","164","trueblood","0.02","h","164","240","240","164","162.6685","237.1485","39360","39360","38576.5967","dc","null","null","null","null","null","null","[1,3]","458.3769250080303","465.3754396578181","478.03451002776893"
"","canvas-keyboard-response","186","190543","0.0-6.0-5.25","506","","","","","make choice","966","3","","","critical","d","t","c","162.6685","237.1485","164","240","240","164","trueblood","0.02","h","164","240","240","164","162.6685","237.1485","39360","39360","38576.5967","dc","null","null","null","null","null","null","[1,3]","","",""
"","canvas-keyboard-response","187","190562","0.0-6.0-6.25","506","","","","","clear_screen","null","null","","","critical","d","t","c","162.6685","237.1485","164","240","240","164","trueblood","0.02","h","164","240","240","164","162.6685","237.1485","39360","39360","38576.5967","dc","null","null","null","null","null","null","[1,3]","","",""
"","canvas-keyboard-response","188","190764","0.0-6.0-0.26","506","","","","","pre trial waiting period","null","null","","","critical","c","t","d","240","164","164","240","158.0083","227.1683","spektor","0.09","h","164","240","240","164","158.0083","227.1683","39360","39360","35894.4834","td","null","null","null","null","null","null","[2,3]","533.3227059681084","116.53806646565936","482.0840998123912"
"","canvas-keyboard-response","189","190782","0.0-6.0-1.26","506","","","","","clear_screen","null","null","","","critical","c","t","d","240","164","164","240","158.0083","227.1683","spektor","0.09","h","164","240","240","164","158.0083","227.1683","39360","39360","35894.4834","td","null","null","null","null","null","null","[2,3]","533.3227059681084","116.53806646565936","482.0840998123912"
"","canvas-keyboard-response","190","191295","0.0-6.0-2.26","506","","","","","rectangles no change","null","null","","","critical","c","t","d","240","164","164","240","158.0083","227.1683","spektor","0.09","h","164","240","240","164","158.0083","227.1683","39360","39360","35894.4834","td","null","null","null","null","null","null","[2,3]","533.3227059681084","116.53806646565936","482.0840998123912"
"","canvas-keyboard-response","191","192629","0.0-6.0-3.26","506","","","","","rectangles with change","null","null","","","critical","c","t","d","240","164","164","240","158.0083","227.1683","spektor","0.09","h","164","240","240","164","158.0083","227.1683","39360","39360","35894.4834","td","null","null","null","null","null","null","[2,3]","533.3227059681084","116.53806646565936","482.0840998123912"
"","canvas-keyboard-response","192","192648","0.0-6.0-4.26","506","","","","","clear_screen","null","null","","","critical","c","t","d","240","164","164","240","158.0083","227.1683","spektor","0.09","h","164","240","240","164","158.0083","227.1683","39360","39360","35894.4834","td","null","null","null","null","null","null","[2,3]","533.3227059681084","116.53806646565936","482.0840998123912"
"","canvas-keyboard-response","193","193621","0.0-6.0-5.26","506","","","","","make choice","964","2","","","critical","c","t","d","240","164","164","240","158.0083","227.1683","spektor","0.09","h","164","240","240","164","158.0083","227.1683","39360","39360","35894.4834","td","null","null","null","null","null","null","[2,3]","","",""
"","canvas-keyboard-response","194","193640","0.0-6.0-6.26","506","","","","","clear_screen","null","null","","","critical","c","t","d","240","164","164","240","158.0083","227.1683","spektor","0.09","h","164","240","240","164","158.0083","227.1683","39360","39360","35894.4834","td","null","null","null","null","null","null","[2,3]","","",""
"","canvas-keyboard-response","195","193841","0.0-6.0-0.27","506","","","","","pre trial waiting period","null","null","","","critical","c","t","d","240","164","164","240","160.6713","232.8713","trueblood","0.05","h","164","240","240","164","160.6713","232.8713","39360","39360","37415.7294","td","null","null","null","null","null","null","[2,3]","478.51649059108234","435.1157509206795","442.139249754912"
"","canvas-keyboard-response","196","193861","0.0-6.0-1.27","506","","","","","clear_screen","null","null","","","critical","c","t","d","240","164","164","240","160.6713","232.8713","trueblood","0.05","h","164","240","240","164","160.6713","232.8713","39360","39360","37415.7294","td","null","null","null","null","null","null","[2,3]","478.51649059108234","435.1157509206795","442.139249754912"
"","canvas-keyboard-response","197","194373","0.0-6.0-2.27","506","","","","","rectangles no change","null","null","","","critical","c","t","d","240","164","164","240","160.6713","232.8713","trueblood","0.05","h","164","240","240","164","160.6713","232.8713","39360","39360","37415.7294","td","null","null","null","null","null","null","[2,3]","478.51649059108234","435.1157509206795","442.139249754912"
"","canvas-keyboard-response","198","195709","0.0-6.0-3.27","506","","","","","rectangles with change","null","null","","","critical","c","t","d","240","164","164","240","160.6713","232.8713","trueblood","0.05","h","164","240","240","164","160.6713","232.8713","39360","39360","37415.7294","td","null","null","null","null","null","null","[2,3]","478.51649059108234","435.1157509206795","442.139249754912"
"","canvas-keyboard-response","199","195727","0.0-6.0-4.27","506","","","","","clear_screen","null","null","","","critical","c","t","d","240","164","164","240","160.6713","232.8713","trueblood","0.05","h","164","240","240","164","160.6713","232.8713","39360","39360","37415.7294","td","null","null","null","null","null","null","[2,3]","478.51649059108234","435.1157509206795","442.139249754912"
"","canvas-keyboard-response","200","196702","0.0-6.0-5.27","506","","","","","make choice","968","2","","","critical","c","t","d","240","164","164","240","160.6713","232.8713","trueblood","0.05","h","164","240","240","164","160.6713","232.8713","39360","39360","37415.7294","td","null","null","null","null","null","null","[2,3]","","",""
"","canvas-keyboard-response","201","196721","0.0-6.0-6.27","506","","","","","clear_screen","null","null","","","critical","c","t","d","240","164","164","240","160.6713","232.8713","trueblood","0.05","h","164","240","240","164","160.6713","232.8713","39360","39360","37415.7294","td","null","null","null","null","null","null","[2,3]","","",""
"","canvas-keyboard-response","202","196922","0.0-6.0-0.28","506","","","","","pre trial waiting period","null","null","","","critical","d","c","t","237.1485","162.6685","164","240","240","164","spektor","0.02","w","240","164","164","240","237.1485","162.6685","39360","39360","38576.5967","tc","null","null","null","null","null","null","[3,2]","503.43505568260673","136.33052140260918","499.36666923275993"
"","canvas-keyboard-response","203","196942","0.0-6.0-1.28","506","","","","","clear_screen","null","null","","","critical","d","c","t","237.1485","162.6685","164","240","240","164","spektor","0.02","w","240","164","164","240","237.1485","162.6685","39360","39360","38576.5967","tc","null","null","null","null","null","null","[3,2]","503.43505568260673","136.33052140260918","499.36666923275993"
"","canvas-keyboard-response","204","197454","0.0-6.0-2.28","506","","","","","rectangles no change","null","null","","","critical","d","c","t","237.1485","162.6685","164","240","240","164","spektor","0.02","w","240","164","164","240","237.1485","162.6685","39360","39360","38576.5967","tc","null","null","null","null","null","null","[3,2]","503.43505568260673","136.33052140260918","499.36666923275993"
"","canvas-keyboard-response","205","198789","0.0-6.0-3.28","506","","","","","rectangles with change","null","null","","","critical","d","c","t","237.1485","162.6685","164","240","240","164","spektor","0.02","w","240","164","164","240","237.1485","162.6685","39360","39360","38576.5967","tc","null","null","null","null","null","null","[3,2]","503.43505568260673","136.33052140260918","499.36666923275993"
"","canvas-keyboard-response","206","198808","0.0-6.0-4.28","506","","","","","clear_screen","null","null","","","critical","d","c","t","237.1485","162.6685","164","240","240","164","spektor","0.02","w","240","164","164","240","237.1485","162.6685","39360","39360","38576.5967","tc","null","null","null","null","null","null","[3,2]","503.43505568260673","136.33052140260918","499.36666923275993"
"","canvas-keyboard-response","207","199454","0.0-6.0-5.28","506","","","","","make choice","640","3","","","critical","d","c","t","237.1485","162.6685","164","240","240","164","spektor","0.02","w","240","164","164","240","237.1485","162.6685","39360","39360","38576.5967","tc","null","null","null","null","null","null","[3,2]","","",""
"","canvas-keyboard-response","208","199472","0.0-6.0-6.28","506","","","","","clear_screen","null","null","","","critical","d","c","t","237.1485","162.6685","164","240","240","164","spektor","0.02","w","240","164","164","240","237.1485","162.6685","39360","39360","38576.5967","tc","null","null","null","null","null","null","[3,2]","","",""
"","canvas-keyboard-response","209","199673","0.0-6.0-0.29","506","","","","","pre trial waiting period","null","null","","","critical","t","d","c","240","164","220.0396","154.6796","164","240","spektor","0.14","w","240","164","164","240","220.0396","154.6796","39360","39360","34035.6388","td","null","null","null","null","null","null","[1,2]","499.1892666774147","196.7735479952644","456.86482162661576"
"","canvas-keyboard-response","210","199692","0.0-6.0-1.29","506","","","","","clear_screen","null","null","","","critical","t","d","c","240","164","220.0396","154.6796","164","240","spektor","0.14","w","240","164","164","240","220.0396","154.6796","39360","39360","34035.6388","td","null","null","null","null","null","null","[1,2]","499.1892666774147","196.7735479952644","456.86482162661576"
"","canvas-keyboard-response","211","200204","0.0-6.0-2.29","506","","","","","rectangles no change","null","null","","","critical","t","d","c","240","164","220.0396","154.6796","164","240","spektor","0.14","w","240","164","164","240","220.0396","154.6796","39360","39360","34035.6388","td","null","null","null","null","null","null","[1,2]","499.1892666774147","196.7735479952644","456.86482162661576"
"","canvas-keyboard-response","212","201540","0.0-6.0-3.29","506","","","","","rectangles with change","null","null","","","critical","t","d","c","240","164","220.0396","154.6796","164","240","spektor","0.14","w","240","164","164","240","220.0396","154.6796","39360","39360","34035.6388","td","null","null","null","null","null","null","[1,2]","499.1892666774147","196.7735479952644","456.86482162661576"
"","canvas-keyboard-response","213","201559","0.0-6.0-4.29","506","","","","","clear_screen","null","null","","","critical","t","d","c","240","164","220.0396","154.6796","164","240","spektor","0.14","w","240","164","164","240","220.0396","154.6796","39360","39360","34035.6388","td","null","null","null","null","null","null","[1,2]","499.1892666774147","196.7735479952644","456.86482162661576"
"","canvas-keyboard-response","214","202565","0.0-6.0-5.29","506","","","","","make choice","1001","1","","","critical","t","d","c","240","164","220.0396","154.6796","164","240","spektor","0.14","w","240","164","164","240","220.0396","154.6796","39360","39360","34035.6388","td","null","null","null","null","null","null","[1,2]","","",""
"","canvas-keyboard-response","215","202590","0.0-6.0-6.29","506","","","","","clear_screen","null","null","","","critical","t","d","c","240","164","220.0396","154.6796","164","240","spektor","0.14","w","240","164","164","240","220.0396","154.6796","39360","39360","34035.6388","td","null","null","null","null","null","null","[1,2]","","",""
"","canvas-keyboard-response","216","202791","0.0-6.0-0.30","506","","","","","pre trial waiting period","null","null","","","critical","d","t","c","232.8713","160.6713","240","164","164","240","spektor","0.05","w","240","164","164","240","232.8713","160.6713","39360","39360","37415.7294","td","null","null","null","null","null","null","[2,1]","512.8513922902428","181.04259679149868","459.64840639161963"
"","canvas-keyboard-response","217","202811","0.0-6.0-1.30","506","","","","","clear_screen","null","null","","","critical","d","t","c","232.8713","160.6713","240","164","164","240","spektor","0.05","w","240","164","164","240","232.8713","160.6713","39360","39360","37415.7294","td","null","null","null","null","null","null","[2,1]","512.8513922902428","181.04259679149868","459.64840639161963"
"","canvas-keyboard-response","218","203327","0.0-6.0-2.30","506","","","","","rectangles no change","null","null","","","critical","d","t","c","232.8713","160.6713","240","164","164","240","spektor","0.05","w","240","164","164","240","232.8713","160.6713","39360","39360","37415.7294","td","null","null","null","null","null","null","[2,1]","512.8513922902428","181.04259679149868","459.64840639161963"
"","canvas-keyboard-response","219","204663","0.0-6.0-3.30","506","","","","","rectangles with change","null","null","","","critical","d","t","c","232.8713","160.6713","240","164","164","240","spektor","0.05","w","240","164","164","240","232.8713","160.6713","39360","39360","37415.7294","td","null","null","null","null","null","null","[2,1]","512.8513922902428","181.04259679149868","459.64840639161963"
"","canvas-keyboard-response","220","204681","0.0-6.0-4.30","506","","","","","clear_screen","null","null","","","critical","d","t","c","232.8713","160.6713","240","164","164","240","spektor","0.05","w","240","164","164","240","232.8713","160.6713","39360","39360","37415.7294","td","null","null","null","null","null","null","[2,1]","512.8513922902428","181.04259679149868","459.64840639161963"
"","canvas-keyboard-response","221","205573","0.0-6.0-5.30","506","","","","","make choice","883","2","","","critical","d","t","c","232.8713","160.6713","240","164","164","240","spektor","0.05","w","240","164","164","240","232.8713","160.6713","39360","39360","37415.7294","td","null","null","null","null","null","null","[2,1]","","",""
"","canvas-keyboard-response","222","205592","0.0-6.0-6.30","506","","","","","clear_screen","null","null","","","critical","d","t","c","232.8713","160.6713","240","164","164","240","spektor","0.05","w","240","164","164","240","232.8713","160.6713","39360","39360","37415.7294","td","null","null","null","null","null","null","[2,1]","","",""
"","canvas-keyboard-response","223","205793","0.0-6.0-0.31","506","","","","","pre trial waiting period","null","null","","","catch","sh","l","sw","180","178","232","171","149","212","trueblood","null","null","null","null","null","null","null","null","null","null","null","","180","200","260","200","36000","52000","[2,3]","503.5841527630651","507.98062474115164","475.9331140419762"
"","canvas-keyboard-response","224","205813","0.0-6.0-1.31","506","","","","","clear_screen","null","null","","","catch","sh","l","sw","180","178","232","171","149","212","trueblood","null","null","null","null","null","null","null","null","null","null","null","","180","200","260","200","36000","52000","[2,3]","503.5841527630651","507.98062474115164","475.9331140419762"
"","canvas-keyboard-response","225","206326","0.0-6.0-2.31","506","","","","","rectangles no change","null","null","","","catch","sh","l","sw","180","178","232","171","149","212","trueblood","null","null","null","null","null","null","null","null","null","null","null","","180","200","260","200","36000","52000","[2,3]","503.5841527630651","507.98062474115164","475.9331140419762"
"","canvas-keyboard-response","226","207662","0.0-6.0-3.31","506","","","","","rectangles with change","null","null","","","catch","sh","l","sw","180","178","232","171","149","212","trueblood","null","null","null","null","null","null","null","null","null","null","null","","180","200","260","200","36000","52000","[2,3]","503.5841527630651","507.98062474115164","475.9331140419762"
"","canvas-keyboard-response","227","207679","0.0-6.0-4.31","506","","","","","clear_screen","null","null","","","catch","sh","l","sw","180","178","232","171","149","212","trueblood","null","null","null","null","null","null","null","null","null","null","null","","180","200","260","200","36000","52000","[2,3]","503.5841527630651","507.98062474115164","475.9331140419762"
"","canvas-keyboard-response","228","208174","0.0-6.0-5.31","506","","","","","make choice","485","2","","","catch","sh","l","sw","180","178","232","171","149","212","trueblood","null","null","null","null","null","null","null","null","null","null","null","","180","200","260","200","36000","52000","[2,3]","","",""
"","canvas-keyboard-response","229","208191","0.0-6.0-6.31","506","","","","","clear_screen","null","null","","","catch","sh","l","sw","180","178","232","171","149","212","trueblood","null","null","null","null","null","null","null","null","null","null","null","","180","200","260","200","36000","52000","[2,3]","","",""
"","canvas-keyboard-response","230","208393","0.0-6.0-0.32","506","","","","","pre trial waiting period","null","null","","","critical","t","c","d","240","164","164","240","237.1485","162.6685","spektor","0.02","w","240","164","164","240","237.1485","162.6685","39360","39360","38576.5967","td","null","null","null","null","null","null","[1,3]","505.5051825752134","131.51007589728383","541.6725677545318"
"","canvas-keyboard-response","231","208412","0.0-6.0-1.32","506","","","","","clear_screen","null","null","","","critical","t","c","d","240","164","164","240","237.1485","162.6685","spektor","0.02","w","240","164","164","240","237.1485","162.6685","39360","39360","38576.5967","td","null","null","null","null","null","null","[1,3]","505.5051825752134","131.51007589728383","541.6725677545318"
"","canvas-keyboard-response","232","208922","0.0-6.0-2.32","506","","","","","rectangles no change","null","null","","","critical","t","c","d","240","164","164","240","237.1485","162.6685","spektor","0.02","w","240","164","164","240","237.1485","162.6685","39360","39360","38576.5967","td","null","null","null","null","null","null","[1,3]","505.5051825752134","131.51007589728383","541.6725677545318"
"","canvas-keyboard-response","233","210257","0.0-6.0-3.32","506","","","","","rectangles with change","null","null","","","critical","t","c","d","240","164","164","240","237.1485","162.6685","spektor","0.02","w","240","164","164","240","237.1485","162.6685","39360","39360","38576.5967","td","null","null","null","null","null","null","[1,3]","505.5051825752134","131.51007589728383","541.6725677545318"
"","canvas-keyboard-response","234","210275","0.0-6.0-4.32","506","","","","","clear_screen","null","null","","","critical","t","c","d","240","164","164","240","237.1485","162.6685","spektor","0.02","w","240","164","164","240","237.1485","162.6685","39360","39360","38576.5967","td","null","null","null","null","null","null","[1,3]","505.5051825752134","131.51007589728383","541.6725677545318"
"","canvas-keyboard-response","235","210933","0.0-6.0-5.32","506","","","","","make choice","651","1","","","critical","t","c","d","240","164","164","240","237.1485","162.6685","spektor","0.02","w","240","164","164","240","237.1485","162.6685","39360","39360","38576.5967","td","null","null","null","null","null","null","[1,3]","","",""
"","canvas-keyboard-response","236","210952","0.0-6.0-6.32","506","","","","","clear_screen","null","null","","","critical","t","c","d","240","164","164","240","237.1485","162.6685","spektor","0.02","w","240","164","164","240","237.1485","162.6685","39360","39360","38576.5967","td","null","null","null","null","null","null","[1,3]","","",""
"","canvas-keyboard-response","237","211153","0.0-6.0-0.33","506","","","","","pre trial waiting period","null","null","","","critical","d","c","t","237.1485","162.6685","164","240","240","164","trueblood","0.02","w","240","164","164","240","237.1485","162.6685","39360","39360","38576.5967","tc","null","null","null","null","null","null","[3,2]","504.1669381271551","442.4316985548258","496.7896818823257"
"","canvas-keyboard-response","238","211172","0.0-6.0-1.33","506","","","","","clear_screen","null","null","","","critical","d","c","t","237.1485","162.6685","164","240","240","164","trueblood","0.02","w","240","164","164","240","237.1485","162.6685","39360","39360","38576.5967","tc","null","null","null","null","null","null","[3,2]","504.1669381271551","442.4316985548258","496.7896818823257"
"","canvas-keyboard-response","239","211682","0.0-6.0-2.33","506","","","","","rectangles no change","null","null","","","critical","d","c","t","237.1485","162.6685","164","240","240","164","trueblood","0.02","w","240","164","164","240","237.1485","162.6685","39360","39360","38576.5967","tc","null","null","null","null","null","null","[3,2]","504.1669381271551","442.4316985548258","496.7896818823257"
"","canvas-keyboard-response","240","213016","0.0-6.0-3.33","506","","","","","rectangles with change","null","null","","","critical","d","c","t","237.1485","162.6685","164","240","240","164","trueblood","0.02","w","240","164","164","240","237.1485","162.6685","39360","39360","38576.5967","tc","null","null","null","null","null","null","[3,2]","504.1669381271551","442.4316985548258","496.7896818823257"
"","canvas-keyboard-response","241","213038","0.0-6.0-4.33","506","","","","","clear_screen","null","null","","","critical","d","c","t","237.1485","162.6685","164","240","240","164","trueblood","0.02","w","240","164","164","240","237.1485","162.6685","39360","39360","38576.5967","tc","null","null","null","null","null","null","[3,2]","504.1669381271551","442.4316985548258","496.7896818823257"
"","canvas-keyboard-response","242","213925","0.0-6.0-5.33","506","","","","","make choice","882","3","","","critical","d","c","t","237.1485","162.6685","164","240","240","164","trueblood","0.02","w","240","164","164","240","237.1485","162.6685","39360","39360","38576.5967","tc","null","null","null","null","null","null","[3,2]","","",""
"","canvas-keyboard-response","243","213944","0.0-6.0-6.33","506","","","","","clear_screen","null","null","","","critical","d","c","t","237.1485","162.6685","164","240","240","164","trueblood","0.02","w","240","164","164","240","237.1485","162.6685","39360","39360","38576.5967","tc","null","null","null","null","null","null","[3,2]","","",""
"","canvas-keyboard-response","244","214144","0.0-6.0-0.34","506","","","","","pre trial waiting period","null","null","","","critical","t","c","d","240","164","164","240","240","164","trueblood","0","w","240","164","164","240","240","164","39360","39360","39360","tc","null","null","null","null","null","null","[1,2]","518.0448616334817","430.51103779308","505.6601519190362"
"","canvas-keyboard-response","245","214164","0.0-6.0-1.34","506","","","","","clear_screen","null","null","","","critical","t","c","d","240","164","164","240","240","164","trueblood","0","w","240","164","164","240","240","164","39360","39360","39360","tc","null","null","null","null","null","null","[1,2]","518.0448616334817","430.51103779308","505.6601519190362"
"","canvas-keyboard-response","246","214676","0.0-6.0-2.34","506","","","","","rectangles no change","null","null","","","critical","t","c","d","240","164","164","240","240","164","trueblood","0","w","240","164","164","240","240","164","39360","39360","39360","tc","null","null","null","null","null","null","[1,2]","518.0448616334817","430.51103779308","505.6601519190362"
"","canvas-keyboard-response","247","216010","0.0-6.0-3.34","506","","","","","rectangles with change","null","null","","","critical","t","c","d","240","164","164","240","240","164","trueblood","0","w","240","164","164","240","240","164","39360","39360","39360","tc","null","null","null","null","null","null","[1,2]","518.0448616334817","430.51103779308","505.6601519190362"
"","canvas-keyboard-response","248","216029","0.0-6.0-4.34","506","","","","","clear_screen","null","null","","","critical","t","c","d","240","164","164","240","240","164","trueblood","0","w","240","164","164","240","240","164","39360","39360","39360","tc","null","null","null","null","null","null","[1,2]","518.0448616334817","430.51103779308","505.6601519190362"
"","canvas-keyboard-response","249","216606","0.0-6.0-5.34","506","","","","","make choice","569","1","","","critical","t","c","d","240","164","164","240","240","164","trueblood","0","w","240","164","164","240","240","164","39360","39360","39360","tc","null","null","null","null","null","null","[1,2]","","",""
"","canvas-keyboard-response","250","216623","0.0-6.0-6.34","506","","","","","clear_screen","null","null","","","critical","t","c","d","240","164","164","240","240","164","trueblood","0","w","240","164","164","240","240","164","39360","39360","39360","tc","null","null","null","null","null","null","[1,2]","","",""
"","canvas-keyboard-response","251","216824","0.0-6.0-0.35","506","","","","","pre trial waiting period","null","null","","","critical","t","c","d","164","240","240","164","160.6713","232.8713","spektor","0.05","h","164","240","240","164","160.6713","232.8713","39360","39360","37415.7294","tc","null","null","null","null","null","null","[1,2]","457.5928260069658","162.7062182760952","467.2143256552273"
"","canvas-keyboard-response","252","216844","0.0-6.0-1.35","506","","","","","clear_screen","null","null","","","critical","t","c","d","164","240","240","164","160.6713","232.8713","spektor","0.05","h","164","240","240","164","160.6713","232.8713","39360","39360","37415.7294","tc","null","null","null","null","null","null","[1,2]","457.5928260069658","162.7062182760952","467.2143256552273"
"","canvas-keyboard-response","253","217355","0.0-6.0-2.35","506","","","","","rectangles no change","null","null","","","critical","t","c","d","164","240","240","164","160.6713","232.8713","spektor","0.05","h","164","240","240","164","160.6713","232.8713","39360","39360","37415.7294","tc","null","null","null","null","null","null","[1,2]","457.5928260069658","162.7062182760952","467.2143256552273"
"","canvas-keyboard-response","254","218691","0.0-6.0-3.35","506","","","","","rectangles with change","null","null","","","critical","t","c","d","164","240","240","164","160.6713","232.8713","spektor","0.05","h","164","240","240","164","160.6713","232.8713","39360","39360","37415.7294","tc","null","null","null","null","null","null","[1,2]","457.5928260069658","162.7062182760952","467.2143256552273"
"","canvas-keyboard-response","255","218713","0.0-6.0-4.35","506","","","","","clear_screen","null","null","","","critical","t","c","d","164","240","240","164","160.6713","232.8713","spektor","0.05","h","164","240","240","164","160.6713","232.8713","39360","39360","37415.7294","tc","null","null","null","null","null","null","[1,2]","457.5928260069658","162.7062182760952","467.2143256552273"
"","canvas-keyboard-response","256","219342","0.0-6.0-5.35","506","","","","","make choice","621","2","","","critical","t","c","d","164","240","240","164","160.6713","232.8713","spektor","0.05","h","164","240","240","164","160.6713","232.8713","39360","39360","37415.7294","tc","null","null","null","null","null","null","[1,2]","","",""
"","canvas-keyboard-response","257","219362","0.0-6.0-6.35","506","","","","","clear_screen","null","null","","","critical","t","c","d","164","240","240","164","160.6713","232.8713","spektor","0.05","h","164","240","240","164","160.6713","232.8713","39360","39360","37415.7294","tc","null","null","null","null","null","null","[1,2]","","",""
"","canvas-keyboard-response","258","219564","0.0-6.0-0.36","506","","","","","pre trial waiting period","null","null","","","critical","t","c","d","240","164","164","240","240","164","spektor","0","w","240","164","164","240","240","164","39360","39360","39360","dc","null","null","null","null","null","null","[3,2]","532.9976833444255","142.36840278179326","511.79136054854894"
"","canvas-keyboard-response","259","219585","0.0-6.0-1.36","506","","","","","clear_screen","null","null","","","critical","t","c","d","240","164","164","240","240","164","spektor","0","w","240","164","164","240","240","164","39360","39360","39360","dc","null","null","null","null","null","null","[3,2]","532.9976833444255","142.36840278179326","511.79136054854894"
"","canvas-keyboard-response","260","220097","0.0-6.0-2.36","506","","","","","rectangles no change","null","null","","","critical","t","c","d","240","164","164","240","240","164","spektor","0","w","240","164","164","240","240","164","39360","39360","39360","dc","null","null","null","null","null","null","[3,2]","532.9976833444255","142.36840278179326","511.79136054854894"
"","canvas-keyboard-response","261","221434","0.0-6.0-3.36","506","","","","","rectangles with change","null","null","","","critical","t","c","d","240","164","164","240","240","164","spektor","0","w","240","164","164","240","240","164","39360","39360","39360","dc","null","null","null","null","null","null","[3,2]","532.9976833444255","142.36840278179326","511.79136054854894"
"","canvas-keyboard-response","262","221453","0.0-6.0-4.36","506","","","","","clear_screen","null","null","","","critical","t","c","d","240","164","164","240","240","164","spektor","0","w","240","164","164","240","240","164","39360","39360","39360","dc","null","null","null","null","null","null","[3,2]","532.9976833444255","142.36840278179326","511.79136054854894"
"","canvas-keyboard-response","263","222150","0.0-6.0-5.36","506","","","","","make choice","688","3","","","critical","t","c","d","240","164","164","240","240","164","spektor","0","w","240","164","164","240","240","164","39360","39360","39360","dc","null","null","null","null","null","null","[3,2]","","",""
"","canvas-keyboard-response","264","222169","0.0-6.0-6.36","506","","","","","clear_screen","null","null","","","critical","t","c","d","240","164","164","240","240","164","spektor","0","w","240","164","164","240","240","164","39360","39360","39360","dc","null","null","null","null","null","null","[3,2]","","",""
"","canvas-keyboard-response","265","222372","0.0-6.0-0.37","506","","","","","pre trial waiting period","null","null","","","catch","sw","l","sh","180","200","196","253","211","170","trueblood","null","null","null","null","null","null","null","null","null","null","null","","180","200","260","200","36000","52000","[1,2]","492.8922509876616","453.8978054462956","505.4244587043346"
"","canvas-keyboard-response","266","222393","0.0-6.0-1.37","506","","","","","clear_screen","null","null","","","catch","sw","l","sh","180","200","196","253","211","170","trueblood","null","null","null","null","null","null","null","null","null","null","null","","180","200","260","200","36000","52000","[1,2]","492.8922509876616","453.8978054462956","505.4244587043346"
