"success","trial_type","trial_index","time_elapsed","internal_node_id","sub_n","timeout","failed_images","failed_audio","failed_video","screen_id","rt","response","stimulus","view_history","trial","r1","r2","r3","w1","h1","w2","h2","w3","h3","display","tdd","tdo","tw","th","cw","ch","dw","dh","ta","ca","da","probe","csls","csss","clls","clss","sa","la","probe_rects","r1yloc","r2yloc","r3yloc"
"true","fullscreen","0","3644","0.0-0.0","529","","","","","","","","","","","","","","","","","","","","","","","","","","","","","","","","","","","","","","","","","",""
"true","preload","1","3657","0.0-1.0","529","false","[]","[]","[]","img preload","","","","","","","","","","","","","","","","","","","","","","","","","","","","","","","","","","","","",""
"","survey-html-form","2","20348","0.0-2.0","529","","","","","enter-sub-number","16678","{""response"":""529""}","","","","","","","","","","","","","","","","","","","","","","","","","","","","","","","","","","",""
"","image-button-response","3","96845","0.0-3.0","529","","","","","","76431","0","consent.png","","","","","","","","","","","","","","","","","","","","","","","","","","","","","","","","","",""
"","html-button-response","4","105702","0.0-4.0","529","","","","","intro mssg","8849","0","<div style= ""font-size:25px;"" <p> <strong> Welcome! </strong><br> <p style=""color:#8B0000; font-size:25px;""><strong> Please do NOT exit full screen until you are done with the experiment. </strong> </p><p style=""font-size:25px;color:#8B0000;""> <strong> Your data will be lost <br> if you try to go back or refresh the page after the experiment starts. Feel free to click ""previous"" during the instructions, however.</strong> </p><br><p> <strong> Thanks in advance for your contribution to our research! </strong></p>","","","","","","","","","","","","","","","","","","","","","","","","","","","","","","","","","",""
"","instructions","5","174957","0.0-5.0","529","","","","","instructions","69252","","","[{""page_index"":0,""viewing_time"":12356},{""page_index"":1,""viewing_time"":7862},{""page_index"":2,""viewing_time"":8137},{""page_index"":3,""viewing_time"":22705},{""page_index"":4,""viewing_time"":7464},{""page_index"":5,""viewing_time"":3376},{""page_index"":6,""viewing_time"":3529},{""page_index"":7,""viewing_time"":3823}]","","","","","","","","","","","","","","","","","","","","","","","","","","","","","","","","",""
"","canvas-keyboard-response","6","175163","0.0-6.0-0.0","529","","","","","pre trial waiting period","null","null","","","catch","l","sh","sw","208","284","194","156","217","232","trueblood","null","null","null","null","null","null","null","null","null","null","null","","180","200","260","200","36000","52000","[1,3]","431.1259698369857","479.782575209577","449.8439225913206"
"","canvas-keyboard-response","7","175184","0.0-6.0-1.0","529","","","","","clear_screen","null","null","","","catch","l","sh","sw","208","284","194","156","217","232","trueblood","null","null","null","null","null","null","null","null","null","null","null","","180","200","260","200","36000","52000","[1,3]","431.1259698369857","479.782575209577","449.8439225913206"
"","canvas-keyboard-response","8","175696","0.0-6.0-2.0","529","","","","","rectangles no change","null","null","","","catch","l","sh","sw","208","284","194","156","217","232","trueblood","null","null","null","null","null","null","null","null","null","null","null","","180","200","260","200","36000","52000","[1,3]","431.1259698369857","479.782575209577","449.8439225913206"
"","canvas-keyboard-response","9","177035","0.0-6.0-3.0","529","","","","","rectangles with change","null","null","","","catch","l","sh","sw","208","284","194","156","217","232","trueblood","null","null","null","null","null","null","null","null","null","null","null","","180","200","260","200","36000","52000","[1,3]","431.1259698369857","479.782575209577","449.8439225913206"
"","canvas-keyboard-response","10","177056","0.0-6.0-4.0","529","","","","","clear_screen","null","null","","","catch","l","sh","sw","208","284","194","156","217","232","trueblood","null","null","null","null","null","null","null","null","null","null","null","","180","200","260","200","36000","52000","[1,3]","431.1259698369857","479.782575209577","449.8439225913206"
"","canvas-keyboard-response","11","184757","0.0-6.0-5.0","529","","","","","make choice","7694","1","","","catch","l","sh","sw","208","284","194","156","217","232","trueblood","null","null","null","null","null","null","null","null","null","null","null","","180","200","260","200","36000","52000","[1,3]","","",""
"","canvas-keyboard-response","12","184775","0.0-6.0-6.0","529","","","","","clear_screen","null","null","","","catch","l","sh","sw","208","284","194","156","217","232","trueblood","null","null","null","null","null","null","null","null","null","null","null","","180","200","260","200","36000","52000","[1,3]","","",""
"","canvas-keyboard-response","13","184976","0.0-6.0-0.1","529","","","","","pre trial waiting period","null","null","","","critical","d","c","t","158.0083","227.1683","240","164","164","240","spektor","0.09","h","164","240","240","164","158.0083","227.1683","39360","39360","35894.4834","td","null","null","null","null","null","null","[3,1]","505.66433075287705","188.81449709010678","470.7902885323184"
"","canvas-keyboard-response","14","184995","0.0-6.0-1.1","529","","","","","clear_screen","null","null","","","critical","d","c","t","158.0083","227.1683","240","164","164","240","spektor","0.09","h","164","240","240","164","158.0083","227.1683","39360","39360","35894.4834","td","null","null","null","null","null","null","[3,1]","505.66433075287705","188.81449709010678","470.7902885323184"
"","canvas-keyboard-response","15","185502","0.0-6.0-2.1","529","","","","","rectangles no change","null","null","","","critical","d","c","t","158.0083","227.1683","240","164","164","240","spektor","0.09","h","164","240","240","164","158.0083","227.1683","39360","39360","35894.4834","td","null","null","null","null","null","null","[3,1]","505.66433075287705","188.81449709010678","470.7902885323184"
"","canvas-keyboard-response","16","186842","0.0-6.0-3.1","529","","","","","rectangles with change","null","null","","","critical","d","c","t","158.0083","227.1683","240","164","164","240","spektor","0.09","h","164","240","240","164","158.0083","227.1683","39360","39360","35894.4834","td","null","null","null","null","null","null","[3,1]","505.66433075287705","188.81449709010678","470.7902885323184"
"","canvas-keyboard-response","17","186863","0.0-6.0-4.1","529","","","","","clear_screen","null","null","","","critical","d","c","t","158.0083","227.1683","240","164","164","240","spektor","0.09","h","164","240","240","164","158.0083","227.1683","39360","39360","35894.4834","td","null","null","null","null","null","null","[3,1]","505.66433075287705","188.81449709010678","470.7902885323184"
"","canvas-keyboard-response","18","190901","0.0-6.0-5.1","529","","","","","make choice","4027","1","","","critical","d","c","t","158.0083","227.1683","240","164","164","240","spektor","0.09","h","164","240","240","164","158.0083","227.1683","39360","39360","35894.4834","td","null","null","null","null","null","null","[3,1]","","",""
"","canvas-keyboard-response","19","190919","0.0-6.0-6.1","529","","","","","clear_screen","null","null","","","critical","d","c","t","158.0083","227.1683","240","164","164","240","spektor","0.09","h","164","240","240","164","158.0083","227.1683","39360","39360","35894.4834","td","null","null","null","null","null","null","[3,1]","","",""
"","canvas-keyboard-response","20","191120","0.0-6.0-0.2","529","","","","","pre trial waiting period","null","null","","","critical","t","c","d","164","240","240","164","164","240","trueblood","0","h","164","240","240","164","164","240","39360","39360","39360","td","null","null","null","null","null","null","[1,3]","458.55345085193784","506.3668930752676","446.37229858665813"
"","canvas-keyboard-response","21","191141","0.0-6.0-1.2","529","","","","","clear_screen","null","null","","","critical","t","c","d","164","240","240","164","164","240","trueblood","0","h","164","240","240","164","164","240","39360","39360","39360","td","null","null","null","null","null","null","[1,3]","458.55345085193784","506.3668930752676","446.37229858665813"
"","canvas-keyboard-response","22","191647","0.0-6.0-2.2","529","","","","","rectangles no change","null","null","","","critical","t","c","d","164","240","240","164","164","240","trueblood","0","h","164","240","240","164","164","240","39360","39360","39360","td","null","null","null","null","null","null","[1,3]","458.55345085193784","506.3668930752676","446.37229858665813"
"","canvas-keyboard-response","23","192986","0.0-6.0-3.2","529","","","","","rectangles with change","null","null","","","critical","t","c","d","164","240","240","164","164","240","trueblood","0","h","164","240","240","164","164","240","39360","39360","39360","td","null","null","null","null","null","null","[1,3]","458.55345085193784","506.3668930752676","446.37229858665813"
"","canvas-keyboard-response","24","193008","0.0-6.0-4.2","529","","","","","clear_screen","null","null","","","critical","t","c","d","164","240","240","164","164","240","trueblood","0","h","164","240","240","164","164","240","39360","39360","39360","td","null","null","null","null","null","null","[1,3]","458.55345085193784","506.3668930752676","446.37229858665813"
"","canvas-keyboard-response","25","193997","0.0-6.0-5.2","529","","","","","make choice","984","1","","","critical","t","c","d","164","240","240","164","164","240","trueblood","0","h","164","240","240","164","164","240","39360","39360","39360","td","null","null","null","null","null","null","[1,3]","","",""
"","canvas-keyboard-response","26","194014","0.0-6.0-6.2","529","","","","","clear_screen","null","null","","","critical","t","c","d","164","240","240","164","164","240","trueblood","0","h","164","240","240","164","164","240","39360","39360","39360","td","null","null","null","null","null","null","[1,3]","","",""
"","canvas-keyboard-response","27","194215","0.0-6.0-0.3","529","","","","","pre trial waiting period","null","null","","","critical","c","d","t","240","164","154.6796","220.0396","164","240","spektor","0.14","h","164","240","240","164","154.6796","220.0396","39360","39360","34035.6388","td","null","null","null","null","null","null","[3,2]","502.56963679784013","121.41679863191658","474.38055531334595"
"","canvas-keyboard-response","28","194235","0.0-6.0-1.3","529","","","","","clear_screen","null","null","","","critical","c","d","t","240","164","154.6796","220.0396","164","240","spektor","0.14","h","164","240","240","164","154.6796","220.0396","39360","39360","34035.6388","td","null","null","null","null","null","null","[3,2]","502.56963679784013","121.41679863191658","474.38055531334595"
"","canvas-keyboard-response","29","194745","0.0-6.0-2.3","529","","","","","rectangles no change","null","null","","","critical","c","d","t","240","164","154.6796","220.0396","164","240","spektor","0.14","h","164","240","240","164","154.6796","220.0396","39360","39360","34035.6388","td","null","null","null","null","null","null","[3,2]","502.56963679784013","121.41679863191658","474.38055531334595"
"","canvas-keyboard-response","30","196080","0.0-6.0-3.3","529","","","","","rectangles with change","null","null","","","critical","c","d","t","240","164","154.6796","220.0396","164","240","spektor","0.14","h","164","240","240","164","154.6796","220.0396","39360","39360","34035.6388","td","null","null","null","null","null","null","[3,2]","502.56963679784013","121.41679863191658","474.38055531334595"
"","canvas-keyboard-response","31","196100","0.0-6.0-4.3","529","","","","","clear_screen","null","null","","","critical","c","d","t","240","164","154.6796","220.0396","164","240","spektor","0.14","h","164","240","240","164","154.6796","220.0396","39360","39360","34035.6388","td","null","null","null","null","null","null","[3,2]","502.56963679784013","121.41679863191658","474.38055531334595"
"","canvas-keyboard-response","32","198141","0.0-6.0-5.3","529","","","","","make choice","2037","3","","","critical","c","d","t","240","164","154.6796","220.0396","164","240","spektor","0.14","h","164","240","240","164","154.6796","220.0396","39360","39360","34035.6388","td","null","null","null","null","null","null","[3,2]","","",""
"","canvas-keyboard-response","33","198158","0.0-6.0-6.3","529","","","","","clear_screen","null","null","","","critical","c","d","t","240","164","154.6796","220.0396","164","240","spektor","0.14","h","164","240","240","164","154.6796","220.0396","39360","39360","34035.6388","td","null","null","null","null","null","null","[3,2]","","",""
"","canvas-keyboard-response","34","198360","0.0-6.0-0.4","529","","","","","pre trial waiting period","null","null","","","critical","d","c","t","240","164","164","240","240","164","spektor","0","w","240","164","164","240","240","164","39360","39360","39360","dc","null","null","null","null","null","null","[1,2]","520.2616239113759","128.59669886660777","503.1631479635246"
"","canvas-keyboard-response","35","198379","0.0-6.0-1.4","529","","","","","clear_screen","null","null","","","critical","d","c","t","240","164","164","240","240","164","spektor","0","w","240","164","164","240","240","164","39360","39360","39360","dc","null","null","null","null","null","null","[1,2]","520.2616239113759","128.59669886660777","503.1631479635246"
"","canvas-keyboard-response","36","198884","0.0-6.0-2.4","529","","","","","rectangles no change","null","null","","","critical","d","c","t","240","164","164","240","240","164","spektor","0","w","240","164","164","240","240","164","39360","39360","39360","dc","null","null","null","null","null","null","[1,2]","520.2616239113759","128.59669886660777","503.1631479635246"
"","canvas-keyboard-response","37","200217","0.0-6.0-3.4","529","","","","","rectangles with change","null","null","","","critical","d","c","t","240","164","164","240","240","164","spektor","0","w","240","164","164","240","240","164","39360","39360","39360","dc","null","null","null","null","null","null","[1,2]","520.2616239113759","128.59669886660777","503.1631479635246"
"","canvas-keyboard-response","38","200238","0.0-6.0-4.4","529","","","","","clear_screen","null","null","","","critical","d","c","t","240","164","164","240","240","164","spektor","0","w","240","164","164","240","240","164","39360","39360","39360","dc","null","null","null","null","null","null","[1,2]","520.2616239113759","128.59669886660777","503.1631479635246"
"","canvas-keyboard-response","39","202525","0.0-6.0-5.4","529","","","","","make choice","2281","1","","","critical","d","c","t","240","164","164","240","240","164","spektor","0","w","240","164","164","240","240","164","39360","39360","39360","dc","null","null","null","null","null","null","[1,2]","","",""
"","canvas-keyboard-response","40","202546","0.0-6.0-6.4","529","","","","","clear_screen","null","null","","","critical","d","c","t","240","164","164","240","240","164","spektor","0","w","240","164","164","240","240","164","39360","39360","39360","dc","null","null","null","null","null","null","[1,2]","","",""
"","canvas-keyboard-response","41","202748","0.0-6.0-0.5","529","","","","","pre trial waiting period","null","null","","","critical","c","d","t","240","164","154.6796","220.0396","164","240","spektor","0.14","h","164","240","240","164","154.6796","220.0396","39360","39360","34035.6388","dc","null","null","null","null","null","null","[2,1]","507.84563305750225","158.86534231024132","472.90943929362356"
"","canvas-keyboard-response","42","202768","0.0-6.0-1.5","529","","","","","clear_screen","null","null","","","critical","c","d","t","240","164","154.6796","220.0396","164","240","spektor","0.14","h","164","240","240","164","154.6796","220.0396","39360","39360","34035.6388","dc","null","null","null","null","null","null","[2,1]","507.84563305750225","158.86534231024132","472.90943929362356"
"","canvas-keyboard-response","43","203274","0.0-6.0-2.5","529","","","","","rectangles no change","null","null","","","critical","c","d","t","240","164","154.6796","220.0396","164","240","spektor","0.14","h","164","240","240","164","154.6796","220.0396","39360","39360","34035.6388","dc","null","null","null","null","null","null","[2,1]","507.84563305750225","158.86534231024132","472.90943929362356"
"","canvas-keyboard-response","44","204612","0.0-6.0-3.5","529","","","","","rectangles with change","null","null","","","critical","c","d","t","240","164","154.6796","220.0396","164","240","spektor","0.14","h","164","240","240","164","154.6796","220.0396","39360","39360","34035.6388","dc","null","null","null","null","null","null","[2,1]","507.84563305750225","158.86534231024132","472.90943929362356"
"","canvas-keyboard-response","45","204635","0.0-6.0-4.5","529","","","","","clear_screen","null","null","","","critical","c","d","t","240","164","154.6796","220.0396","164","240","spektor","0.14","h","164","240","240","164","154.6796","220.0396","39360","39360","34035.6388","dc","null","null","null","null","null","null","[2,1]","507.84563305750225","158.86534231024132","472.90943929362356"
"","canvas-keyboard-response","46","205397","0.0-6.0-5.5","529","","","","","make choice","758","1","","","critical","c","d","t","240","164","154.6796","220.0396","164","240","spektor","0.14","h","164","240","240","164","154.6796","220.0396","39360","39360","34035.6388","dc","null","null","null","null","null","null","[2,1]","","",""
"","canvas-keyboard-response","47","205416","0.0-6.0-6.5","529","","","","","clear_screen","null","null","","","critical","c","d","t","240","164","154.6796","220.0396","164","240","spektor","0.14","h","164","240","240","164","154.6796","220.0396","39360","39360","34035.6388","dc","null","null","null","null","null","null","[2,1]","","",""
"","canvas-keyboard-response","48","205619","0.0-6.0-0.6","529","","","","","pre trial waiting period","null","null","","","critical","d","c","t","227.1683","158.0083","164","240","240","164","spektor","0.09","w","240","164","164","240","227.1683","158.0083","39360","39360","35894.4834","tc","null","null","null","null","null","null","[3,2]","533.2169854245736","149.4118905410598","508.756272623667"
"","canvas-keyboard-response","49","205639","0.0-6.0-1.6","529","","","","","clear_screen","null","null","","","critical","d","c","t","227.1683","158.0083","164","240","240","164","spektor","0.09","w","240","164","164","240","227.1683","158.0083","39360","39360","35894.4834","tc","null","null","null","null","null","null","[3,2]","533.2169854245736","149.4118905410598","508.756272623667"
"","canvas-keyboard-response","50","206146","0.0-6.0-2.6","529","","","","","rectangles no change","null","null","","","critical","d","c","t","227.1683","158.0083","164","240","240","164","spektor","0.09","w","240","164","164","240","227.1683","158.0083","39360","39360","35894.4834","tc","null","null","null","null","null","null","[3,2]","533.2169854245736","149.4118905410598","508.756272623667"
"","canvas-keyboard-response","51","207485","0.0-6.0-3.6","529","","","","","rectangles with change","null","null","","","critical","d","c","t","227.1683","158.0083","164","240","240","164","spektor","0.09","w","240","164","164","240","227.1683","158.0083","39360","39360","35894.4834","tc","null","null","null","null","null","null","[3,2]","533.2169854245736","149.4118905410598","508.756272623667"
"","canvas-keyboard-response","52","207503","0.0-6.0-4.6","529","","","","","clear_screen","null","null","","","critical","d","c","t","227.1683","158.0083","164","240","240","164","spektor","0.09","w","240","164","164","240","227.1683","158.0083","39360","39360","35894.4834","tc","null","null","null","null","null","null","[3,2]","533.2169854245736","149.4118905410598","508.756272623667"
"","canvas-keyboard-response","53","208189","0.0-6.0-5.6","529","","","","","make choice","681","3","","","critical","d","c","t","227.1683","158.0083","164","240","240","164","spektor","0.09","w","240","164","164","240","227.1683","158.0083","39360","39360","35894.4834","tc","null","null","null","null","null","null","[3,2]","","",""
"","canvas-keyboard-response","54","208206","0.0-6.0-6.6","529","","","","","clear_screen","null","null","","","critical","d","c","t","227.1683","158.0083","164","240","240","164","spektor","0.09","w","240","164","164","240","227.1683","158.0083","39360","39360","35894.4834","tc","null","null","null","null","null","null","[3,2]","","",""
"","canvas-keyboard-response","55","208408","0.0-6.0-0.7","529","","","","","pre trial waiting period","null","null","","","catch","sh","l","sw","210","217","270","168","215","211","spektor","null","null","null","null","null","null","null","null","null","null","null","","180","200","260","200","36000","52000","[2,3]","504.0655772484148","159.5648617345549","494.39747126631374"
"","canvas-keyboard-response","56","208429","0.0-6.0-1.7","529","","","","","clear_screen","null","null","","","catch","sh","l","sw","210","217","270","168","215","211","spektor","null","null","null","null","null","null","null","null","null","null","null","","180","200","260","200","36000","52000","[2,3]","504.0655772484148","159.5648617345549","494.39747126631374"
"","canvas-keyboard-response","57","208937","0.0-6.0-2.7","529","","","","","rectangles no change","null","null","","","catch","sh","l","sw","210","217","270","168","215","211","spektor","null","null","null","null","null","null","null","null","null","null","null","","180","200","260","200","36000","52000","[2,3]","504.0655772484148","159.5648617345549","494.39747126631374"
"","canvas-keyboard-response","58","210272","0.0-6.0-3.7","529","","","","","rectangles with change","null","null","","","catch","sh","l","sw","210","217","270","168","215","211","spektor","null","null","null","null","null","null","null","null","null","null","null","","180","200","260","200","36000","52000","[2,3]","504.0655772484148","159.5648617345549","494.39747126631374"
"","canvas-keyboard-response","59","210291","0.0-6.0-4.7","529","","","","","clear_screen","null","null","","","catch","sh","l","sw","210","217","270","168","215","211","spektor","null","null","null","null","null","null","null","null","null","null","null","","180","200","260","200","36000","52000","[2,3]","504.0655772484148","159.5648617345549","494.39747126631374"
"","canvas-keyboard-response","60","211389","0.0-6.0-5.7","529","","","","","make choice","1090","3","","","catch","sh","l","sw","210","217","270","168","215","211","spektor","null","null","null","null","null","null","null","null","null","null","null","","180","200","260","200","36000","52000","[2,3]","","",""
"","canvas-keyboard-response","61","211407","0.0-6.0-6.7","529","","","","","clear_screen","null","null","","","catch","sh","l","sw","210","217","270","168","215","211","spektor","null","null","null","null","null","null","null","null","null","null","null","","180","200","260","200","36000","52000","[2,3]","","",""
"","canvas-keyboard-response","62","211608","0.0-6.0-0.8","529","","","","","pre trial waiting period","null","null","","","critical","t","d","c","164","240","154.6796","220.0396","240","164","trueblood","0.14","h","164","240","240","164","154.6796","220.0396","39360","39360","34035.6388","dc","null","null","null","null","null","null","[2,3]","425.1001911860609","444.9140795826946","493.4222523871197"
"","canvas-keyboard-response","63","211629","0.0-6.0-1.8","529","","","","","clear_screen","null","null","","","critical","t","d","c","164","240","154.6796","220.0396","240","164","trueblood","0.14","h","164","240","240","164","154.6796","220.0396","39360","39360","34035.6388","dc","null","null","null","null","null","null","[2,3]","425.1001911860609","444.9140795826946","493.4222523871197"
"","canvas-keyboard-response","64","212137","0.0-6.0-2.8","529","","","","","rectangles no change","null","null","","","critical","t","d","c","164","240","154.6796","220.0396","240","164","trueblood","0.14","h","164","240","240","164","154.6796","220.0396","39360","39360","34035.6388","dc","null","null","null","null","null","null","[2,3]","425.1001911860609","444.9140795826946","493.4222523871197"
"","canvas-keyboard-response","65","213474","0.0-6.0-3.8","529","","","","","rectangles with change","null","null","","","critical","t","d","c","164","240","154.6796","220.0396","240","164","trueblood","0.14","h","164","240","240","164","154.6796","220.0396","39360","39360","34035.6388","dc","null","null","null","null","null","null","[2,3]","425.1001911860609","444.9140795826946","493.4222523871197"
"","canvas-keyboard-response","66","213493","0.0-6.0-4.8","529","","","","","clear_screen","null","null","","","critical","t","d","c","164","240","154.6796","220.0396","240","164","trueblood","0.14","h","164","240","240","164","154.6796","220.0396","39360","39360","34035.6388","dc","null","null","null","null","null","null","[2,3]","425.1001911860609","444.9140795826946","493.4222523871197"
"","canvas-keyboard-response","67","214277","0.0-6.0-5.8","529","","","","","make choice","773","3","","","critical","t","d","c","164","240","154.6796","220.0396","240","164","trueblood","0.14","h","164","240","240","164","154.6796","220.0396","39360","39360","34035.6388","dc","null","null","null","null","null","null","[2,3]","","",""
"","canvas-keyboard-response","68","214295","0.0-6.0-6.8","529","","","","","clear_screen","null","null","","","critical","t","d","c","164","240","154.6796","220.0396","240","164","trueblood","0.14","h","164","240","240","164","154.6796","220.0396","39360","39360","34035.6388","dc","null","null","null","null","null","null","[2,3]","","",""
"","canvas-keyboard-response","69","214496","0.0-6.0-0.9","529","","","","","pre trial waiting period","null","null","","","critical","c","d","t","240","164","164","240","164","240","trueblood","0","h","164","240","240","164","164","240","39360","39360","39360","dc","null","null","null","null","null","null","[2,1]","492.07081993807964","458.963511438161","457.84670362300767"
"","canvas-keyboard-response","70","214511","0.0-6.0-1.9","529","","","","","clear_screen","null","null","","","critical","c","d","t","240","164","164","240","164","240","trueblood","0","h","164","240","240","164","164","240","39360","39360","39360","dc","null","null","null","null","null","null","[2,1]","492.07081993807964","458.963511438161","457.84670362300767"
"","canvas-keyboard-response","71","215021","0.0-6.0-2.9","529","","","","","rectangles no change","null","null","","","critical","c","d","t","240","164","164","240","164","240","trueblood","0","h","164","240","240","164","164","240","39360","39360","39360","dc","null","null","null","null","null","null","[2,1]","492.07081993807964","458.963511438161","457.84670362300767"
"","canvas-keyboard-response","72","216356","0.0-6.0-3.9","529","","","","","rectangles with change","null","null","","","critical","c","d","t","240","164","164","240","164","240","trueblood","0","h","164","240","240","164","164","240","39360","39360","39360","dc","null","null","null","null","null","null","[2,1]","492.07081993807964","458.963511438161","457.84670362300767"
"","canvas-keyboard-response","73","216375","0.0-6.0-4.9","529","","","","","clear_screen","null","null","","","critical","c","d","t","240","164","164","240","164","240","trueblood","0","h","164","240","240","164","164","240","39360","39360","39360","dc","null","null","null","null","null","null","[2,1]","492.07081993807964","458.963511438161","457.84670362300767"
"","canvas-keyboard-response","74","216420","0.0-6.0-5.9","529","","","","","make choice","38","1","","","critical","c","d","t","240","164","164","240","164","240","trueblood","0","h","164","240","240","164","164","240","39360","39360","39360","dc","null","null","null","null","null","null","[2,1]","","",""
"","canvas-keyboard-response","75","216436","0.0-6.0-6.9","529","","","","","clear_screen","null","null","","","critical","c","d","t","240","164","164","240","164","240","trueblood","0","h","164","240","240","164","164","240","39360","39360","39360","dc","null","null","null","null","null","null","[2,1]","","",""
"","canvas-keyboard-response","76","216637","0.0-6.0-0.10","529","","","","","pre trial waiting period","null","null","","","critical","d","c","t","162.6685","237.1485","240","164","164","240","spektor","0.02","h","164","240","240","164","162.6685","237.1485","39360","39360","38576.5967","dc","null","null","null","null","null","null","[1,2]","471.85714048286366","159.8516944682018","456.68160556255134"
"","canvas-keyboard-response","77","216657","0.0-6.0-1.10","529","","","","","clear_screen","null","null","","","critical","d","c","t","162.6685","237.1485","240","164","164","240","spektor","0.02","h","164","240","240","164","162.6685","237.1485","39360","39360","38576.5967","dc","null","null","null","null","null","null","[1,2]","471.85714048286366","159.8516944682018","456.68160556255134"
"","canvas-keyboard-response","78","217165","0.0-6.0-2.10","529","","","","","rectangles no change","null","null","","","critical","d","c","t","162.6685","237.1485","240","164","164","240","spektor","0.02","h","164","240","240","164","162.6685","237.1485","39360","39360","38576.5967","dc","null","null","null","null","null","null","[1,2]","471.85714048286366","159.8516944682018","456.68160556255134"
"","canvas-keyboard-response","79","218506","0.0-6.0-3.10","529","","","","","rectangles with change","null","null","","","critical","d","c","t","162.6685","237.1485","240","164","164","240","spektor","0.02","h","164","240","240","164","162.6685","237.1485","39360","39360","38576.5967","dc","null","null","null","null","null","null","[1,2]","471.85714048286366","159.8516944682018","456.68160556255134"
"","canvas-keyboard-response","80","218525","0.0-6.0-4.10","529","","","","","clear_screen","null","null","","","critical","d","c","t","162.6685","237.1485","240","164","164","240","spektor","0.02","h","164","240","240","164","162.6685","237.1485","39360","39360","38576.5967","dc","null","null","null","null","null","null","[1,2]","471.85714048286366","159.8516944682018","456.68160556255134"
"","canvas-keyboard-response","81","219829","0.0-6.0-5.10","529","","","","","make choice","1297","2","","","critical","d","c","t","162.6685","237.1485","240","164","164","240","spektor","0.02","h","164","240","240","164","162.6685","237.1485","39360","39360","38576.5967","dc","null","null","null","null","null","null","[1,2]","","",""
"","canvas-keyboard-response","82","219848","0.0-6.0-6.10","529","","","","","clear_screen","null","null","","","critical","d","c","t","162.6685","237.1485","240","164","164","240","spektor","0.02","h","164","240","240","164","162.6685","237.1485","39360","39360","38576.5967","dc","null","null","null","null","null","null","[1,2]","","",""
"","canvas-keyboard-response","83","220049","0.0-6.0-0.11","529","","","","","pre trial waiting period","null","null","","","catch","sw","l","sh","180","200","195","247","231","186","trueblood","null","null","null","null","null","null","null","null","null","null","null","","180","200","260","200","36000","52000","[1,2]","488.95704060369013","449.4170032539093","460.4350599470126"
"","canvas-keyboard-response","84","220069","0.0-6.0-1.11","529","","","","","clear_screen","null","null","","","catch","sw","l","sh","180","200","195","247","231","186","trueblood","null","null","null","null","null","null","null","null","null","null","null","","180","200","260","200","36000","52000","[1,2]","488.95704060369013","449.4170032539093","460.4350599470126"
"","canvas-keyboard-response","85","220574","0.0-6.0-2.11","529","","","","","rectangles no change","null","null","","","catch","sw","l","sh","180","200","195","247","231","186","trueblood","null","null","null","null","null","null","null","null","null","null","null","","180","200","260","200","36000","52000","[1,2]","488.95704060369013","449.4170032539093","460.4350599470126"
"","canvas-keyboard-response","86","221907","0.0-6.0-3.11","529","","","","","rectangles with change","null","null","","","catch","sw","l","sh","180","200","195","247","231","186","trueblood","null","null","null","null","null","null","null","null","null","null","null","","180","200","260","200","36000","52000","[1,2]","488.95704060369013","449.4170032539093","460.4350599470126"
"","canvas-keyboard-response","87","221927","0.0-6.0-4.11","529","","","","","clear_screen","null","null","","","catch","sw","l","sh","180","200","195","247","231","186","trueblood","null","null","null","null","null","null","null","null","null","null","null","","180","200","260","200","36000","52000","[1,2]","488.95704060369013","449.4170032539093","460.4350599470126"
"","canvas-keyboard-response","88","223477","0.0-6.0-5.11","529","","","","","make choice","1543","2","","","catch","sw","l","sh","180","200","195","247","231","186","trueblood","null","null","null","null","null","null","null","null","null","null","null","","180","200","260","200","36000","52000","[1,2]","","",""
"","canvas-keyboard-response","89","223494","0.0-6.0-6.11","529","","","","","clear_screen","null","null","","","catch","sw","l","sh","180","200","195","247","231","186","trueblood","null","null","null","null","null","null","null","null","null","null","null","","180","200","260","200","36000","52000","[1,2]","","",""
"","canvas-keyboard-response","90","223695","0.0-6.0-0.12","529","","","","","pre trial waiting period","null","null","","","catch","l","sw","sh","291","180","161","238","167","179","trueblood","null","null","null","null","null","null","null","null","null","null","null","","180","200","260","200","36000","52000","[1,2]","505.7627223738117","465.5190355653152","467.84794490652905"
"","canvas-keyboard-response","91","223718","0.0-6.0-1.12","529","","","","","clear_screen","null","null","","","catch","l","sw","sh","291","180","161","238","167","179","trueblood","null","null","null","null","null","null","null","null","null","null","null","","180","200","260","200","36000","52000","[1,2]","505.7627223738117","465.5190355653152","467.84794490652905"
"","canvas-keyboard-response","92","224227","0.0-6.0-2.12","529","","","","","rectangles no change","null","null","","","catch","l","sw","sh","291","180","161","238","167","179","trueblood","null","null","null","null","null","null","null","null","null","null","null","","180","200","260","200","36000","52000","[1,2]","505.7627223738117","465.5190355653152","467.84794490652905"
"","canvas-keyboard-response","93","225568","0.0-6.0-3.12","529","","","","","rectangles with change","null","null","","","catch","l","sw","sh","291","180","161","238","167","179","trueblood","null","null","null","null","null","null","null","null","null","null","null","","180","200","260","200","36000","52000","[1,2]","505.7627223738117","465.5190355653152","467.84794490652905"
"","canvas-keyboard-response","94","225584","0.0-6.0-4.12","529","","","","","clear_screen","null","null","","","catch","l","sw","sh","291","180","161","238","167","179","trueblood","null","null","null","null","null","null","null","null","null","null","null","","180","200","260","200","36000","52000","[1,2]","505.7627223738117","465.5190355653152","467.84794490652905"
"","canvas-keyboard-response","95","226316","0.0-6.0-5.12","529","","","","","make choice","724","1","","","catch","l","sw","sh","291","180","161","238","167","179","trueblood","null","null","null","null","null","null","null","null","null","null","null","","180","200","260","200","36000","52000","[1,2]","","",""
"","canvas-keyboard-response","96","226333","0.0-6.0-6.12","529","","","","","clear_screen","null","null","","","catch","l","sw","sh","291","180","161","238","167","179","trueblood","null","null","null","null","null","null","null","null","null","null","null","","180","200","260","200","36000","52000","[1,2]","","",""
"","canvas-keyboard-response","97","226534","0.0-6.0-0.13","529","","","","","pre trial waiting period","null","null","","","critical","d","c","t","232.8713","160.6713","164","240","240","164","trueblood","0.05","w","240","164","164","240","232.8713","160.6713","39360","39360","37415.7294","td","null","null","null","null","null","null","[3,1]","482.87275199920373","434.01400959494197","480.19399164029795"
"","canvas-keyboard-response","98","226555","0.0-6.0-1.13","529","","","","","clear_screen","null","null","","","critical","d","c","t","232.8713","160.6713","164","240","240","164","trueblood","0.05","w","240","164","164","240","232.8713","160.6713","39360","39360","37415.7294","td","null","null","null","null","null","null","[3,1]","482.87275199920373","434.01400959494197","480.19399164029795"
"","canvas-keyboard-response","99","227061","0.0-6.0-2.13","529","","","","","rectangles no change","null","null","","","critical","d","c","t","232.8713","160.6713","164","240","240","164","trueblood","0.05","w","240","164","164","240","232.8713","160.6713","39360","39360","37415.7294","td","null","null","null","null","null","null","[3,1]","482.87275199920373","434.01400959494197","480.19399164029795"
"","canvas-keyboard-response","100","228395","0.0-6.0-3.13","529","","","","","rectangles with change","null","null","","","critical","d","c","t","232.8713","160.6713","164","240","240","164","trueblood","0.05","w","240","164","164","240","232.8713","160.6713","39360","39360","37415.7294","td","null","null","null","null","null","null","[3,1]","482.87275199920373","434.01400959494197","480.19399164029795"
"","canvas-keyboard-response","101","228414","0.0-6.0-4.13","529","","","","","clear_screen","null","null","","","critical","d","c","t","232.8713","160.6713","164","240","240","164","trueblood","0.05","w","240","164","164","240","232.8713","160.6713","39360","39360","37415.7294","td","null","null","null","null","null","null","[3,1]","482.87275199920373","434.01400959494197","480.19399164029795"
"","canvas-keyboard-response","102","229884","0.0-6.0-5.13","529","","","","","make choice","1463","3","","","critical","d","c","t","232.8713","160.6713","164","240","240","164","trueblood","0.05","w","240","164","164","240","232.8713","160.6713","39360","39360","37415.7294","td","null","null","null","null","null","null","[3,1]","","",""
"","canvas-keyboard-response","103","229903","0.0-6.0-6.13","529","","","","","clear_screen","null","null","","","critical","d","c","t","232.8713","160.6713","164","240","240","164","trueblood","0.05","w","240","164","164","240","232.8713","160.6713","39360","39360","37415.7294","td","null","null","null","null","null","null","[3,1]","","",""
"","canvas-keyboard-response","104","230105","0.0-6.0-0.14","529","","","","","pre trial waiting period","null","null","","","critical","d","t","c","240","164","240","164","164","240","spektor","0","w","240","164","164","240","240","164","39360","39360","39360","td","null","null","null","null","null","null","[2,1]","538.7436180589093","186.7575462972994","503.9680587163148"
"","canvas-keyboard-response","105","230126","0.0-6.0-1.14","529","","","","","clear_screen","null","null","","","critical","d","t","c","240","164","240","164","164","240","spektor","0","w","240","164","164","240","240","164","39360","39360","39360","td","null","null","null","null","null","null","[2,1]","538.7436180589093","186.7575462972994","503.9680587163148"
"","canvas-keyboard-response","106","230630","0.0-6.0-2.14","529","","","","","rectangles no change","null","null","","","critical","d","t","c","240","164","240","164","164","240","spektor","0","w","240","164","164","240","240","164","39360","39360","39360","td","null","null","null","null","null","null","[2,1]","538.7436180589093","186.7575462972994","503.9680587163148"
"","canvas-keyboard-response","107","231964","0.0-6.0-3.14","529","","","","","rectangles with change","null","null","","","critical","d","t","c","240","164","240","164","164","240","spektor","0","w","240","164","164","240","240","164","39360","39360","39360","td","null","null","null","null","null","null","[2,1]","538.7436180589093","186.7575462972994","503.9680587163148"
"","canvas-keyboard-response","108","231984","0.0-6.0-4.14","529","","","","","clear_screen","null","null","","","critical","d","t","c","240","164","240","164","164","240","spektor","0","w","240","164","164","240","240","164","39360","39360","39360","td","null","null","null","null","null","null","[2,1]","538.7436180589093","186.7575462972994","503.9680587163148"
"","canvas-keyboard-response","109","233452","0.0-6.0-5.14","529","","","","","make choice","1463","2","","","critical","d","t","c","240","164","240","164","164","240","spektor","0","w","240","164","164","240","240","164","39360","39360","39360","td","null","null","null","null","null","null","[2,1]","","",""
"","canvas-keyboard-response","110","233472","0.0-6.0-6.14","529","","","","","clear_screen","null","null","","","critical","d","t","c","240","164","240","164","164","240","spektor","0","w","240","164","164","240","240","164","39360","39360","39360","td","null","null","null","null","null","null","[2,1]","","",""
"","canvas-keyboard-response","111","233672","0.0-6.0-0.15","529","","","","","pre trial waiting period","null","null","","","critical","d","t","c","160.6713","232.8713","164","240","240","164","spektor","0.05","h","164","240","240","164","160.6713","232.8713","39360","39360","37415.7294","tc","null","null","null","null","null","null","[2,3]","483.97150102831586","122.61890632467988","531.361994291031"
"","canvas-keyboard-response","112","233692","0.0-6.0-1.15","529","","","","","clear_screen","null","null","","","critical","d","t","c","160.6713","232.8713","164","240","240","164","spektor","0.05","h","164","240","240","164","160.6713","232.8713","39360","39360","37415.7294","tc","null","null","null","null","null","null","[2,3]","483.97150102831586","122.61890632467988","531.361994291031"
"","canvas-keyboard-response","113","234197","0.0-6.0-2.15","529","","","","","rectangles no change","null","null","","","critical","d","t","c","160.6713","232.8713","164","240","240","164","spektor","0.05","h","164","240","240","164","160.6713","232.8713","39360","39360","37415.7294","tc","null","null","null","null","null","null","[2,3]","483.97150102831586","122.61890632467988","531.361994291031"
"","canvas-keyboard-response","114","235532","0.0-6.0-3.15","529","","","","","rectangles with change","null","null","","","critical","d","t","c","160.6713","232.8713","164","240","240","164","spektor","0.05","h","164","240","240","164","160.6713","232.8713","39360","39360","37415.7294","tc","null","null","null","null","null","null","[2,3]","483.97150102831586","122.61890632467988","531.361994291031"
"","canvas-keyboard-response","115","235548","0.0-6.0-4.15","529","","","","","clear_screen","null","null","","","critical","d","t","c","160.6713","232.8713","164","240","240","164","spektor","0.05","h","164","240","240","164","160.6713","232.8713","39360","39360","37415.7294","tc","null","null","null","null","null","null","[2,3]","483.97150102831586","122.61890632467988","531.361994291031"
"","canvas-keyboard-response","116","236085","0.0-6.0-5.15","529","","","","","make choice","527","3","","","critical","d","t","c","160.6713","232.8713","164","240","240","164","spektor","0.05","h","164","240","240","164","160.6713","232.8713","39360","39360","37415.7294","tc","null","null","null","null","null","null","[2,3]","","",""
"","canvas-keyboard-response","117","236105","0.0-6.0-6.15","529","","","","","clear_screen","null","null","","","critical","d","t","c","160.6713","232.8713","164","240","240","164","spektor","0.05","h","164","240","240","164","160.6713","232.8713","39360","39360","37415.7294","tc","null","null","null","null","null","null","[2,3]","","",""
"","canvas-keyboard-response","118","236308","0.0-6.0-0.16","529","","","","","pre trial waiting period","null","null","","","catch","l","sw","sh","217","248","197","212","221","211","spektor","null","null","null","null","null","null","null","null","null","null","null","","180","200","260","200","36000","52000","[1,2]","453.50682082196494","135.40735464136912","508.6636519624689"
"","canvas-keyboard-response","119","236332","0.0-6.0-1.16","529","","","","","clear_screen","null","null","","","catch","l","sw","sh","217","248","197","212","221","211","spektor","null","null","null","null","null","null","null","null","null","null","null","","180","200","260","200","36000","52000","[1,2]","453.50682082196494","135.40735464136912","508.6636519624689"
"","canvas-keyboard-response","120","236841","0.0-6.0-2.16","529","","","","","rectangles no change","null","null","","","catch","l","sw","sh","217","248","197","212","221","211","spektor","null","null","null","null","null","null","null","null","null","null","null","","180","200","260","200","36000","52000","[1,2]","453.50682082196494","135.40735464136912","508.6636519624689"
"","canvas-keyboard-response","121","238179","0.0-6.0-3.16","529","","","","","rectangles with change","null","null","","","catch","l","sw","sh","217","248","197","212","221","211","spektor","null","null","null","null","null","null","null","null","null","null","null","","180","200","260","200","36000","52000","[1,2]","453.50682082196494","135.40735464136912","508.6636519624689"
"","canvas-keyboard-response","122","238200","0.0-6.0-4.16","529","","","","","clear_screen","null","null","","","catch","l","sw","sh","217","248","197","212","221","211","spektor","null","null","null","null","null","null","null","null","null","null","null","","180","200","260","200","36000","52000","[1,2]","453.50682082196494","135.40735464136912","508.6636519624689"
"","canvas-keyboard-response","123","238644","0.0-6.0-5.16","529","","","","","make choice","437","1","","","catch","l","sw","sh","217","248","197","212","221","211","spektor","null","null","null","null","null","null","null","null","null","null","null","","180","200","260","200","36000","52000","[1,2]","","",""
"","canvas-keyboard-response","124","238663","0.0-6.0-6.16","529","","","","","clear_screen","null","null","","","catch","l","sw","sh","217","248","197","212","221","211","spektor","null","null","null","null","null","null","null","null","null","null","null","","180","200","260","200","36000","52000","[1,2]","","",""
"","canvas-keyboard-response","125","238865","0.0-6.0-0.17","529","","","","","pre trial waiting period","null","null","","","critical","c","d","t","164","240","237.1485","162.6685","240","164","spektor","0.02","w","240","164","164","240","237.1485","162.6685","39360","39360","38576.5967","td","null","null","null","null","null","null","[3,2]","469.9371060809089","216.9370588364528","541.2757444634957"
"","canvas-keyboard-response","126","238886","0.0-6.0-1.17","529","","","","","clear_screen","null","null","","","critical","c","d","t","164","240","237.1485","162.6685","240","164","spektor","0.02","w","240","164","164","240","237.1485","162.6685","39360","39360","38576.5967","td","null","null","null","null","null","null","[3,2]","469.9371060809089","216.9370588364528","541.2757444634957"
"","canvas-keyboard-response","127","239394","0.0-6.0-2.17","529","","","","","rectangles no change","null","null","","","critical","c","d","t","164","240","237.1485","162.6685","240","164","spektor","0.02","w","240","164","164","240","237.1485","162.6685","39360","39360","38576.5967","td","null","null","null","null","null","null","[3,2]","469.9371060809089","216.9370588364528","541.2757444634957"
"","canvas-keyboard-response","128","240735","0.0-6.0-3.17","529","","","","","rectangles with change","null","null","","","critical","c","d","t","164","240","237.1485","162.6685","240","164","spektor","0.02","w","240","164","164","240","237.1485","162.6685","39360","39360","38576.5967","td","null","null","null","null","null","null","[3,2]","469.9371060809089","216.9370588364528","541.2757444634957"
"","canvas-keyboard-response","129","240754","0.0-6.0-4.17","529","","","","","clear_screen","null","null","","","critical","c","d","t","164","240","237.1485","162.6685","240","164","spektor","0.02","w","240","164","164","240","237.1485","162.6685","39360","39360","38576.5967","td","null","null","null","null","null","null","[3,2]","469.9371060809089","216.9370588364528","541.2757444634957"
"","canvas-keyboard-response","130","240844","0.0-6.0-5.17","529","","","","","make choice","83","3","","","critical","c","d","t","164","240","237.1485","162.6685","240","164","spektor","0.02","w","240","164","164","240","237.1485","162.6685","39360","39360","38576.5967","td","null","null","null","null","null","null","[3,2]","","",""
"","canvas-keyboard-response","131","240864","0.0-6.0-6.17","529","","","","","clear_screen","null","null","","","critical","c","d","t","164","240","237.1485","162.6685","240","164","spektor","0.02","w","240","164","164","240","237.1485","162.6685","39360","39360","38576.5967","td","null","null","null","null","null","null","[3,2]","","",""
"","canvas-keyboard-response","132","241065","0.0-6.0-0.18","529","","","","","pre trial waiting period","null","null","","","critical","c","t","d","164","240","240","164","232.8713","160.6713","spektor","0.05","w","240","164","164","240","232.8713","160.6713","39360","39360","37415.7294","dc","null","null","null","null","null","null","[3,1]","502.5535856534573","184.15904121541467","506.0778494687435"
"","canvas-keyboard-response","133","241086","0.0-6.0-1.18","529","","","","","clear_screen","null","null","","","critical","c","t","d","164","240","240","164","232.8713","160.6713","spektor","0.05","w","240","164","164","240","232.8713","160.6713","39360","39360","37415.7294","dc","null","null","null","null","null","null","[3,1]","502.5535856534573","184.15904121541467","506.0778494687435"
"","canvas-keyboard-response","134","241593","0.0-6.0-2.18","529","","","","","rectangles no change","null","null","","","critical","c","t","d","164","240","240","164","232.8713","160.6713","spektor","0.05","w","240","164","164","240","232.8713","160.6713","39360","39360","37415.7294","dc","null","null","null","null","null","null","[3,1]","502.5535856534573","184.15904121541467","506.0778494687435"
"","canvas-keyboard-response","135","242933","0.0-6.0-3.18","529","","","","","rectangles with change","null","null","","","critical","c","t","d","164","240","240","164","232.8713","160.6713","spektor","0.05","w","240","164","164","240","232.8713","160.6713","39360","39360","37415.7294","dc","null","null","null","null","null","null","[3,1]","502.5535856534573","184.15904121541467","506.0778494687435"
"","canvas-keyboard-response","136","242951","0.0-6.0-4.18","529","","","","","clear_screen","null","null","","","critical","c","t","d","164","240","240","164","232.8713","160.6713","spektor","0.05","w","240","164","164","240","232.8713","160.6713","39360","39360","37415.7294","dc","null","null","null","null","null","null","[3,1]","502.5535856534573","184.15904121541467","506.0778494687435"
"","canvas-keyboard-response","137","243628","0.0-6.0-5.18","529","","","","","make choice","670","3","","","critical","c","t","d","164","240","240","164","232.8713","160.6713","spektor","0.05","w","240","164","164","240","232.8713","160.6713","39360","39360","37415.7294","dc","null","null","null","null","null","null","[3,1]","","",""
"","canvas-keyboard-response","138","243645","0.0-6.0-6.18","529","","","","","clear_screen","null","null","","","critical","c","t","d","164","240","240","164","232.8713","160.6713","spektor","0.05","w","240","164","164","240","232.8713","160.6713","39360","39360","37415.7294","dc","null","null","null","null","null","null","[3,1]","","",""
"","canvas-keyboard-response","139","243846","0.0-6.0-0.19","529","","","","","pre trial waiting period","null","null","","","critical","d","c","t","227.1683","158.0083","164","240","240","164","spektor","0.09","w","240","164","164","240","227.1683","158.0083","39360","39360","35894.4834","td","null","null","null","null","null","null","[3,1]","529.5408869124244","146.0333004955586","499.0168686778293"
"","canvas-keyboard-response","140","243868","0.0-6.0-1.19","529","","","","","clear_screen","null","null","","","critical","d","c","t","227.1683","158.0083","164","240","240","164","spektor","0.09","w","240","164","164","240","227.1683","158.0083","39360","39360","35894.4834","td","null","null","null","null","null","null","[3,1]","529.5408869124244","146.0333004955586","499.0168686778293"
"","canvas-keyboard-response","141","244379","0.0-6.0-2.19","529","","","","","rectangles no change","null","null","","","critical","d","c","t","227.1683","158.0083","164","240","240","164","spektor","0.09","w","240","164","164","240","227.1683","158.0083","39360","39360","35894.4834","td","null","null","null","null","null","null","[3,1]","529.5408869124244","146.0333004955586","499.0168686778293"
"","canvas-keyboard-response","142","245718","0.0-6.0-3.19","529","","","","","rectangles with change","null","null","","","critical","d","c","t","227.1683","158.0083","164","240","240","164","spektor","0.09","w","240","164","164","240","227.1683","158.0083","39360","39360","35894.4834","td","null","null","null","null","null","null","[3,1]","529.5408869124244","146.0333004955586","499.0168686778293"
"","canvas-keyboard-response","143","245732","0.0-6.0-4.19","529","","","","","clear_screen","null","null","","","critical","d","c","t","227.1683","158.0083","164","240","240","164","spektor","0.09","w","240","164","164","240","227.1683","158.0083","39360","39360","35894.4834","td","null","null","null","null","null","null","[3,1]","529.5408869124244","146.0333004955586","499.0168686778293"
"","canvas-keyboard-response","144","246517","0.0-6.0-5.19","529","","","","","make choice","780","3","","","critical","d","c","t","227.1683","158.0083","164","240","240","164","spektor","0.09","w","240","164","164","240","227.1683","158.0083","39360","39360","35894.4834","td","null","null","null","null","null","null","[3,1]","","",""
"","canvas-keyboard-response","145","246537","0.0-6.0-6.19","529","","","","","clear_screen","null","null","","","critical","d","c","t","227.1683","158.0083","164","240","240","164","spektor","0.09","w","240","164","164","240","227.1683","158.0083","39360","39360","35894.4834","td","null","null","null","null","null","null","[3,1]","","",""
"","canvas-keyboard-response","146","246737","0.0-6.0-0.20","529","","","","","pre trial waiting period","null","null","","","catch","sw","sh","l","180","200","224","140","258","214","trueblood","null","null","null","null","null","null","null","null","null","null","null","","180","200","260","200","36000","52000","[1,3]","451.19638541048107","532.7926599862597","453.34699628685115"
"","canvas-keyboard-response","147","246755","0.0-6.0-1.20","529","","","","","clear_screen","null","null","","","catch","sw","sh","l","180","200","224","140","258","214","trueblood","null","null","null","null","null","null","null","null","null","null","null","","180","200","260","200","36000","52000","[1,3]","451.19638541048107","532.7926599862597","453.34699628685115"
"","canvas-keyboard-response","148","247264","0.0-6.0-2.20","529","","","","","rectangles no change","null","null","","","catch","sw","sh","l","180","200","224","140","258","214","trueblood","null","null","null","null","null","null","null","null","null","null","null","","180","200","260","200","36000","52000","[1,3]","451.19638541048107","532.7926599862597","453.34699628685115"
"","canvas-keyboard-response","149","248599","0.0-6.0-3.20","529","","","","","rectangles with change","null","null","","","catch","sw","sh","l","180","200","224","140","258","214","trueblood","null","null","null","null","null","null","null","null","null","null","null","","180","200","260","200","36000","52000","[1,3]","451.19638541048107","532.7926599862597","453.34699628685115"
"","canvas-keyboard-response","150","248618","0.0-6.0-4.20","529","","","","","clear_screen","null","null","","","catch","sw","sh","l","180","200","224","140","258","214","trueblood","null","null","null","null","null","null","null","null","null","null","null","","180","200","260","200","36000","52000","[1,3]","451.19638541048107","532.7926599862597","453.34699628685115"
"","canvas-keyboard-response","151","252766","0.0-6.0-5.20","529","","","","","make choice","4141","3","","","catch","sw","sh","l","180","200","224","140","258","214","trueblood","null","null","null","null","null","null","null","null","null","null","null","","180","200","260","200","36000","52000","[1,3]","","",""
"","canvas-keyboard-response","152","252781","0.0-6.0-6.20","529","","","","","clear_screen","null","null","","","catch","sw","sh","l","180","200","224","140","258","214","trueblood","null","null","null","null","null","null","null","null","null","null","null","","180","200","260","200","36000","52000","[1,3]","","",""
"","canvas-keyboard-response","153","252982","0.0-6.0-0.21","529","","","","","pre trial waiting period","null","null","","","critical","d","t","c","227.1683","158.0083","240","164","164","240","spektor","0.09","w","240","164","164","240","227.1683","158.0083","39360","39360","35894.4834","dc","null","null","null","null","null","null","[1,3]","532.2990638291483","182.85156172452517","500.49345210825913"
"","canvas-keyboard-response","154","253000","0.0-6.0-1.21","529","","","","","clear_screen","null","null","","","critical","d","t","c","227.1683","158.0083","240","164","164","240","spektor","0.09","w","240","164","164","240","227.1683","158.0083","39360","39360","35894.4834","dc","null","null","null","null","null","null","[1,3]","532.2990638291483","182.85156172452517","500.49345210825913"
"","canvas-keyboard-response","155","253507","0.0-6.0-2.21","529","","","","","rectangles no change","null","null","","","critical","d","t","c","227.1683","158.0083","240","164","164","240","spektor","0.09","w","240","164","164","240","227.1683","158.0083","39360","39360","35894.4834","dc","null","null","null","null","null","null","[1,3]","532.2990638291483","182.85156172452517","500.49345210825913"
"","canvas-keyboard-response","156","254842","0.0-6.0-3.21","529","","","","","rectangles with change","null","null","","","critical","d","t","c","227.1683","158.0083","240","164","164","240","spektor","0.09","w","240","164","164","240","227.1683","158.0083","39360","39360","35894.4834","dc","null","null","null","null","null","null","[1,3]","532.2990638291483","182.85156172452517","500.49345210825913"
"","canvas-keyboard-response","157","254861","0.0-6.0-4.21","529","","","","","clear_screen","null","null","","","critical","d","t","c","227.1683","158.0083","240","164","164","240","spektor","0.09","w","240","164","164","240","227.1683","158.0083","39360","39360","35894.4834","dc","null","null","null","null","null","null","[1,3]","532.2990638291483","182.85156172452517","500.49345210825913"
"","canvas-keyboard-response","158","258308","0.0-6.0-5.21","529","","","","","make choice","3442","1","","","critical","d","t","c","227.1683","158.0083","240","164","164","240","spektor","0.09","w","240","164","164","240","227.1683","158.0083","39360","39360","35894.4834","dc","null","null","null","null","null","null","[1,3]","","",""
"","canvas-keyboard-response","159","258327","0.0-6.0-6.21","529","","","","","clear_screen","null","null","","","critical","d","t","c","227.1683","158.0083","240","164","164","240","spektor","0.09","w","240","164","164","240","227.1683","158.0083","39360","39360","35894.4834","dc","null","null","null","null","null","null","[1,3]","","",""
"","canvas-keyboard-response","160","258529","0.0-6.0-0.22","529","","","","","pre trial waiting period","null","null","","","critical","c","d","t","240","164","160.6713","232.8713","164","240","spektor","0.05","h","164","240","240","164","160.6713","232.8713","39360","39360","37415.7294","dc","null","null","null","null","null","null","[2,1]","504.5327246937522","135.22870545431826","470.1053683456224"
"","canvas-keyboard-response","161","258548","0.0-6.0-1.22","529","","","","","clear_screen","null","null","","","critical","c","d","t","240","164","160.6713","232.8713","164","240","spektor","0.05","h","164","240","240","164","160.6713","232.8713","39360","39360","37415.7294","dc","null","null","null","null","null","null","[2,1]","504.5327246937522","135.22870545431826","470.1053683456224"
"","canvas-keyboard-response","162","259055","0.0-6.0-2.22","529","","","","","rectangles no change","null","null","","","critical","c","d","t","240","164","160.6713","232.8713","164","240","spektor","0.05","h","164","240","240","164","160.6713","232.8713","39360","39360","37415.7294","dc","null","null","null","null","null","null","[2,1]","504.5327246937522","135.22870545431826","470.1053683456224"
"","canvas-keyboard-response","163","260392","0.0-6.0-3.22","529","","","","","rectangles with change","null","null","","","critical","c","d","t","240","164","160.6713","232.8713","164","240","spektor","0.05","h","164","240","240","164","160.6713","232.8713","39360","39360","37415.7294","dc","null","null","null","null","null","null","[2,1]","504.5327246937522","135.22870545431826","470.1053683456224"
"","canvas-keyboard-response","164","260414","0.0-6.0-4.22","529","","","","","clear_screen","null","null","","","critical","c","d","t","240","164","160.6713","232.8713","164","240","spektor","0.05","h","164","240","240","164","160.6713","232.8713","39360","39360","37415.7294","dc","null","null","null","null","null","null","[2,1]","504.5327246937522","135.22870545431826","470.1053683456224"
"","canvas-keyboard-response","165","261005","0.0-6.0-5.22","529","","","","","make choice","585","1","","","critical","c","d","t","240","164","160.6713","232.8713","164","240","spektor","0.05","h","164","240","240","164","160.6713","232.8713","39360","39360","37415.7294","dc","null","null","null","null","null","null","[2,1]","","",""
"","canvas-keyboard-response","166","261022","0.0-6.0-6.22","529","","","","","clear_screen","null","null","","","critical","c","d","t","240","164","160.6713","232.8713","164","240","spektor","0.05","h","164","240","240","164","160.6713","232.8713","39360","39360","37415.7294","dc","null","null","null","null","null","null","[2,1]","","",""
"","canvas-keyboard-response","167","261223","0.0-6.0-0.23","529","","","","","pre trial waiting period","null","null","","","catch","sh","sw","l","196","217","166","232","281","222","spektor","null","null","null","null","null","null","null","null","null","null","null","","180","200","260","200","36000","52000","[2,3]","491.7818995553782","106.0990525658355","479.44627391617104"
"","canvas-keyboard-response","168","261243","0.0-6.0-1.23","529","","","","","clear_screen","null","null","","","catch","sh","sw","l","196","217","166","232","281","222","spektor","null","null","null","null","null","null","null","null","null","null","null","","180","200","260","200","36000","52000","[2,3]","491.7818995553782","106.0990525658355","479.44627391617104"
"","canvas-keyboard-response","169","261752","0.0-6.0-2.23","529","","","","","rectangles no change","null","null","","","catch","sh","sw","l","196","217","166","232","281","222","spektor","null","null","null","null","null","null","null","null","null","null","null","","180","200","260","200","36000","52000","[2,3]","491.7818995553782","106.0990525658355","479.44627391617104"
"","canvas-keyboard-response","170","263087","0.0-6.0-3.23","529","","","","","rectangles with change","null","null","","","catch","sh","sw","l","196","217","166","232","281","222","spektor","null","null","null","null","null","null","null","null","null","null","null","","180","200","260","200","36000","52000","[2,3]","491.7818995553782","106.0990525658355","479.44627391617104"
"","canvas-keyboard-response","171","263109","0.0-6.0-4.23","529","","","","","clear_screen","null","null","","","catch","sh","sw","l","196","217","166","232","281","222","spektor","null","null","null","null","null","null","null","null","null","null","null","","180","200","260","200","36000","52000","[2,3]","491.7818995553782","106.0990525658355","479.44627391617104"
"","canvas-keyboard-response","172","263139","0.0-6.0-5.23","529","","","","","make choice","26","3","","","catch","sh","sw","l","196","217","166","232","281","222","spektor","null","null","null","null","null","null","null","null","null","null","null","","180","200","260","200","36000","52000","[2,3]","","",""
"","canvas-keyboard-response","173","263157","0.0-6.0-6.23","529","","","","","clear_screen","null","null","","","catch","sh","sw","l","196","217","166","232","281","222","spektor","null","null","null","null","null","null","null","null","null","null","null","","180","200","260","200","36000","52000","[2,3]","","",""
"","canvas-keyboard-response","174","263357","0.0-6.0-0.24","529","","","","","pre trial waiting period","null","null","","","critical","t","c","d","240","164","164","240","237.1485","162.6685","trueblood","0.02","w","240","164","164","240","237.1485","162.6685","39360","39360","38576.5967","tc","null","null","null","null","null","null","[1,2]","513.9651954318991","421.94402488266036","473.5889470800633"
"","canvas-keyboard-response","175","263379","0.0-6.0-1.24","529","","","","","clear_screen","null","null","","","critical","t","c","d","240","164","164","240","237.1485","162.6685","trueblood","0.02","w","240","164","164","240","237.1485","162.6685","39360","39360","38576.5967","tc","null","null","null","null","null","null","[1,2]","513.9651954318991","421.94402488266036","473.5889470800633"
"","canvas-keyboard-response","176","263892","0.0-6.0-2.24","529","","","","","rectangles no change","null","null","","","critical","t","c","d","240","164","164","240","237.1485","162.6685","trueblood","0.02","w","240","164","164","240","237.1485","162.6685","39360","39360","38576.5967","tc","null","null","null","null","null","null","[1,2]","513.9651954318991","421.94402488266036","473.5889470800633"
"","canvas-keyboard-response","177","265226","0.0-6.0-3.24","529","","","","","rectangles with change","null","null","","","critical","t","c","d","240","164","164","240","237.1485","162.6685","trueblood","0.02","w","240","164","164","240","237.1485","162.6685","39360","39360","38576.5967","tc","null","null","null","null","null","null","[1,2]","513.9651954318991","421.94402488266036","473.5889470800633"
"","canvas-keyboard-response","178","265244","0.0-6.0-4.24","529","","","","","clear_screen","null","null","","","critical","t","c","d","240","164","164","240","237.1485","162.6685","trueblood","0.02","w","240","164","164","240","237.1485","162.6685","39360","39360","38576.5967","tc","null","null","null","null","null","null","[1,2]","513.9651954318991","421.94402488266036","473.5889470800633"
"","canvas-keyboard-response","179","265854","0.0-6.0-5.24","529","","","","","make choice","602","1","","","critical","t","c","d","240","164","164","240","237.1485","162.6685","trueblood","0.02","w","240","164","164","240","237.1485","162.6685","39360","39360","38576.5967","tc","null","null","null","null","null","null","[1,2]","","",""
"","canvas-keyboard-response","180","265869","0.0-6.0-6.24","529","","","","","clear_screen","null","null","","","critical","t","c","d","240","164","164","240","237.1485","162.6685","trueblood","0.02","w","240","164","164","240","237.1485","162.6685","39360","39360","38576.5967","tc","null","null","null","null","null","null","[1,2]","","",""
"","canvas-keyboard-response","181","266070","0.0-6.0-0.25","529","","","","","pre trial waiting period","null","null","","","catch","sw","sh","l","180","200","223","174","257","188","trueblood","null","null","null","null","null","null","null","null","null","null","null","","180","200","260","200","36000","52000","[1,3]","482.7837175837103","499.26985471125283","480.5749298892673"
"","canvas-keyboard-response","182","266091","0.0-6.0-1.25","529","","","","","clear_screen","null","null","","","catch","sw","sh","l","180","200","223","174","257","188","trueblood","null","null","null","null","null","null","null","null","null","null","null","","180","200","260","200","36000","52000","[1,3]","482.7837175837103","499.26985471125283","480.5749298892673"
"","canvas-keyboard-response","183","266598","0.0-6.0-2.25","529","","","","","rectangles no change","null","null","","","catch","sw","sh","l","180","200","223","174","257","188","trueblood","null","null","null","null","null","null","null","null","null","null","null","","180","200","260","200","36000","52000","[1,3]","482.7837175837103","499.26985471125283","480.5749298892673"
"","canvas-keyboard-response","184","267933","0.0-6.0-3.25","529","","","","","rectangles with change","null","null","","","catch","sw","sh","l","180","200","223","174","257","188","trueblood","null","null","null","null","null","null","null","null","null","null","null","","180","200","260","200","36000","52000","[1,3]","482.7837175837103","499.26985471125283","480.5749298892673"
"","canvas-keyboard-response","185","267950","0.0-6.0-4.25","529","","","","","clear_screen","null","null","","","catch","sw","sh","l","180","200","223","174","257","188","trueblood","null","null","null","null","null","null","null","null","null","null","null","","180","200","260","200","36000","52000","[1,3]","482.7837175837103","499.26985471125283","480.5749298892673"
"","canvas-keyboard-response","186","268589","0.0-6.0-5.25","529","","","","","make choice","634","3","","","catch","sw","sh","l","180","200","223","174","257","188","trueblood","null","null","null","null","null","null","null","null","null","null","null","","180","200","260","200","36000","52000","[1,3]","","",""
"","canvas-keyboard-response","187","268607","0.0-6.0-6.25","529","","","","","clear_screen","null","null","","","catch","sw","sh","l","180","200","223","174","257","188","trueblood","null","null","null","null","null","null","null","null","null","null","null","","180","200","260","200","36000","52000","[1,3]","","",""
"","canvas-keyboard-response","188","268807","0.0-6.0-0.26","529","","","","","pre trial waiting period","null","null","","","catch","l","sw","sh","252","172","191","223","209","164","spektor","null","null","null","null","null","null","null","null","null","null","null","","180","200","260","200","36000","52000","[1,2]","532.9200986693376","144.19204030967762","537.2887030973109"
"","canvas-keyboard-response","189","268826","0.0-6.0-1.26","529","","","","","clear_screen","null","null","","","catch","l","sw","sh","252","172","191","223","209","164","spektor","null","null","null","null","null","null","null","null","null","null","null","","180","200","260","200","36000","52000","[1,2]","532.9200986693376","144.19204030967762","537.2887030973109"
"","canvas-keyboard-response","190","269337","0.0-6.0-2.26","529","","","","","rectangles no change","null","null","","","catch","l","sw","sh","252","172","191","223","209","164","spektor","null","null","null","null","null","null","null","null","null","null","null","","180","200","260","200","36000","52000","[1,2]","532.9200986693376","144.19204030967762","537.2887030973109"
"","canvas-keyboard-response","191","270676","0.0-6.0-3.26","529","","","","","rectangles with change","null","null","","","catch","l","sw","sh","252","172","191","223","209","164","spektor","null","null","null","null","null","null","null","null","null","null","null","","180","200","260","200","36000","52000","[1,2]","532.9200986693376","144.19204030967762","537.2887030973109"
"","canvas-keyboard-response","192","270692","0.0-6.0-4.26","529","","","","","clear_screen","null","null","","","catch","l","sw","sh","252","172","191","223","209","164","spektor","null","null","null","null","null","null","null","null","null","null","null","","180","200","260","200","36000","52000","[1,2]","532.9200986693376","144.19204030967762","537.2887030973109"
"","canvas-keyboard-response","193","271237","0.0-6.0-5.26","529","","","","","make choice","536","1","","","catch","l","sw","sh","252","172","191","223","209","164","spektor","null","null","null","null","null","null","null","null","null","null","null","","180","200","260","200","36000","52000","[1,2]","","",""
"","canvas-keyboard-response","194","271258","0.0-6.0-6.26","529","","","","","clear_screen","null","null","","","catch","l","sw","sh","252","172","191","223","209","164","spektor","null","null","null","null","null","null","null","null","null","null","null","","180","200","260","200","36000","52000","[1,2]","","",""
"","canvas-keyboard-response","195","271458","0.0-6.0-0.27","529","","","","","pre trial waiting period","null","null","","","critical","t","c","d","240","164","164","240","220.0396","154.6796","spektor","0.14","w","240","164","164","240","220.0396","154.6796","39360","39360","34035.6388","tc","null","null","null","null","null","null","[1,2]","538.9266840552034","157.10118478293538","507.2843175973941"
"","canvas-keyboard-response","196","271479","0.0-6.0-1.27","529","","","","","clear_screen","null","null","","","critical","t","c","d","240","164","164","240","220.0396","154.6796","spektor","0.14","w","240","164","164","240","220.0396","154.6796","39360","39360","34035.6388","tc","null","null","null","null","null","null","[1,2]","538.9266840552034","157.10118478293538","507.2843175973941"
"","canvas-keyboard-response","197","271989","0.0-6.0-2.27","529","","","","","rectangles no change","null","null","","","critical","t","c","d","240","164","164","240","220.0396","154.6796","spektor","0.14","w","240","164","164","240","220.0396","154.6796","39360","39360","34035.6388","tc","null","null","null","null","null","null","[1,2]","538.9266840552034","157.10118478293538","507.2843175973941"
"","canvas-keyboard-response","198","273324","0.0-6.0-3.27","529","","","","","rectangles with change","null","null","","","critical","t","c","d","240","164","164","240","220.0396","154.6796","spektor","0.14","w","240","164","164","240","220.0396","154.6796","39360","39360","34035.6388","tc","null","null","null","null","null","null","[1,2]","538.9266840552034","157.10118478293538","507.2843175973941"
"","canvas-keyboard-response","199","273346","0.0-6.0-4.27","529","","","","","clear_screen","null","null","","","critical","t","c","d","240","164","164","240","220.0396","154.6796","spektor","0.14","w","240","164","164","240","220.0396","154.6796","39360","39360","34035.6388","tc","null","null","null","null","null","null","[1,2]","538.9266840552034","157.10118478293538","507.2843175973941"
"","canvas-keyboard-response","200","273979","0.0-6.0-5.27","529","","","","","make choice","624","1","","","critical","t","c","d","240","164","164","240","220.0396","154.6796","spektor","0.14","w","240","164","164","240","220.0396","154.6796","39360","39360","34035.6388","tc","null","null","null","null","null","null","[1,2]","","",""
"","canvas-keyboard-response","201","273999","0.0-6.0-6.27","529","","","","","clear_screen","null","null","","","critical","t","c","d","240","164","164","240","220.0396","154.6796","spektor","0.14","w","240","164","164","240","220.0396","154.6796","39360","39360","34035.6388","tc","null","null","null","null","null","null","[1,2]","","",""
"","canvas-keyboard-response","202","274202","0.0-6.0-0.28","529","","","","","pre trial waiting period","null","null","","","critical","c","d","t","164","240","240","164","240","164","spektor","0","w","240","164","164","240","240","164","39360","39360","39360","tc","null","null","null","null","null","null","[3,1]","499.8321069300403","209.54481368002672","521.6266724223727"
"","canvas-keyboard-response","203","274221","0.0-6.0-1.28","529","","","","","clear_screen","null","null","","","critical","c","d","t","164","240","240","164","240","164","spektor","0","w","240","164","164","240","240","164","39360","39360","39360","tc","null","null","null","null","null","null","[3,1]","499.8321069300403","209.54481368002672","521.6266724223727"
"","canvas-keyboard-response","204","274727","0.0-6.0-2.28","529","","","","","rectangles no change","null","null","","","critical","c","d","t","164","240","240","164","240","164","spektor","0","w","240","164","164","240","240","164","39360","39360","39360","tc","null","null","null","null","null","null","[3,1]","499.8321069300403","209.54481368002672","521.6266724223727"
"","canvas-keyboard-response","205","276064","0.0-6.0-3.28","529","","","","","rectangles with change","null","null","","","critical","c","d","t","164","240","240","164","240","164","spektor","0","w","240","164","164","240","240","164","39360","39360","39360","tc","null","null","null","null","null","null","[3,1]","499.8321069300403","209.54481368002672","521.6266724223727"
"","canvas-keyboard-response","206","276083","0.0-6.0-4.28","529","","","","","clear_screen","null","null","","","critical","c","d","t","164","240","240","164","240","164","spektor","0","w","240","164","164","240","240","164","39360","39360","39360","tc","null","null","null","null","null","null","[3,1]","499.8321069300403","209.54481368002672","521.6266724223727"
"","canvas-keyboard-response","207","277061","0.0-6.0-5.28","529","","","","","make choice","972","1","","","critical","c","d","t","164","240","240","164","240","164","spektor","0","w","240","164","164","240","240","164","39360","39360","39360","tc","null","null","null","null","null","null","[3,1]","","",""
"","canvas-keyboard-response","208","277078","0.0-6.0-6.28","529","","","","","clear_screen","null","null","","","critical","c","d","t","164","240","240","164","240","164","spektor","0","w","240","164","164","240","240","164","39360","39360","39360","tc","null","null","null","null","null","null","[3,1]","","",""
"","canvas-keyboard-response","209","277281","0.0-6.0-0.29","529","","","","","pre trial waiting period","null","null","","","critical","c","d","t","164","240","232.8713","160.6713","240","164","trueblood","0.05","w","240","164","164","240","232.8713","160.6713","39360","39360","37415.7294","dc","null","null","null","null","null","null","[2,1]","420.590921741786","496.33124275045265","494.70233198156427"
"","canvas-keyboard-response","210","277300","0.0-6.0-1.29","529","","","","","clear_screen","null","null","","","critical","c","d","t","164","240","232.8713","160.6713","240","164","trueblood","0.05","w","240","164","164","240","232.8713","160.6713","39360","39360","37415.7294","dc","null","null","null","null","null","null","[2,1]","420.590921741786","496.33124275045265","494.70233198156427"
"","canvas-keyboard-response","211","277807","0.0-6.0-2.29","529","","","","","rectangles no change","null","null","","","critical","c","d","t","164","240","232.8713","160.6713","240","164","trueblood","0.05","w","240","164","164","240","232.8713","160.6713","39360","39360","37415.7294","dc","null","null","null","null","null","null","[2,1]","420.590921741786","496.33124275045265","494.70233198156427"
"","canvas-keyboard-response","212","279146","0.0-6.0-3.29","529","","","","","rectangles with change","null","null","","","critical","c","d","t","164","240","232.8713","160.6713","240","164","trueblood","0.05","w","240","164","164","240","232.8713","160.6713","39360","39360","37415.7294","dc","null","null","null","null","null","null","[2,1]","420.590921741786","496.33124275045265","494.70233198156427"
"","canvas-keyboard-response","213","279165","0.0-6.0-4.29","529","","","","","clear_screen","null","null","","","critical","c","d","t","164","240","232.8713","160.6713","240","164","trueblood","0.05","w","240","164","164","240","232.8713","160.6713","39360","39360","37415.7294","dc","null","null","null","null","null","null","[2,1]","420.590921741786","496.33124275045265","494.70233198156427"
"","canvas-keyboard-response","214","280061","0.0-6.0-5.29","529","","","","","make choice","889","2","","","critical","c","d","t","164","240","232.8713","160.6713","240","164","trueblood","0.05","w","240","164","164","240","232.8713","160.6713","39360","39360","37415.7294","dc","null","null","null","null","null","null","[2,1]","","",""
"","canvas-keyboard-response","215","280079","0.0-6.0-6.29","529","","","","","clear_screen","null","null","","","critical","c","d","t","164","240","232.8713","160.6713","240","164","trueblood","0.05","w","240","164","164","240","232.8713","160.6713","39360","39360","37415.7294","dc","null","null","null","null","null","null","[2,1]","","",""
"","canvas-keyboard-response","216","280280","0.0-6.0-0.30","529","","","","","pre trial waiting period","null","null","","","catch","l","sh","sw","287","175","235","179","201","172","trueblood","null","null","null","null","null","null","null","null","null","null","null","","180","200","260","200","36000","52000","[1,2]","470.15725624008684","462.3607112637907","510.76185009568644"
"","canvas-keyboard-response","217","280300","0.0-6.0-1.30","529","","","","","clear_screen","null","null","","","catch","l","sh","sw","287","175","235","179","201","172","trueblood","null","null","null","null","null","null","null","null","null","null","null","","180","200","260","200","36000","52000","[1,2]","470.15725624008684","462.3607112637907","510.76185009568644"
"","canvas-keyboard-response","218","280807","0.0-6.0-2.30","529","","","","","rectangles no change","null","null","","","catch","l","sh","sw","287","175","235","179","201","172","trueblood","null","null","null","null","null","null","null","null","null","null","null","","180","200","260","200","36000","52000","[1,2]","470.15725624008684","462.3607112637907","510.76185009568644"
"","canvas-keyboard-response","219","282144","0.0-6.0-3.30","529","","","","","rectangles with change","null","null","","","catch","l","sh","sw","287","175","235","179","201","172","trueblood","null","null","null","null","null","null","null","null","null","null","null","","180","200","260","200","36000","52000","[1,2]","470.15725624008684","462.3607112637907","510.76185009568644"
"","canvas-keyboard-response","220","282165","0.0-6.0-4.30","529","","","","","clear_screen","null","null","","","catch","l","sh","sw","287","175","235","179","201","172","trueblood","null","null","null","null","null","null","null","null","null","null","null","","180","200","260","200","36000","52000","[1,2]","470.15725624008684","462.3607112637907","510.76185009568644"
"","canvas-keyboard-response","221","283253","0.0-6.0-5.30","529","","","","","make choice","1081","1","","","catch","l","sh","sw","287","175","235","179","201","172","trueblood","null","null","null","null","null","null","null","null","null","null","null","","180","200","260","200","36000","52000","[1,2]","","",""
"","canvas-keyboard-response","222","283271","0.0-6.0-6.30","529","","","","","clear_screen","null","null","","","catch","l","sh","sw","287","175","235","179","201","172","trueblood","null","null","null","null","null","null","null","null","null","null","null","","180","200","260","200","36000","52000","[1,2]","","",""
"","canvas-keyboard-response","223","283472","0.0-6.0-0.31","529","","","","","pre trial waiting period","null","null","","","critical","t","c","d","164","240","240","164","154.6796","220.0396","trueblood","0.14","h","164","240","240","164","154.6796","220.0396","39360","39360","34035.6388","tc","null","null","null","null","null","null","[1,2]","458.2027912847887","509.6057609511514","440.57560571777293"
"","canvas-keyboard-response","224","283492","0.0-6.0-1.31","529","","","","","clear_screen","null","null","","","critical","t","c","d","164","240","240","164","154.6796","220.0396","trueblood","0.14","h","164","240","240","164","154.6796","220.0396","39360","39360","34035.6388","tc","null","null","null","null","null","null","[1,2]","458.2027912847887","509.6057609511514","440.57560571777293"
"","canvas-keyboard-response","225","284000","0.0-6.0-2.31","529","","","","","rectangles no change","null","null","","","critical","t","c","d","164","240","240","164","154.6796","220.0396","trueblood","0.14","h","164","240","240","164","154.6796","220.0396","39360","39360","34035.6388","tc","null","null","null","null","null","null","[1,2]","458.2027912847887","509.6057609511514","440.57560571777293"
"","canvas-keyboard-response","226","285332","0.0-6.0-3.31","529","","","","","rectangles with change","null","null","","","critical","t","c","d","164","240","240","164","154.6796","220.0396","trueblood","0.14","h","164","240","240","164","154.6796","220.0396","39360","39360","34035.6388","tc","null","null","null","null","null","null","[1,2]","458.2027912847887","509.6057609511514","440.57560571777293"
"","canvas-keyboard-response","227","285352","0.0-6.0-4.31","529","","","","","clear_screen","null","null","","","critical","t","c","d","164","240","240","164","154.6796","220.0396","trueblood","0.14","h","164","240","240","164","154.6796","220.0396","39360","39360","34035.6388","tc","null","null","null","null","null","null","[1,2]","458.2027912847887","509.6057609511514","440.57560571777293"
"","canvas-keyboard-response","228","285371","0.0-6.0-5.31","529","","","","","make choice","12","2","","","critical","t","c","d","164","240","240","164","154.6796","220.0396","trueblood","0.14","h","164","240","240","164","154.6796","220.0396","39360","39360","34035.6388","tc","null","null","null","null","null","null","[1,2]","","",""
"","canvas-keyboard-response","229","285388","0.0-6.0-6.31","529","","","","","clear_screen","null","null","","","critical","t","c","d","164","240","240","164","154.6796","220.0396","trueblood","0.14","h","164","240","240","164","154.6796","220.0396","39360","39360","34035.6388","tc","null","null","null","null","null","null","[1,2]","","",""
"","canvas-keyboard-response","230","285588","0.0-6.0-0.32","529","","","","","pre trial waiting period","null","null","","","catch","l","sh","sw","212","220","198","182","179","184","trueblood","null","null","null","null","null","null","null","null","null","null","null","","180","200","260","200","36000","52000","[1,3]","451.1803091091918","494.0713208201267","463.80752900603164"
"","canvas-keyboard-response","231","285612","0.0-6.0-1.32","529","","","","","clear_screen","null","null","","","catch","l","sh","sw","212","220","198","182","179","184","trueblood","null","null","null","null","null","null","null","null","null","null","null","","180","200","260","200","36000","52000","[1,3]","451.1803091091918","494.0713208201267","463.80752900603164"
"","canvas-keyboard-response","232","286118","0.0-6.0-2.32","529","","","","","rectangles no change","null","null","","","catch","l","sh","sw","212","220","198","182","179","184","trueblood","null","null","null","null","null","null","null","null","null","null","null","","180","200","260","200","36000","52000","[1,3]","451.1803091091918","494.0713208201267","463.80752900603164"
"","canvas-keyboard-response","233","287458","0.0-6.0-3.32","529","","","","","rectangles with change","null","null","","","catch","l","sh","sw","212","220","198","182","179","184","trueblood","null","null","null","null","null","null","null","null","null","null","null","","180","200","260","200","36000","52000","[1,3]","451.1803091091918","494.0713208201267","463.80752900603164"
"","canvas-keyboard-response","234","287478","0.0-6.0-4.32","529","","","","","clear_screen","null","null","","","catch","l","sh","sw","212","220","198","182","179","184","trueblood","null","null","null","null","null","null","null","null","null","null","null","","180","200","260","200","36000","52000","[1,3]","451.1803091091918","494.0713208201267","463.80752900603164"
"","canvas-keyboard-response","235","288027","0.0-6.0-5.32","529","","","","","make choice","543","1","","","catch","l","sh","sw","212","220","198","182","179","184","trueblood","null","null","null","null","null","null","null","null","null","null","null","","180","200","260","200","36000","52000","[1,3]","","",""
"","canvas-keyboard-response","236","288042","0.0-6.0-6.32","529","","","","","clear_screen","null","null","","","catch","l","sh","sw","212","220","198","182","179","184","trueblood","null","null","null","null","null","null","null","null","null","null","null","","180","200","260","200","36000","52000","[1,3]","","",""
"","canvas-keyboard-response","237","288243","0.0-6.0-0.33","529","","","","","pre trial waiting period","null","null","","","critical","t","d","c","164","240","164","240","240","164","spektor","0","h","164","240","240","164","164","240","39360","39360","39360","dc","null","null","null","null","null","null","[2,3]","501.7250512965074","118.58130898018322","495.357697127887"
"","canvas-keyboard-response","238","288262","0.0-6.0-1.33","529","","","","","clear_screen","null","null","","","critical","t","d","c","164","240","164","240","240","164","spektor","0","h","164","240","240","164","164","240","39360","39360","39360","dc","null","null","null","null","null","null","[2,3]","501.7250512965074","118.58130898018322","495.357697127887"
"","canvas-keyboard-response","239","288771","0.0-6.0-2.33","529","","","","","rectangles no change","null","null","","","critical","t","d","c","164","240","164","240","240","164","spektor","0","h","164","240","240","164","164","240","39360","39360","39360","dc","null","null","null","null","null","null","[2,3]","501.7250512965074","118.58130898018322","495.357697127887"
"","canvas-keyboard-response","240","290110","0.0-6.0-3.33","529","","","","","rectangles with change","null","null","","","critical","t","d","c","164","240","164","240","240","164","spektor","0","h","164","240","240","164","164","240","39360","39360","39360","dc","null","null","null","null","null","null","[2,3]","501.7250512965074","118.58130898018322","495.357697127887"
"","canvas-keyboard-response","241","290130","0.0-6.0-4.33","529","","","","","clear_screen","null","null","","","critical","t","d","c","164","240","164","240","240","164","spektor","0","h","164","240","240","164","164","240","39360","39360","39360","dc","null","null","null","null","null","null","[2,3]","501.7250512965074","118.58130898018322","495.357697127887"
"","canvas-keyboard-response","242","290293","0.0-6.0-5.33","529","","","","","make choice","158","3","","","critical","t","d","c","164","240","164","240","240","164","spektor","0","h","164","240","240","164","164","240","39360","39360","39360","dc","null","null","null","null","null","null","[2,3]","","",""
"","canvas-keyboard-response","243","290310","0.0-6.0-6.33","529","","","","","clear_screen","null","null","","","critical","t","d","c","164","240","164","240","240","164","spektor","0","h","164","240","240","164","164","240","39360","39360","39360","dc","null","null","null","null","null","null","[2,3]","","",""
"","canvas-keyboard-response","244","290511","0.0-6.0-0.34","529","","","","","pre trial waiting period","null","null","","","catch","l","sh","sw","181","223","223","219","195","203","spektor","null","null","null","null","null","null","null","null","null","null","null","","180","200","260","200","36000","52000","[1,2]","513.3788100084796","144.6528463852955","483.96434795783745"
"","canvas-keyboard-response","245","290530","0.0-6.0-1.34","529","","","","","clear_screen","null","null","","","catch","l","sh","sw","181","223","223","219","195","203","spektor","null","null","null","null","null","null","null","null","null","null","null","","180","200","260","200","36000","52000","[1,2]","513.3788100084796","144.6528463852955","483.96434795783745"
"","canvas-keyboard-response","246","291036","0.0-6.0-2.34","529","","","","","rectangles no change","null","null","","","catch","l","sh","sw","181","223","223","219","195","203","spektor","null","null","null","null","null","null","null","null","null","null","null","","180","200","260","200","36000","52000","[1,2]","513.3788100084796","144.6528463852955","483.96434795783745"
"","canvas-keyboard-response","247","292367","0.0-6.0-3.34","529","","","","","rectangles with change","null","null","","","catch","l","sh","sw","181","223","223","219","195","203","spektor","null","null","null","null","null","null","null","null","null","null","null","","180","200","260","200","36000","52000","[1,2]","513.3788100084796","144.6528463852955","483.96434795783745"
"","canvas-keyboard-response","248","292387","0.0-6.0-4.34","529","","","","","clear_screen","null","null","","","catch","l","sh","sw","181","223","223","219","195","203","spektor","null","null","null","null","null","null","null","null","null","null","null","","180","200","260","200","36000","52000","[1,2]","513.3788100084796","144.6528463852955","483.96434795783745"
"","canvas-keyboard-response","249","293075","0.0-6.0-5.34","529","","","","","make choice","680","2","","","catch","l","sh","sw","181","223","223","219","195","203","spektor","null","null","null","null","null","null","null","null","null","null","null","","180","200","260","200","36000","52000","[1,2]","","",""
"","canvas-keyboard-response","250","293092","0.0-6.0-6.34","529","","","","","clear_screen","null","null","","","catch","l","sh","sw","181","223","223","219","195","203","spektor","null","null","null","null","null","null","null","null","null","null","null","","180","200","260","200","36000","52000","[1,2]","","",""
"","canvas-keyboard-response","251","293293","0.0-6.0-0.35","529","","","","","pre trial waiting period","null","null","","","catch","l","sw","sh","208","299","160","237","194","190","spektor","null","null","null","null","null","null","null","null","null","null","null","","180","200","260","200","36000","52000","[1,2]","434.4609050288568","114.17649756789413","500.92675087372345"
"","canvas-keyboard-response","252","293313","0.0-6.0-1.35","529","","","","","clear_screen","null","null","","","catch","l","sw","sh","208","299","160","237","194","190","spektor","null","null","null","null","null","null","null","null","null","null","null","","180","200","260","200","36000","52000","[1,2]","434.4609050288568","114.17649756789413","500.92675087372345"
"","canvas-keyboard-response","253","293818","0.0-6.0-2.35","529","","","","","rectangles no change","null","null","","","catch","l","sw","sh","208","299","160","237","194","190","spektor","null","null","null","null","null","null","null","null","null","null","null","","180","200","260","200","36000","52000","[1,2]","434.4609050288568","114.17649756789413","500.92675087372345"
"","canvas-keyboard-response","254","295158","0.0-6.0-3.35","529","","","","","rectangles with change","null","null","","","catch","l","sw","sh","208","299","160","237","194","190","spektor","null","null","null","null","null","null","null","null","null","null","null","","180","200","260","200","36000","52000","[1,2]","434.4609050288568","114.17649756789413","500.92675087372345"
"","canvas-keyboard-response","255","295177","0.0-6.0-4.35","529","","","","","clear_screen","null","null","","","catch","l","sw","sh","208","299","160","237","194","190","spektor","null","null","null","null","null","null","null","null","null","null","null","","180","200","260","200","36000","52000","[1,2]","434.4609050288568","114.17649756789413","500.92675087372345"
"","canvas-keyboard-response","256","295837","0.0-6.0-5.35","529","","","","","make choice","654","1","","","catch","l","sw","sh","208","299","160","237","194","190","spektor","null","null","null","null","null","null","null","null","null","null","null","","180","200","260","200","36000","52000","[1,2]","","",""
"","canvas-keyboard-response","257","295854","0.0-6.0-6.35","529","","","","","clear_screen","null","null","","","catch","l","sw","sh","208","299","160","237","194","190","spektor","null","null","null","null","null","null","null","null","null","null","null","","180","200","260","200","36000","52000","[1,2]","","",""
"","canvas-keyboard-response","258","296056","0.0-6.0-0.36","529","","","","","pre trial waiting period","null","null","","","critical","t","c","d","240","164","164","240","237.1485","162.6685","spektor","0.02","w","240","164","164","240","237.1485","162.6685","39360","39360","38576.5967","tc","null","null","null","null","null","null","[1,2]","507.68581185429946","152.2701898053351","518.4755147286172"
"","canvas-keyboard-response","259","296079","0.0-6.0-1.36","529","","","","","clear_screen","null","null","","","critical","t","c","d","240","164","164","240","237.1485","162.6685","spektor","0.02","w","240","164","164","240","237.1485","162.6685","39360","39360","38576.5967","tc","null","null","null","null","null","null","[1,2]","507.68581185429946","152.2701898053351","518.4755147286172"
"","canvas-keyboard-response","260","296583","0.0-6.0-2.36","529","","","","","rectangles no change","null","null","","","critical","t","c","d","240","164","164","240","237.1485","162.6685","spektor","0.02","w","240","164","164","240","237.1485","162.6685","39360","39360","38576.5967","tc","null","null","null","null","null","null","[1,2]","507.68581185429946","152.2701898053351","518.4755147286172"
"","canvas-keyboard-response","261","297918","0.0-6.0-3.36","529","","","","","rectangles with change","null","null","","","critical","t","c","d","240","164","164","240","237.1485","162.6685","spektor","0.02","w","240","164","164","240","237.1485","162.6685","39360","39360","38576.5967","tc","null","null","null","null","null","null","[1,2]","507.68581185429946","152.2701898053351","518.4755147286172"
"","canvas-keyboard-response","262","297939","0.0-6.0-4.36","529","","","","","clear_screen","null","null","","","critical","t","c","d","240","164","164","240","237.1485","162.6685","spektor","0.02","w","240","164","164","240","237.1485","162.6685","39360","39360","38576.5967","tc","null","null","null","null","null","null","[1,2]","507.68581185429946","152.2701898053351","518.4755147286172"
"","canvas-keyboard-response","263","299115","0.0-6.0-5.36","529","","","","","make choice","1171","2","","","critical","t","c","d","240","164","164","240","237.1485","162.6685","spektor","0.02","w","240","164","164","240","237.1485","162.6685","39360","39360","38576.5967","tc","null","null","null","null","null","null","[1,2]","","",""
"","canvas-keyboard-response","264","299130","0.0-6.0-6.36","529","","","","","clear_screen","null","null","","","critical","t","c","d","240","164","164","240","237.1485","162.6685","spektor","0.02","w","240","164","164","240","237.1485","162.6685","39360","39360","38576.5967","tc","null","null","null","null","null","null","[1,2]","","",""
"","canvas-keyboard-response","265","299331","0.0-6.0-0.37","529","","","","","pre trial waiting period","null","null","","","critical","c","d","t","240","164","162.6685","237.1485","164","240","spektor","0.02","h","164","240","240","164","162.6685","237.1485","39360","39360","38576.5967","td","null","null","null","null","null","null","[3,2]","504.6376501471105","142.44310268840528","493.47833969348886"
"","canvas-keyboard-response","266","299349","0.0-6.0-1.37","529","","","","","clear_screen","null","null","","","critical","c","d","t","240","164","162.6685","237.1485","164","240","spektor","0.02","h","164","240","240","164","162.6685","237.1485","39360","39360","38576.5967","td","null","null","null","null","null","null","[3,2]","504.6376501471105","142.44310268840528","493.47833969348886"
"","canvas-keyboard-response","267","299858","0.0-6.0-2.37","529","","","","","rectangles no change","null","null","","","critical","c","d","t","240","164","162.6685","237.1485","164","240","spektor","0.02","h","164","240","240","164","162.6685","237.1485","39360","39360","38576.5967","td","null","null","null","null","null","null","[3,2]","504.6376501471105","142.44310268840528","493.47833969348886"
