"success","trial_type","trial_index","time_elapsed","internal_node_id","sub_n","timeout","failed_images","failed_audio","failed_video","screen_id","rt","response","stimulus","view_history","trial","r1","r2","r3","w1","h1","w2","h2","w3","h3","display","tdd","tdo","tw","th","cw","ch","dw","dh","ta","ca","da","probe","csls","csss","clls","clss","sa","la","probe_rects","r1yloc","r2yloc","r3yloc"
"true","fullscreen","0","1979","0.0-0.0","572","","","","","","","","","","","","","","","","","","","","","","","","","","","","","","","","","","","","","","","","","",""
"true","preload","1","1995","0.0-1.0","572","false","[]","[]","[]","img preload","","","","","","","","","","","","","","","","","","","","","","","","","","","","","","","","","","","","",""
"","survey-html-form","2","5783","0.0-2.0","572","","","","","enter-sub-number","3778","{""response"":""572""}","","","","","","","","","","","","","","","","","","","","","","","","","","","","","","","","","","",""
"","image-button-response","3","26291","0.0-3.0","572","","","","","","20441","0","consent.png","","","","","","","","","","","","","","","","","","","","","","","","","","","","","","","","","",""
"","html-button-response","4","46635","0.0-4.0","572","","","","","intro mssg","20341","0","<div style= ""font-size:25px;"" <p> <strong> Welcome! </strong><br> <p style=""color:#8B0000; font-size:25px;""><strong> Please do NOT exit full screen until you are done with the experiment. </strong> </p><p style=""font-size:25px;color:#8B0000;""> <strong> Your data will be lost <br> if you try to go back or refresh the page after the experiment starts. Feel free to click ""previous"" during the instructions, however.</strong> </p><br><p> <strong> Thanks in advance for your contribution to our research! </strong></p>","","","","","","","","","","","","","","","","","","","","","","","","","","","","","","","","","",""
"","instructions","5","67418","0.0-5.0","572","","","","","instructions","20781","","","[{""page_index"":0,""viewing_time"":3587},{""page_index"":1,""viewing_time"":5680},{""page_index"":2,""viewing_time"":2329},{""page_index"":3,""viewing_time"":1600},{""page_index"":4,""viewing_time"":2264},{""page_index"":5,""viewing_time"":2608},{""page_index"":6,""viewing_time"":1800},{""page_index"":7,""viewing_time"":913}]","","","","","","","","","","","","","","","","","","","","","","","","","","","","","","","","",""
"","canvas-keyboard-response","6","67624","0.0-6.0-0.0","572","","","","","pre trial waiting period","null","null","","","critical","c","d","t","240","164","154.6796","220.0396","164","240","spektor","0.14","h","164","240","240","164","154.6796","220.0396","39360","39360","34035.6388","td","null","null","null","null","null","null","[3,2]","510.6452050795016","112.38554882212645","456.91119939154134"
"","canvas-keyboard-response","7","67650","0.0-6.0-1.0","572","","","","","clear_screen","null","null","","","critical","c","d","t","240","164","154.6796","220.0396","164","240","spektor","0.14","h","164","240","240","164","154.6796","220.0396","39360","39360","34035.6388","td","null","null","null","null","null","null","[3,2]","510.6452050795016","112.38554882212645","456.91119939154134"
"","canvas-keyboard-response","8","68185","0.0-6.0-2.0","572","","","","","rectangles no change","null","null","","","critical","c","d","t","240","164","154.6796","220.0396","164","240","spektor","0.14","h","164","240","240","164","154.6796","220.0396","39360","39360","34035.6388","td","null","null","null","null","null","null","[3,2]","510.6452050795016","112.38554882212645","456.91119939154134"
"","canvas-keyboard-response","9","69522","0.0-6.0-3.0","572","","","","","rectangles with change","null","null","","","critical","c","d","t","240","164","154.6796","220.0396","164","240","spektor","0.14","h","164","240","240","164","154.6796","220.0396","39360","39360","34035.6388","td","null","null","null","null","null","null","[3,2]","510.6452050795016","112.38554882212645","456.91119939154134"
"","canvas-keyboard-response","10","69537","0.0-6.0-4.0","572","","","","","clear_screen","null","null","","","critical","c","d","t","240","164","154.6796","220.0396","164","240","spektor","0.14","h","164","240","240","164","154.6796","220.0396","39360","39360","34035.6388","td","null","null","null","null","null","null","[3,2]","510.6452050795016","112.38554882212645","456.91119939154134"
"","canvas-keyboard-response","11","73939","0.0-6.0-5.0","572","","","","","make choice","4395","3","","","critical","c","d","t","240","164","154.6796","220.0396","164","240","spektor","0.14","h","164","240","240","164","154.6796","220.0396","39360","39360","34035.6388","td","null","null","null","null","null","null","[3,2]","","",""
"","canvas-keyboard-response","12","73959","0.0-6.0-6.0","572","","","","","clear_screen","null","null","","","critical","c","d","t","240","164","154.6796","220.0396","164","240","spektor","0.14","h","164","240","240","164","154.6796","220.0396","39360","39360","34035.6388","td","null","null","null","null","null","null","[3,2]","","",""
"","canvas-keyboard-response","13","74161","0.0-6.0-0.1","572","","","","","pre trial waiting period","null","null","","","critical","c","t","d","164","240","240","164","232.8713","160.6713","trueblood","0.05","w","240","164","164","240","232.8713","160.6713","39360","39360","37415.7294","tc","null","null","null","null","null","null","[2,1]","457.7019542425935","473.6683971057137","479.87742317241816"
"","canvas-keyboard-response","14","74181","0.0-6.0-1.1","572","","","","","clear_screen","null","null","","","critical","c","t","d","164","240","240","164","232.8713","160.6713","trueblood","0.05","w","240","164","164","240","232.8713","160.6713","39360","39360","37415.7294","tc","null","null","null","null","null","null","[2,1]","457.7019542425935","473.6683971057137","479.87742317241816"
"","canvas-keyboard-response","15","74690","0.0-6.0-2.1","572","","","","","rectangles no change","null","null","","","critical","c","t","d","164","240","240","164","232.8713","160.6713","trueblood","0.05","w","240","164","164","240","232.8713","160.6713","39360","39360","37415.7294","tc","null","null","null","null","null","null","[2,1]","457.7019542425935","473.6683971057137","479.87742317241816"
"","canvas-keyboard-response","16","76027","0.0-6.0-3.1","572","","","","","rectangles with change","null","null","","","critical","c","t","d","164","240","240","164","232.8713","160.6713","trueblood","0.05","w","240","164","164","240","232.8713","160.6713","39360","39360","37415.7294","tc","null","null","null","null","null","null","[2,1]","457.7019542425935","473.6683971057137","479.87742317241816"
"","canvas-keyboard-response","17","76043","0.0-6.0-4.1","572","","","","","clear_screen","null","null","","","critical","c","t","d","164","240","240","164","232.8713","160.6713","trueblood","0.05","w","240","164","164","240","232.8713","160.6713","39360","39360","37415.7294","tc","null","null","null","null","null","null","[2,1]","457.7019542425935","473.6683971057137","479.87742317241816"
"","canvas-keyboard-response","18","77258","0.0-6.0-5.1","572","","","","","make choice","1208","1","","","critical","c","t","d","164","240","240","164","232.8713","160.6713","trueblood","0.05","w","240","164","164","240","232.8713","160.6713","39360","39360","37415.7294","tc","null","null","null","null","null","null","[2,1]","","",""
"","canvas-keyboard-response","19","77275","0.0-6.0-6.1","572","","","","","clear_screen","null","null","","","critical","c","t","d","164","240","240","164","232.8713","160.6713","trueblood","0.05","w","240","164","164","240","232.8713","160.6713","39360","39360","37415.7294","tc","null","null","null","null","null","null","[2,1]","","",""
"","canvas-keyboard-response","20","77476","0.0-6.0-0.2","572","","","","","pre trial waiting period","null","null","","","critical","t","c","d","164","240","240","164","162.6685","237.1485","trueblood","0.02","h","164","240","240","164","162.6685","237.1485","39360","39360","38576.5967","tc","null","null","null","null","null","null","[1,2]","432.5832522930909","505.9396760592459","449.09238701080324"
"","canvas-keyboard-response","21","77499","0.0-6.0-1.2","572","","","","","clear_screen","null","null","","","critical","t","c","d","164","240","240","164","162.6685","237.1485","trueblood","0.02","h","164","240","240","164","162.6685","237.1485","39360","39360","38576.5967","tc","null","null","null","null","null","null","[1,2]","432.5832522930909","505.9396760592459","449.09238701080324"
"","canvas-keyboard-response","22","78008","0.0-6.0-2.2","572","","","","","rectangles no change","null","null","","","critical","t","c","d","164","240","240","164","162.6685","237.1485","trueblood","0.02","h","164","240","240","164","162.6685","237.1485","39360","39360","38576.5967","tc","null","null","null","null","null","null","[1,2]","432.5832522930909","505.9396760592459","449.09238701080324"
"","canvas-keyboard-response","23","79347","0.0-6.0-3.2","572","","","","","rectangles with change","null","null","","","critical","t","c","d","164","240","240","164","162.6685","237.1485","trueblood","0.02","h","164","240","240","164","162.6685","237.1485","39360","39360","38576.5967","tc","null","null","null","null","null","null","[1,2]","432.5832522930909","505.9396760592459","449.09238701080324"
"","canvas-keyboard-response","24","79361","0.0-6.0-4.2","572","","","","","clear_screen","null","null","","","critical","t","c","d","164","240","240","164","162.6685","237.1485","trueblood","0.02","h","164","240","240","164","162.6685","237.1485","39360","39360","38576.5967","tc","null","null","null","null","null","null","[1,2]","432.5832522930909","505.9396760592459","449.09238701080324"
"","canvas-keyboard-response","25","82474","0.0-6.0-5.2","572","","","","","make choice","3105","1","","","critical","t","c","d","164","240","240","164","162.6685","237.1485","trueblood","0.02","h","164","240","240","164","162.6685","237.1485","39360","39360","38576.5967","tc","null","null","null","null","null","null","[1,2]","","",""
"","canvas-keyboard-response","26","82492","0.0-6.0-6.2","572","","","","","clear_screen","null","null","","","critical","t","c","d","164","240","240","164","162.6685","237.1485","trueblood","0.02","h","164","240","240","164","162.6685","237.1485","39360","39360","38576.5967","tc","null","null","null","null","null","null","[1,2]","","",""
"","canvas-keyboard-response","27","82692","0.0-6.0-0.3","572","","","","","pre trial waiting period","null","null","","","catch","sh","sw","l","231","206","182","206","288","188","trueblood","null","null","null","null","null","null","null","null","null","null","null","","180","200","260","200","36000","52000","[2,3]","469.03558919299576","457.6482584396463","496.5793559853619"
"","canvas-keyboard-response","28","82712","0.0-6.0-1.3","572","","","","","clear_screen","null","null","","","catch","sh","sw","l","231","206","182","206","288","188","trueblood","null","null","null","null","null","null","null","null","null","null","null","","180","200","260","200","36000","52000","[2,3]","469.03558919299576","457.6482584396463","496.5793559853619"
"","canvas-keyboard-response","29","83219","0.0-6.0-2.3","572","","","","","rectangles no change","null","null","","","catch","sh","sw","l","231","206","182","206","288","188","trueblood","null","null","null","null","null","null","null","null","null","null","null","","180","200","260","200","36000","52000","[2,3]","469.03558919299576","457.6482584396463","496.5793559853619"
"","canvas-keyboard-response","30","84551","0.0-6.0-3.3","572","","","","","rectangles with change","null","null","","","catch","sh","sw","l","231","206","182","206","288","188","trueblood","null","null","null","null","null","null","null","null","null","null","null","","180","200","260","200","36000","52000","[2,3]","469.03558919299576","457.6482584396463","496.5793559853619"
"","canvas-keyboard-response","31","84572","0.0-6.0-4.3","572","","","","","clear_screen","null","null","","","catch","sh","sw","l","231","206","182","206","288","188","trueblood","null","null","null","null","null","null","null","null","null","null","null","","180","200","260","200","36000","52000","[2,3]","469.03558919299576","457.6482584396463","496.5793559853619"
"","canvas-keyboard-response","32","84859","0.0-6.0-5.3","572","","","","","make choice","281","3","","","catch","sh","sw","l","231","206","182","206","288","188","trueblood","null","null","null","null","null","null","null","null","null","null","null","","180","200","260","200","36000","52000","[2,3]","","",""
"","canvas-keyboard-response","33","84877","0.0-6.0-6.3","572","","","","","clear_screen","null","null","","","catch","sh","sw","l","231","206","182","206","288","188","trueblood","null","null","null","null","null","null","null","null","null","null","null","","180","200","260","200","36000","52000","[2,3]","","",""
"","canvas-keyboard-response","34","85078","0.0-6.0-0.4","572","","","","","pre trial waiting period","null","null","","","critical","t","d","c","240","164","227.1683","158.0083","164","240","trueblood","0.09","w","240","164","164","240","227.1683","158.0083","39360","39360","35894.4834","tc","null","null","null","null","null","null","[1,3]","474.87550957382655","505.7501784861049","441.37147474254715"
"","canvas-keyboard-response","35","85091","0.0-6.0-1.4","572","","","","","clear_screen","null","null","","","critical","t","d","c","240","164","227.1683","158.0083","164","240","trueblood","0.09","w","240","164","164","240","227.1683","158.0083","39360","39360","35894.4834","tc","null","null","null","null","null","null","[1,3]","474.87550957382655","505.7501784861049","441.37147474254715"
"","canvas-keyboard-response","36","85597","0.0-6.0-2.4","572","","","","","rectangles no change","null","null","","","critical","t","d","c","240","164","227.1683","158.0083","164","240","trueblood","0.09","w","240","164","164","240","227.1683","158.0083","39360","39360","35894.4834","tc","null","null","null","null","null","null","[1,3]","474.87550957382655","505.7501784861049","441.37147474254715"
"","canvas-keyboard-response","37","86933","0.0-6.0-3.4","572","","","","","rectangles with change","null","null","","","critical","t","d","c","240","164","227.1683","158.0083","164","240","trueblood","0.09","w","240","164","164","240","227.1683","158.0083","39360","39360","35894.4834","tc","null","null","null","null","null","null","[1,3]","474.87550957382655","505.7501784861049","441.37147474254715"
"","canvas-keyboard-response","38","86953","0.0-6.0-4.4","572","","","","","clear_screen","null","null","","","critical","t","d","c","240","164","227.1683","158.0083","164","240","trueblood","0.09","w","240","164","164","240","227.1683","158.0083","39360","39360","35894.4834","tc","null","null","null","null","null","null","[1,3]","474.87550957382655","505.7501784861049","441.37147474254715"
"","canvas-keyboard-response","39","87515","0.0-6.0-5.4","572","","","","","make choice","556","3","","","critical","t","d","c","240","164","227.1683","158.0083","164","240","trueblood","0.09","w","240","164","164","240","227.1683","158.0083","39360","39360","35894.4834","tc","null","null","null","null","null","null","[1,3]","","",""
"","canvas-keyboard-response","40","87533","0.0-6.0-6.4","572","","","","","clear_screen","null","null","","","critical","t","d","c","240","164","227.1683","158.0083","164","240","trueblood","0.09","w","240","164","164","240","227.1683","158.0083","39360","39360","35894.4834","tc","null","null","null","null","null","null","[1,3]","","",""
"","canvas-keyboard-response","41","87734","0.0-6.0-0.5","572","","","","","pre trial waiting period","null","null","","","critical","d","t","c","154.6796","220.0396","164","240","240","164","spektor","0.14","h","164","240","240","164","154.6796","220.0396","39360","39360","34035.6388","tc","null","null","null","null","null","null","[2,3]","512.9717654560068","126.05158200333325","534.0401416469095"
"","canvas-keyboard-response","42","87756","0.0-6.0-1.5","572","","","","","clear_screen","null","null","","","critical","d","t","c","154.6796","220.0396","164","240","240","164","spektor","0.14","h","164","240","240","164","154.6796","220.0396","39360","39360","34035.6388","tc","null","null","null","null","null","null","[2,3]","512.9717654560068","126.05158200333325","534.0401416469095"
"","canvas-keyboard-response","43","88263","0.0-6.0-2.5","572","","","","","rectangles no change","null","null","","","critical","d","t","c","154.6796","220.0396","164","240","240","164","spektor","0.14","h","164","240","240","164","154.6796","220.0396","39360","39360","34035.6388","tc","null","null","null","null","null","null","[2,3]","512.9717654560068","126.05158200333325","534.0401416469095"
"","canvas-keyboard-response","44","89600","0.0-6.0-3.5","572","","","","","rectangles with change","null","null","","","critical","d","t","c","154.6796","220.0396","164","240","240","164","spektor","0.14","h","164","240","240","164","154.6796","220.0396","39360","39360","34035.6388","tc","null","null","null","null","null","null","[2,3]","512.9717654560068","126.05158200333325","534.0401416469095"
"","canvas-keyboard-response","45","89618","0.0-6.0-4.5","572","","","","","clear_screen","null","null","","","critical","d","t","c","154.6796","220.0396","164","240","240","164","spektor","0.14","h","164","240","240","164","154.6796","220.0396","39360","39360","34035.6388","tc","null","null","null","null","null","null","[2,3]","512.9717654560068","126.05158200333325","534.0401416469095"
"","canvas-keyboard-response","46","89946","0.0-6.0-5.5","572","","","","","make choice","319","3","","","critical","d","t","c","154.6796","220.0396","164","240","240","164","spektor","0.14","h","164","240","240","164","154.6796","220.0396","39360","39360","34035.6388","tc","null","null","null","null","null","null","[2,3]","","",""
"","canvas-keyboard-response","47","89963","0.0-6.0-6.5","572","","","","","clear_screen","null","null","","","critical","d","t","c","154.6796","220.0396","164","240","240","164","spektor","0.14","h","164","240","240","164","154.6796","220.0396","39360","39360","34035.6388","tc","null","null","null","null","null","null","[2,3]","","",""
"","canvas-keyboard-response","48","90165","0.0-6.0-0.6","572","","","","","pre trial waiting period","null","null","","","catch","l","sh","sw","282","234","178","164","194","221","spektor","null","null","null","null","null","null","null","null","null","null","null","","180","200","260","200","36000","52000","[1,2]","468.7482805323747","168.55766822094165","471.4733283777032"
"","canvas-keyboard-response","49","90182","0.0-6.0-1.6","572","","","","","clear_screen","null","null","","","catch","l","sh","sw","282","234","178","164","194","221","spektor","null","null","null","null","null","null","null","null","null","null","null","","180","200","260","200","36000","52000","[1,2]","468.7482805323747","168.55766822094165","471.4733283777032"
"","canvas-keyboard-response","50","90691","0.0-6.0-2.6","572","","","","","rectangles no change","null","null","","","catch","l","sh","sw","282","234","178","164","194","221","spektor","null","null","null","null","null","null","null","null","null","null","null","","180","200","260","200","36000","52000","[1,2]","468.7482805323747","168.55766822094165","471.4733283777032"
"","canvas-keyboard-response","51","92027","0.0-6.0-3.6","572","","","","","rectangles with change","null","null","","","catch","l","sh","sw","282","234","178","164","194","221","spektor","null","null","null","null","null","null","null","null","null","null","null","","180","200","260","200","36000","52000","[1,2]","468.7482805323747","168.55766822094165","471.4733283777032"
"","canvas-keyboard-response","52","92047","0.0-6.0-4.6","572","","","","","clear_screen","null","null","","","catch","l","sh","sw","282","234","178","164","194","221","spektor","null","null","null","null","null","null","null","null","null","null","null","","180","200","260","200","36000","52000","[1,2]","468.7482805323747","168.55766822094165","471.4733283777032"
"","canvas-keyboard-response","53","92417","0.0-6.0-5.6","572","","","","","make choice","366","1","","","catch","l","sh","sw","282","234","178","164","194","221","spektor","null","null","null","null","null","null","null","null","null","null","null","","180","200","260","200","36000","52000","[1,2]","","",""
"","canvas-keyboard-response","54","92433","0.0-6.0-6.6","572","","","","","clear_screen","null","null","","","catch","l","sh","sw","282","234","178","164","194","221","spektor","null","null","null","null","null","null","null","null","null","null","null","","180","200","260","200","36000","52000","[1,2]","","",""
"","canvas-keyboard-response","55","92634","0.0-6.0-0.7","572","","","","","pre trial waiting period","null","null","","","critical","c","d","t","240","164","154.6796","220.0396","164","240","spektor","0.14","h","164","240","240","164","154.6796","220.0396","39360","39360","34035.6388","dc","null","null","null","null","null","null","[2,1]","507.26148470235717","114.5316275224654","500.1940174572808"
"","canvas-keyboard-response","56","92652","0.0-6.0-1.7","572","","","","","clear_screen","null","null","","","critical","c","d","t","240","164","154.6796","220.0396","164","240","spektor","0.14","h","164","240","240","164","154.6796","220.0396","39360","39360","34035.6388","dc","null","null","null","null","null","null","[2,1]","507.26148470235717","114.5316275224654","500.1940174572808"
"","canvas-keyboard-response","57","93159","0.0-6.0-2.7","572","","","","","rectangles no change","null","null","","","critical","c","d","t","240","164","154.6796","220.0396","164","240","spektor","0.14","h","164","240","240","164","154.6796","220.0396","39360","39360","34035.6388","dc","null","null","null","null","null","null","[2,1]","507.26148470235717","114.5316275224654","500.1940174572808"
"","canvas-keyboard-response","58","94492","0.0-6.0-3.7","572","","","","","rectangles with change","null","null","","","critical","c","d","t","240","164","154.6796","220.0396","164","240","spektor","0.14","h","164","240","240","164","154.6796","220.0396","39360","39360","34035.6388","dc","null","null","null","null","null","null","[2,1]","507.26148470235717","114.5316275224654","500.1940174572808"
"","canvas-keyboard-response","59","94512","0.0-6.0-4.7","572","","","","","clear_screen","null","null","","","critical","c","d","t","240","164","154.6796","220.0396","164","240","spektor","0.14","h","164","240","240","164","154.6796","220.0396","39360","39360","34035.6388","dc","null","null","null","null","null","null","[2,1]","507.26148470235717","114.5316275224654","500.1940174572808"
"","canvas-keyboard-response","60","95481","0.0-6.0-5.7","572","","","","","make choice","962","2","","","critical","c","d","t","240","164","154.6796","220.0396","164","240","spektor","0.14","h","164","240","240","164","154.6796","220.0396","39360","39360","34035.6388","dc","null","null","null","null","null","null","[2,1]","","",""
"","canvas-keyboard-response","61","95500","0.0-6.0-6.7","572","","","","","clear_screen","null","null","","","critical","c","d","t","240","164","154.6796","220.0396","164","240","spektor","0.14","h","164","240","240","164","154.6796","220.0396","39360","39360","34035.6388","dc","null","null","null","null","null","null","[2,1]","","",""
"","canvas-keyboard-response","62","95701","0.0-6.0-0.8","572","","","","","pre trial waiting period","null","null","","","critical","t","d","c","240","164","220.0396","154.6796","164","240","trueblood","0.14","w","240","164","164","240","220.0396","154.6796","39360","39360","34035.6388","td","null","null","null","null","null","null","[1,2]","481.6129781316933","506.7707170223913","449.25269600408456"
"","canvas-keyboard-response","63","95724","0.0-6.0-1.8","572","","","","","clear_screen","null","null","","","critical","t","d","c","240","164","220.0396","154.6796","164","240","trueblood","0.14","w","240","164","164","240","220.0396","154.6796","39360","39360","34035.6388","td","null","null","null","null","null","null","[1,2]","481.6129781316933","506.7707170223913","449.25269600408456"
"","canvas-keyboard-response","64","96232","0.0-6.0-2.8","572","","","","","rectangles no change","null","null","","","critical","t","d","c","240","164","220.0396","154.6796","164","240","trueblood","0.14","w","240","164","164","240","220.0396","154.6796","39360","39360","34035.6388","td","null","null","null","null","null","null","[1,2]","481.6129781316933","506.7707170223913","449.25269600408456"
"","canvas-keyboard-response","65","97571","0.0-6.0-3.8","572","","","","","rectangles with change","null","null","","","critical","t","d","c","240","164","220.0396","154.6796","164","240","trueblood","0.14","w","240","164","164","240","220.0396","154.6796","39360","39360","34035.6388","td","null","null","null","null","null","null","[1,2]","481.6129781316933","506.7707170223913","449.25269600408456"
"","canvas-keyboard-response","66","97591","0.0-6.0-4.8","572","","","","","clear_screen","null","null","","","critical","t","d","c","240","164","220.0396","154.6796","164","240","trueblood","0.14","w","240","164","164","240","220.0396","154.6796","39360","39360","34035.6388","td","null","null","null","null","null","null","[1,2]","481.6129781316933","506.7707170223913","449.25269600408456"
"","canvas-keyboard-response","67","98226","0.0-6.0-5.8","572","","","","","make choice","628","1","","","critical","t","d","c","240","164","220.0396","154.6796","164","240","trueblood","0.14","w","240","164","164","240","220.0396","154.6796","39360","39360","34035.6388","td","null","null","null","null","null","null","[1,2]","","",""
"","canvas-keyboard-response","68","98245","0.0-6.0-6.8","572","","","","","clear_screen","null","null","","","critical","t","d","c","240","164","220.0396","154.6796","164","240","trueblood","0.14","w","240","164","164","240","220.0396","154.6796","39360","39360","34035.6388","td","null","null","null","null","null","null","[1,2]","","",""
"","canvas-keyboard-response","69","98446","0.0-6.0-0.9","572","","","","","pre trial waiting period","null","null","","","catch","sh","l","sw","233","214","194","253","178","213","trueblood","null","null","null","null","null","null","null","null","null","null","null","","180","200","260","200","36000","52000","[2,3]","465.36422409619774","442.0458870421229","460.2832334413738"
"","canvas-keyboard-response","70","98467","0.0-6.0-1.9","572","","","","","clear_screen","null","null","","","catch","sh","l","sw","233","214","194","253","178","213","trueblood","null","null","null","null","null","null","null","null","null","null","null","","180","200","260","200","36000","52000","[2,3]","465.36422409619774","442.0458870421229","460.2832334413738"
"","canvas-keyboard-response","71","98971","0.0-6.0-2.9","572","","","","","rectangles no change","null","null","","","catch","sh","l","sw","233","214","194","253","178","213","trueblood","null","null","null","null","null","null","null","null","null","null","null","","180","200","260","200","36000","52000","[2,3]","465.36422409619774","442.0458870421229","460.2832334413738"
"","canvas-keyboard-response","72","100311","0.0-6.0-3.9","572","","","","","rectangles with change","null","null","","","catch","sh","l","sw","233","214","194","253","178","213","trueblood","null","null","null","null","null","null","null","null","null","null","null","","180","200","260","200","36000","52000","[2,3]","465.36422409619774","442.0458870421229","460.2832334413738"
"","canvas-keyboard-response","73","100332","0.0-6.0-4.9","572","","","","","clear_screen","null","null","","","catch","sh","l","sw","233","214","194","253","178","213","trueblood","null","null","null","null","null","null","null","null","null","null","null","","180","200","260","200","36000","52000","[2,3]","465.36422409619774","442.0458870421229","460.2832334413738"
"","canvas-keyboard-response","74","100890","0.0-6.0-5.9","572","","","","","make choice","554","2","","","catch","sh","l","sw","233","214","194","253","178","213","trueblood","null","null","null","null","null","null","null","null","null","null","null","","180","200","260","200","36000","52000","[2,3]","","",""
"","canvas-keyboard-response","75","100909","0.0-6.0-6.9","572","","","","","clear_screen","null","null","","","catch","sh","l","sw","233","214","194","253","178","213","trueblood","null","null","null","null","null","null","null","null","null","null","null","","180","200","260","200","36000","52000","[2,3]","","",""
"","canvas-keyboard-response","76","101111","0.0-6.0-0.10","572","","","","","pre trial waiting period","null","null","","","critical","c","d","t","240","164","154.6796","220.0396","164","240","trueblood","0.14","h","164","240","240","164","154.6796","220.0396","39360","39360","34035.6388","td","null","null","null","null","null","null","[3,2]","481.731531755105","472.90461188465497","443.1073825980164"
"","canvas-keyboard-response","77","101132","0.0-6.0-1.10","572","","","","","clear_screen","null","null","","","critical","c","d","t","240","164","154.6796","220.0396","164","240","trueblood","0.14","h","164","240","240","164","154.6796","220.0396","39360","39360","34035.6388","td","null","null","null","null","null","null","[3,2]","481.731531755105","472.90461188465497","443.1073825980164"
"","canvas-keyboard-response","78","101637","0.0-6.0-2.10","572","","","","","rectangles no change","null","null","","","critical","c","d","t","240","164","154.6796","220.0396","164","240","trueblood","0.14","h","164","240","240","164","154.6796","220.0396","39360","39360","34035.6388","td","null","null","null","null","null","null","[3,2]","481.731531755105","472.90461188465497","443.1073825980164"
"","canvas-keyboard-response","79","102978","0.0-6.0-3.10","572","","","","","rectangles with change","null","null","","","critical","c","d","t","240","164","154.6796","220.0396","164","240","trueblood","0.14","h","164","240","240","164","154.6796","220.0396","39360","39360","34035.6388","td","null","null","null","null","null","null","[3,2]","481.731531755105","472.90461188465497","443.1073825980164"
"","canvas-keyboard-response","80","102999","0.0-6.0-4.10","572","","","","","clear_screen","null","null","","","critical","c","d","t","240","164","154.6796","220.0396","164","240","trueblood","0.14","h","164","240","240","164","154.6796","220.0396","39360","39360","34035.6388","td","null","null","null","null","null","null","[3,2]","481.731531755105","472.90461188465497","443.1073825980164"
"","canvas-keyboard-response","81","103323","0.0-6.0-5.10","572","","","","","make choice","317","3","","","critical","c","d","t","240","164","154.6796","220.0396","164","240","trueblood","0.14","h","164","240","240","164","154.6796","220.0396","39360","39360","34035.6388","td","null","null","null","null","null","null","[3,2]","","",""
"","canvas-keyboard-response","82","103342","0.0-6.0-6.10","572","","","","","clear_screen","null","null","","","critical","c","d","t","240","164","154.6796","220.0396","164","240","trueblood","0.14","h","164","240","240","164","154.6796","220.0396","39360","39360","34035.6388","td","null","null","null","null","null","null","[3,2]","","",""
"","canvas-keyboard-response","83","103544","0.0-6.0-0.11","572","","","","","pre trial waiting period","null","null","","","critical","c","d","t","240","164","160.6713","232.8713","164","240","trueblood","0.05","h","164","240","240","164","160.6713","232.8713","39360","39360","37415.7294","td","null","null","null","null","null","null","[3,2]","502.25560637130474","425.24674328250154","450.1091316743721"
"","canvas-keyboard-response","84","103564","0.0-6.0-1.11","572","","","","","clear_screen","null","null","","","critical","c","d","t","240","164","160.6713","232.8713","164","240","trueblood","0.05","h","164","240","240","164","160.6713","232.8713","39360","39360","37415.7294","td","null","null","null","null","null","null","[3,2]","502.25560637130474","425.24674328250154","450.1091316743721"
"","canvas-keyboard-response","85","104071","0.0-6.0-2.11","572","","","","","rectangles no change","null","null","","","critical","c","d","t","240","164","160.6713","232.8713","164","240","trueblood","0.05","h","164","240","240","164","160.6713","232.8713","39360","39360","37415.7294","td","null","null","null","null","null","null","[3,2]","502.25560637130474","425.24674328250154","450.1091316743721"
"","canvas-keyboard-response","86","105408","0.0-6.0-3.11","572","","","","","rectangles with change","null","null","","","critical","c","d","t","240","164","160.6713","232.8713","164","240","trueblood","0.05","h","164","240","240","164","160.6713","232.8713","39360","39360","37415.7294","td","null","null","null","null","null","null","[3,2]","502.25560637130474","425.24674328250154","450.1091316743721"
"","canvas-keyboard-response","87","105428","0.0-6.0-4.11","572","","","","","clear_screen","null","null","","","critical","c","d","t","240","164","160.6713","232.8713","164","240","trueblood","0.05","h","164","240","240","164","160.6713","232.8713","39360","39360","37415.7294","td","null","null","null","null","null","null","[3,2]","502.25560637130474","425.24674328250154","450.1091316743721"
"","canvas-keyboard-response","88","105666","0.0-6.0-5.11","572","","","","","make choice","233","3","","","critical","c","d","t","240","164","160.6713","232.8713","164","240","trueblood","0.05","h","164","240","240","164","160.6713","232.8713","39360","39360","37415.7294","td","null","null","null","null","null","null","[3,2]","","",""
"","canvas-keyboard-response","89","105687","0.0-6.0-6.11","572","","","","","clear_screen","null","null","","","critical","c","d","t","240","164","160.6713","232.8713","164","240","trueblood","0.05","h","164","240","240","164","160.6713","232.8713","39360","39360","37415.7294","td","null","null","null","null","null","null","[3,2]","","",""
"","canvas-keyboard-response","90","105888","0.0-6.0-0.12","572","","","","","pre trial waiting period","null","null","","","catch","sh","sw","l","238","164","144","213","176","228","spektor","null","null","null","null","null","null","null","null","null","null","null","","180","200","260","200","36000","52000","[1,3]","519.1301972090871","127.9240819061011","495.4842252382683"
"","canvas-keyboard-response","91","105909","0.0-6.0-1.12","572","","","","","clear_screen","null","null","","","catch","sh","sw","l","238","164","144","213","176","228","spektor","null","null","null","null","null","null","null","null","null","null","null","","180","200","260","200","36000","52000","[1,3]","519.1301972090871","127.9240819061011","495.4842252382683"
"","canvas-keyboard-response","92","106418","0.0-6.0-2.12","572","","","","","rectangles no change","null","null","","","catch","sh","sw","l","238","164","144","213","176","228","spektor","null","null","null","null","null","null","null","null","null","null","null","","180","200","260","200","36000","52000","[1,3]","519.1301972090871","127.9240819061011","495.4842252382683"
"","canvas-keyboard-response","93","107756","0.0-6.0-3.12","572","","","","","rectangles with change","null","null","","","catch","sh","sw","l","238","164","144","213","176","228","spektor","null","null","null","null","null","null","null","null","null","null","null","","180","200","260","200","36000","52000","[1,3]","519.1301972090871","127.9240819061011","495.4842252382683"
"","canvas-keyboard-response","94","107776","0.0-6.0-4.12","572","","","","","clear_screen","null","null","","","catch","sh","sw","l","238","164","144","213","176","228","spektor","null","null","null","null","null","null","null","null","null","null","null","","180","200","260","200","36000","52000","[1,3]","519.1301972090871","127.9240819061011","495.4842252382683"
"","canvas-keyboard-response","95","108042","0.0-6.0-5.12","572","","","","","make choice","259","1","","","catch","sh","sw","l","238","164","144","213","176","228","spektor","null","null","null","null","null","null","null","null","null","null","null","","180","200","260","200","36000","52000","[1,3]","","",""
"","canvas-keyboard-response","96","108064","0.0-6.0-6.12","572","","","","","clear_screen","null","null","","","catch","sh","sw","l","238","164","144","213","176","228","spektor","null","null","null","null","null","null","null","null","null","null","null","","180","200","260","200","36000","52000","[1,3]","","",""
"","canvas-keyboard-response","97","108265","0.0-6.0-0.13","572","","","","","pre trial waiting period","null","null","","","critical","c","t","d","164","240","240","164","237.1485","162.6685","trueblood","0.02","w","240","164","164","240","237.1485","162.6685","39360","39360","38576.5967","dc","null","null","null","null","null","null","[3,1]","434.87166800672986","476.2984244211593","473.9545526330617"
"","canvas-keyboard-response","98","108281","0.0-6.0-1.13","572","","","","","clear_screen","null","null","","","critical","c","t","d","164","240","240","164","237.1485","162.6685","trueblood","0.02","w","240","164","164","240","237.1485","162.6685","39360","39360","38576.5967","dc","null","null","null","null","null","null","[3,1]","434.87166800672986","476.2984244211593","473.9545526330617"
"","canvas-keyboard-response","99","108790","0.0-6.0-2.13","572","","","","","rectangles no change","null","null","","","critical","c","t","d","164","240","240","164","237.1485","162.6685","trueblood","0.02","w","240","164","164","240","237.1485","162.6685","39360","39360","38576.5967","dc","null","null","null","null","null","null","[3,1]","434.87166800672986","476.2984244211593","473.9545526330617"
"","canvas-keyboard-response","100","110125","0.0-6.0-3.13","572","","","","","rectangles with change","null","null","","","critical","c","t","d","164","240","240","164","237.1485","162.6685","trueblood","0.02","w","240","164","164","240","237.1485","162.6685","39360","39360","38576.5967","dc","null","null","null","null","null","null","[3,1]","434.87166800672986","476.2984244211593","473.9545526330617"
"","canvas-keyboard-response","101","110144","0.0-6.0-4.13","572","","","","","clear_screen","null","null","","","critical","c","t","d","164","240","240","164","237.1485","162.6685","trueblood","0.02","w","240","164","164","240","237.1485","162.6685","39360","39360","38576.5967","dc","null","null","null","null","null","null","[3,1]","434.87166800672986","476.2984244211593","473.9545526330617"
"","canvas-keyboard-response","102","110690","0.0-6.0-5.13","572","","","","","make choice","539","1","","","critical","c","t","d","164","240","240","164","237.1485","162.6685","trueblood","0.02","w","240","164","164","240","237.1485","162.6685","39360","39360","38576.5967","dc","null","null","null","null","null","null","[3,1]","","",""
"","canvas-keyboard-response","103","110708","0.0-6.0-6.13","572","","","","","clear_screen","null","null","","","critical","c","t","d","164","240","240","164","237.1485","162.6685","trueblood","0.02","w","240","164","164","240","237.1485","162.6685","39360","39360","38576.5967","dc","null","null","null","null","null","null","[3,1]","","",""
"","canvas-keyboard-response","104","110909","0.0-6.0-0.14","572","","","","","pre trial waiting period","null","null","","","critical","t","d","c","240","164","232.8713","160.6713","164","240","spektor","0.05","w","240","164","164","240","232.8713","160.6713","39360","39360","37415.7294","tc","null","null","null","null","null","null","[1,3]","537.1221419836377","211.93733886661244","463.1839787455991"
"","canvas-keyboard-response","105","110928","0.0-6.0-1.14","572","","","","","clear_screen","null","null","","","critical","t","d","c","240","164","232.8713","160.6713","164","240","spektor","0.05","w","240","164","164","240","232.8713","160.6713","39360","39360","37415.7294","tc","null","null","null","null","null","null","[1,3]","537.1221419836377","211.93733886661244","463.1839787455991"
"","canvas-keyboard-response","106","111437","0.0-6.0-2.14","572","","","","","rectangles no change","null","null","","","critical","t","d","c","240","164","232.8713","160.6713","164","240","spektor","0.05","w","240","164","164","240","232.8713","160.6713","39360","39360","37415.7294","tc","null","null","null","null","null","null","[1,3]","537.1221419836377","211.93733886661244","463.1839787455991"
"","canvas-keyboard-response","107","112773","0.0-6.0-3.14","572","","","","","rectangles with change","null","null","","","critical","t","d","c","240","164","232.8713","160.6713","164","240","spektor","0.05","w","240","164","164","240","232.8713","160.6713","39360","39360","37415.7294","tc","null","null","null","null","null","null","[1,3]","537.1221419836377","211.93733886661244","463.1839787455991"
"","canvas-keyboard-response","108","112793","0.0-6.0-4.14","572","","","","","clear_screen","null","null","","","critical","t","d","c","240","164","232.8713","160.6713","164","240","spektor","0.05","w","240","164","164","240","232.8713","160.6713","39360","39360","37415.7294","tc","null","null","null","null","null","null","[1,3]","537.1221419836377","211.93733886661244","463.1839787455991"
"","canvas-keyboard-response","109","113058","0.0-6.0-5.14","572","","","","","make choice","255","1","","","critical","t","d","c","240","164","232.8713","160.6713","164","240","spektor","0.05","w","240","164","164","240","232.8713","160.6713","39360","39360","37415.7294","tc","null","null","null","null","null","null","[1,3]","","",""
"","canvas-keyboard-response","110","113075","0.0-6.0-6.14","572","","","","","clear_screen","null","null","","","critical","t","d","c","240","164","232.8713","160.6713","164","240","spektor","0.05","w","240","164","164","240","232.8713","160.6713","39360","39360","37415.7294","tc","null","null","null","null","null","null","[1,3]","","",""
"","canvas-keyboard-response","111","113278","0.0-6.0-0.15","572","","","","","pre trial waiting period","null","null","","","critical","t","d","c","240","164","232.8713","160.6713","164","240","trueblood","0.05","w","240","164","164","240","232.8713","160.6713","39360","39360","37415.7294","td","null","null","null","null","null","null","[1,2]","485.1938924471005","487.58813567698303","443.9014009077332"
"","canvas-keyboard-response","112","113295","0.0-6.0-1.15","572","","","","","clear_screen","null","null","","","critical","t","d","c","240","164","232.8713","160.6713","164","240","trueblood","0.05","w","240","164","164","240","232.8713","160.6713","39360","39360","37415.7294","td","null","null","null","null","null","null","[1,2]","485.1938924471005","487.58813567698303","443.9014009077332"
"","canvas-keyboard-response","113","113804","0.0-6.0-2.15","572","","","","","rectangles no change","null","null","","","critical","t","d","c","240","164","232.8713","160.6713","164","240","trueblood","0.05","w","240","164","164","240","232.8713","160.6713","39360","39360","37415.7294","td","null","null","null","null","null","null","[1,2]","485.1938924471005","487.58813567698303","443.9014009077332"
"","canvas-keyboard-response","114","115137","0.0-6.0-3.15","572","","","","","rectangles with change","null","null","","","critical","t","d","c","240","164","232.8713","160.6713","164","240","trueblood","0.05","w","240","164","164","240","232.8713","160.6713","39360","39360","37415.7294","td","null","null","null","null","null","null","[1,2]","485.1938924471005","487.58813567698303","443.9014009077332"
"","canvas-keyboard-response","115","115157","0.0-6.0-4.15","572","","","","","clear_screen","null","null","","","critical","t","d","c","240","164","232.8713","160.6713","164","240","trueblood","0.05","w","240","164","164","240","232.8713","160.6713","39360","39360","37415.7294","td","null","null","null","null","null","null","[1,2]","485.1938924471005","487.58813567698303","443.9014009077332"
"","canvas-keyboard-response","116","115458","0.0-6.0-5.15","572","","","","","make choice","296","1","","","critical","t","d","c","240","164","232.8713","160.6713","164","240","trueblood","0.05","w","240","164","164","240","232.8713","160.6713","39360","39360","37415.7294","td","null","null","null","null","null","null","[1,2]","","",""
"","canvas-keyboard-response","117","115475","0.0-6.0-6.15","572","","","","","clear_screen","null","null","","","critical","t","d","c","240","164","232.8713","160.6713","164","240","trueblood","0.05","w","240","164","164","240","232.8713","160.6713","39360","39360","37415.7294","td","null","null","null","null","null","null","[1,2]","","",""
"","canvas-keyboard-response","118","115676","0.0-6.0-0.16","572","","","","","pre trial waiting period","null","null","","","critical","c","t","d","164","240","240","164","220.0396","154.6796","trueblood","0.14","w","240","164","164","240","220.0396","154.6796","39360","39360","34035.6388","dc","null","null","null","null","null","null","[3,1]","424.8859834172829","504.2597914032084","509.513526282949"
"","canvas-keyboard-response","119","115694","0.0-6.0-1.16","572","","","","","clear_screen","null","null","","","critical","c","t","d","164","240","240","164","220.0396","154.6796","trueblood","0.14","w","240","164","164","240","220.0396","154.6796","39360","39360","34035.6388","dc","null","null","null","null","null","null","[3,1]","424.8859834172829","504.2597914032084","509.513526282949"
"","canvas-keyboard-response","120","116204","0.0-6.0-2.16","572","","","","","rectangles no change","null","null","","","critical","c","t","d","164","240","240","164","220.0396","154.6796","trueblood","0.14","w","240","164","164","240","220.0396","154.6796","39360","39360","34035.6388","dc","null","null","null","null","null","null","[3,1]","424.8859834172829","504.2597914032084","509.513526282949"
"","canvas-keyboard-response","121","117541","0.0-6.0-3.16","572","","","","","rectangles with change","null","null","","","critical","c","t","d","164","240","240","164","220.0396","154.6796","trueblood","0.14","w","240","164","164","240","220.0396","154.6796","39360","39360","34035.6388","dc","null","null","null","null","null","null","[3,1]","424.8859834172829","504.2597914032084","509.513526282949"
"","canvas-keyboard-response","122","117562","0.0-6.0-4.16","572","","","","","clear_screen","null","null","","","critical","c","t","d","164","240","240","164","220.0396","154.6796","trueblood","0.14","w","240","164","164","240","220.0396","154.6796","39360","39360","34035.6388","dc","null","null","null","null","null","null","[3,1]","424.8859834172829","504.2597914032084","509.513526282949"
"","canvas-keyboard-response","123","117818","0.0-6.0-5.16","572","","","","","make choice","250","1","","","critical","c","t","d","164","240","240","164","220.0396","154.6796","trueblood","0.14","w","240","164","164","240","220.0396","154.6796","39360","39360","34035.6388","dc","null","null","null","null","null","null","[3,1]","","",""
"","canvas-keyboard-response","124","117836","0.0-6.0-6.16","572","","","","","clear_screen","null","null","","","critical","c","t","d","164","240","240","164","220.0396","154.6796","trueblood","0.14","w","240","164","164","240","220.0396","154.6796","39360","39360","34035.6388","dc","null","null","null","null","null","null","[3,1]","","",""
"","canvas-keyboard-response","125","118037","0.0-6.0-0.17","572","","","","","pre trial waiting period","null","null","","","catch","sw","l","sh","180","200","191","290","161","158","trueblood","null","null","null","null","null","null","null","null","null","null","null","","180","200","260","200","36000","52000","[1,2]","491.96520734936274","425.12204733589465","478.2559469637153"
"","canvas-keyboard-response","126","118059","0.0-6.0-1.17","572","","","","","clear_screen","null","null","","","catch","sw","l","sh","180","200","191","290","161","158","trueblood","null","null","null","null","null","null","null","null","null","null","null","","180","200","260","200","36000","52000","[1,2]","491.96520734936274","425.12204733589465","478.2559469637153"
"","canvas-keyboard-response","127","118567","0.0-6.0-2.17","572","","","","","rectangles no change","null","null","","","catch","sw","l","sh","180","200","191","290","161","158","trueblood","null","null","null","null","null","null","null","null","null","null","null","","180","200","260","200","36000","52000","[1,2]","491.96520734936274","425.12204733589465","478.2559469637153"
"","canvas-keyboard-response","128","119903","0.0-6.0-3.17","572","","","","","rectangles with change","null","null","","","catch","sw","l","sh","180","200","191","290","161","158","trueblood","null","null","null","null","null","null","null","null","null","null","null","","180","200","260","200","36000","52000","[1,2]","491.96520734936274","425.12204733589465","478.2559469637153"
"","canvas-keyboard-response","129","119926","0.0-6.0-4.17","572","","","","","clear_screen","null","null","","","catch","sw","l","sh","180","200","191","290","161","158","trueblood","null","null","null","null","null","null","null","null","null","null","null","","180","200","260","200","36000","52000","[1,2]","491.96520734936274","425.12204733589465","478.2559469637153"
"","canvas-keyboard-response","130","120218","0.0-6.0-5.17","572","","","","","make choice","288","2","","","catch","sw","l","sh","180","200","191","290","161","158","trueblood","null","null","null","null","null","null","null","null","null","null","null","","180","200","260","200","36000","52000","[1,2]","","",""
"","canvas-keyboard-response","131","120239","0.0-6.0-6.17","572","","","","","clear_screen","null","null","","","catch","sw","l","sh","180","200","191","290","161","158","trueblood","null","null","null","null","null","null","null","null","null","null","null","","180","200","260","200","36000","52000","[1,2]","","",""
"","canvas-keyboard-response","132","120440","0.0-6.0-0.18","572","","","","","pre trial waiting period","null","null","","","critical","t","c","d","240","164","164","240","240","164","spektor","0","w","240","164","164","240","240","164","39360","39360","39360","td","null","null","null","null","null","null","[1,3]","495.8865043757266","130.646038737587","501.3717672220283"
"","canvas-keyboard-response","133","120463","0.0-6.0-1.18","572","","","","","clear_screen","null","null","","","critical","t","c","d","240","164","164","240","240","164","spektor","0","w","240","164","164","240","240","164","39360","39360","39360","td","null","null","null","null","null","null","[1,3]","495.8865043757266","130.646038737587","501.3717672220283"
"","canvas-keyboard-response","134","120974","0.0-6.0-2.18","572","","","","","rectangles no change","null","null","","","critical","t","c","d","240","164","164","240","240","164","spektor","0","w","240","164","164","240","240","164","39360","39360","39360","td","null","null","null","null","null","null","[1,3]","495.8865043757266","130.646038737587","501.3717672220283"
"","canvas-keyboard-response","135","122314","0.0-6.0-3.18","572","","","","","rectangles with change","null","null","","","critical","t","c","d","240","164","164","240","240","164","spektor","0","w","240","164","164","240","240","164","39360","39360","39360","td","null","null","null","null","null","null","[1,3]","495.8865043757266","130.646038737587","501.3717672220283"
"","canvas-keyboard-response","136","122334","0.0-6.0-4.18","572","","","","","clear_screen","null","null","","","critical","t","c","d","240","164","164","240","240","164","spektor","0","w","240","164","164","240","240","164","39360","39360","39360","td","null","null","null","null","null","null","[1,3]","495.8865043757266","130.646038737587","501.3717672220283"
"","canvas-keyboard-response","137","122585","0.0-6.0-5.18","572","","","","","make choice","246","3","","","critical","t","c","d","240","164","164","240","240","164","spektor","0","w","240","164","164","240","240","164","39360","39360","39360","td","null","null","null","null","null","null","[1,3]","","",""
"","canvas-keyboard-response","138","122604","0.0-6.0-6.18","572","","","","","clear_screen","null","null","","","critical","t","c","d","240","164","164","240","240","164","spektor","0","w","240","164","164","240","240","164","39360","39360","39360","td","null","null","null","null","null","null","[1,3]","","",""
"","canvas-keyboard-response","139","122804","0.0-6.0-0.19","572","","","","","pre trial waiting period","null","null","","","catch","sw","l","sh","180","200","274","182","162","188","trueblood","null","null","null","null","null","null","null","null","null","null","null","","180","200","260","200","36000","52000","[1,2]","454.5166788405483","461.9512899628731","471.52786824404444"
"","canvas-keyboard-response","140","122827","0.0-6.0-1.19","572","","","","","clear_screen","null","null","","","catch","sw","l","sh","180","200","274","182","162","188","trueblood","null","null","null","null","null","null","null","null","null","null","null","","180","200","260","200","36000","52000","[1,2]","454.5166788405483","461.9512899628731","471.52786824404444"
"","canvas-keyboard-response","141","123333","0.0-6.0-2.19","572","","","","","rectangles no change","null","null","","","catch","sw","l","sh","180","200","274","182","162","188","trueblood","null","null","null","null","null","null","null","null","null","null","null","","180","200","260","200","36000","52000","[1,2]","454.5166788405483","461.9512899628731","471.52786824404444"
"","canvas-keyboard-response","142","124667","0.0-6.0-3.19","572","","","","","rectangles with change","null","null","","","catch","sw","l","sh","180","200","274","182","162","188","trueblood","null","null","null","null","null","null","null","null","null","null","null","","180","200","260","200","36000","52000","[1,2]","454.5166788405483","461.9512899628731","471.52786824404444"
"","canvas-keyboard-response","143","124687","0.0-6.0-4.19","572","","","","","clear_screen","null","null","","","catch","sw","l","sh","180","200","274","182","162","188","trueblood","null","null","null","null","null","null","null","null","null","null","null","","180","200","260","200","36000","52000","[1,2]","454.5166788405483","461.9512899628731","471.52786824404444"
"","canvas-keyboard-response","144","124970","0.0-6.0-5.19","572","","","","","make choice","277","2","","","catch","sw","l","sh","180","200","274","182","162","188","trueblood","null","null","null","null","null","null","null","null","null","null","null","","180","200","260","200","36000","52000","[1,2]","","",""
"","canvas-keyboard-response","145","124987","0.0-6.0-6.19","572","","","","","clear_screen","null","null","","","catch","sw","l","sh","180","200","274","182","162","188","trueblood","null","null","null","null","null","null","null","null","null","null","null","","180","200","260","200","36000","52000","[1,2]","","",""
"","canvas-keyboard-response","146","125188","0.0-6.0-0.20","572","","","","","pre trial waiting period","null","null","","","critical","c","d","t","240","164","164","240","164","240","trueblood","0","h","164","240","240","164","164","240","39360","39360","39360","td","null","null","null","null","null","null","[3,2]","477.1267627336727","423.96100182826444","459.6529298710783"
"","canvas-keyboard-response","147","125211","0.0-6.0-1.20","572","","","","","clear_screen","null","null","","","critical","c","d","t","240","164","164","240","164","240","trueblood","0","h","164","240","240","164","164","240","39360","39360","39360","td","null","null","null","null","null","null","[3,2]","477.1267627336727","423.96100182826444","459.6529298710783"
"","canvas-keyboard-response","148","125717","0.0-6.0-2.20","572","","","","","rectangles no change","null","null","","","critical","c","d","t","240","164","164","240","164","240","trueblood","0","h","164","240","240","164","164","240","39360","39360","39360","td","null","null","null","null","null","null","[3,2]","477.1267627336727","423.96100182826444","459.6529298710783"
"","canvas-keyboard-response","149","127055","0.0-6.0-3.20","572","","","","","rectangles with change","null","null","","","critical","c","d","t","240","164","164","240","164","240","trueblood","0","h","164","240","240","164","164","240","39360","39360","39360","td","null","null","null","null","null","null","[3,2]","477.1267627336727","423.96100182826444","459.6529298710783"
"","canvas-keyboard-response","150","127077","0.0-6.0-4.20","572","","","","","clear_screen","null","null","","","critical","c","d","t","240","164","164","240","164","240","trueblood","0","h","164","240","240","164","164","240","39360","39360","39360","td","null","null","null","null","null","null","[3,2]","477.1267627336727","423.96100182826444","459.6529298710783"
"","canvas-keyboard-response","151","127354","0.0-6.0-5.20","572","","","","","make choice","274","2","","","critical","c","d","t","240","164","164","240","164","240","trueblood","0","h","164","240","240","164","164","240","39360","39360","39360","td","null","null","null","null","null","null","[3,2]","","",""
"","canvas-keyboard-response","152","127373","0.0-6.0-6.20","572","","","","","clear_screen","null","null","","","critical","c","d","t","240","164","164","240","164","240","trueblood","0","h","164","240","240","164","164","240","39360","39360","39360","td","null","null","null","null","null","null","[3,2]","","",""
"","canvas-keyboard-response","153","127574","0.0-6.0-0.21","572","","","","","pre trial waiting period","null","null","","","critical","t","c","d","164","240","240","164","164","240","spektor","0","h","164","240","240","164","164","240","39360","39360","39360","dc","null","null","null","null","null","null","[3,2]","496.2617055612431","196.2875187779764","466.64037459275966"
"","canvas-keyboard-response","154","127593","0.0-6.0-1.21","572","","","","","clear_screen","null","null","","","critical","t","c","d","164","240","240","164","164","240","spektor","0","h","164","240","240","164","164","240","39360","39360","39360","dc","null","null","null","null","null","null","[3,2]","496.2617055612431","196.2875187779764","466.64037459275966"
"","canvas-keyboard-response","155","128098","0.0-6.0-2.21","572","","","","","rectangles no change","null","null","","","critical","t","c","d","164","240","240","164","164","240","spektor","0","h","164","240","240","164","164","240","39360","39360","39360","dc","null","null","null","null","null","null","[3,2]","496.2617055612431","196.2875187779764","466.64037459275966"
"","canvas-keyboard-response","156","129433","0.0-6.0-3.21","572","","","","","rectangles with change","null","null","","","critical","t","c","d","164","240","240","164","164","240","spektor","0","h","164","240","240","164","164","240","39360","39360","39360","dc","null","null","null","null","null","null","[3,2]","496.2617055612431","196.2875187779764","466.64037459275966"
"","canvas-keyboard-response","157","129447","0.0-6.0-4.21","572","","","","","clear_screen","null","null","","","critical","t","c","d","164","240","240","164","164","240","spektor","0","h","164","240","240","164","164","240","39360","39360","39360","dc","null","null","null","null","null","null","[3,2]","496.2617055612431","196.2875187779764","466.64037459275966"
"","canvas-keyboard-response","158","129658","0.0-6.0-5.21","572","","","","","make choice","202","2","","","critical","t","c","d","164","240","240","164","164","240","spektor","0","h","164","240","240","164","164","240","39360","39360","39360","dc","null","null","null","null","null","null","[3,2]","","",""
"","canvas-keyboard-response","159","129676","0.0-6.0-6.21","572","","","","","clear_screen","null","null","","","critical","t","c","d","164","240","240","164","164","240","spektor","0","h","164","240","240","164","164","240","39360","39360","39360","dc","null","null","null","null","null","null","[3,2]","","",""
"","canvas-keyboard-response","160","129876","0.0-6.0-0.22","572","","","","","pre trial waiting period","null","null","","","catch","l","sh","sw","245","209","234","195","150","233","spektor","null","null","null","null","null","null","null","null","null","null","null","","180","200","260","200","36000","52000","[1,3]","512.7779254467027","133.24031352716565","474.9049861035833"
"","canvas-keyboard-response","161","129899","0.0-6.0-1.22","572","","","","","clear_screen","null","null","","","catch","l","sh","sw","245","209","234","195","150","233","spektor","null","null","null","null","null","null","null","null","null","null","null","","180","200","260","200","36000","52000","[1,3]","512.7779254467027","133.24031352716565","474.9049861035833"
"","canvas-keyboard-response","162","130407","0.0-6.0-2.22","572","","","","","rectangles no change","null","null","","","catch","l","sh","sw","245","209","234","195","150","233","spektor","null","null","null","null","null","null","null","null","null","null","null","","180","200","260","200","36000","52000","[1,3]","512.7779254467027","133.24031352716565","474.9049861035833"
"","canvas-keyboard-response","163","131737","0.0-6.0-3.22","572","","","","","rectangles with change","null","null","","","catch","l","sh","sw","245","209","234","195","150","233","spektor","null","null","null","null","null","null","null","null","null","null","null","","180","200","260","200","36000","52000","[1,3]","512.7779254467027","133.24031352716565","474.9049861035833"
"","canvas-keyboard-response","164","131759","0.0-6.0-4.22","572","","","","","clear_screen","null","null","","","catch","l","sh","sw","245","209","234","195","150","233","spektor","null","null","null","null","null","null","null","null","null","null","null","","180","200","260","200","36000","52000","[1,3]","512.7779254467027","133.24031352716565","474.9049861035833"
"","canvas-keyboard-response","165","132026","0.0-6.0-5.22","572","","","","","make choice","263","1","","","catch","l","sh","sw","245","209","234","195","150","233","spektor","null","null","null","null","null","null","null","null","null","null","null","","180","200","260","200","36000","52000","[1,3]","","",""
"","canvas-keyboard-response","166","132043","0.0-6.0-6.22","572","","","","","clear_screen","null","null","","","catch","l","sh","sw","245","209","234","195","150","233","spektor","null","null","null","null","null","null","null","null","null","null","null","","180","200","260","200","36000","52000","[1,3]","","",""
"","canvas-keyboard-response","167","132244","0.0-6.0-0.23","572","","","","","pre trial waiting period","null","null","","","critical","d","t","c","220.0396","154.6796","240","164","164","240","spektor","0.14","w","240","164","164","240","220.0396","154.6796","39360","39360","34035.6388","td","null","null","null","null","null","null","[2,1]","532.2395109194816","203.76147491096467","500.7993206540849"
"","canvas-keyboard-response","168","132263","0.0-6.0-1.23","572","","","","","clear_screen","null","null","","","critical","d","t","c","220.0396","154.6796","240","164","164","240","spektor","0.14","w","240","164","164","240","220.0396","154.6796","39360","39360","34035.6388","td","null","null","null","null","null","null","[2,1]","532.2395109194816","203.76147491096467","500.7993206540849"
"","canvas-keyboard-response","169","132768","0.0-6.0-2.23","572","","","","","rectangles no change","null","null","","","critical","d","t","c","220.0396","154.6796","240","164","164","240","spektor","0.14","w","240","164","164","240","220.0396","154.6796","39360","39360","34035.6388","td","null","null","null","null","null","null","[2,1]","532.2395109194816","203.76147491096467","500.7993206540849"
"","canvas-keyboard-response","170","134107","0.0-6.0-3.23","572","","","","","rectangles with change","null","null","","","critical","d","t","c","220.0396","154.6796","240","164","164","240","spektor","0.14","w","240","164","164","240","220.0396","154.6796","39360","39360","34035.6388","td","null","null","null","null","null","null","[2,1]","532.2395109194816","203.76147491096467","500.7993206540849"
"","canvas-keyboard-response","171","134128","0.0-6.0-4.23","572","","","","","clear_screen","null","null","","","critical","d","t","c","220.0396","154.6796","240","164","164","240","spektor","0.14","w","240","164","164","240","220.0396","154.6796","39360","39360","34035.6388","td","null","null","null","null","null","null","[2,1]","532.2395109194816","203.76147491096467","500.7993206540849"
"","canvas-keyboard-response","172","134418","0.0-6.0-5.23","572","","","","","make choice","287","2","","","critical","d","t","c","220.0396","154.6796","240","164","164","240","spektor","0.14","w","240","164","164","240","220.0396","154.6796","39360","39360","34035.6388","td","null","null","null","null","null","null","[2,1]","","",""
"","canvas-keyboard-response","173","134440","0.0-6.0-6.23","572","","","","","clear_screen","null","null","","","critical","d","t","c","220.0396","154.6796","240","164","164","240","spektor","0.14","w","240","164","164","240","220.0396","154.6796","39360","39360","34035.6388","td","null","null","null","null","null","null","[2,1]","","",""
"","canvas-keyboard-response","174","134641","0.0-6.0-0.24","572","","","","","pre trial waiting period","null","null","","","critical","c","d","t","240","164","162.6685","237.1485","164","240","spektor","0.02","h","164","240","240","164","162.6685","237.1485","39360","39360","38576.5967","td","null","null","null","null","null","null","[3,2]","541.8943706622999","99.47398501539534","478.4930539429392"
"","canvas-keyboard-response","175","134663","0.0-6.0-1.24","572","","","","","clear_screen","null","null","","","critical","c","d","t","240","164","162.6685","237.1485","164","240","spektor","0.02","h","164","240","240","164","162.6685","237.1485","39360","39360","38576.5967","td","null","null","null","null","null","null","[3,2]","541.8943706622999","99.47398501539534","478.4930539429392"
"","canvas-keyboard-response","176","135168","0.0-6.0-2.24","572","","","","","rectangles no change","null","null","","","critical","c","d","t","240","164","162.6685","237.1485","164","240","spektor","0.02","h","164","240","240","164","162.6685","237.1485","39360","39360","38576.5967","td","null","null","null","null","null","null","[3,2]","541.8943706622999","99.47398501539534","478.4930539429392"
"","canvas-keyboard-response","177","136507","0.0-6.0-3.24","572","","","","","rectangles with change","null","null","","","critical","c","d","t","240","164","162.6685","237.1485","164","240","spektor","0.02","h","164","240","240","164","162.6685","237.1485","39360","39360","38576.5967","td","null","null","null","null","null","null","[3,2]","541.8943706622999","99.47398501539534","478.4930539429392"
"","canvas-keyboard-response","178","136527","0.0-6.0-4.24","572","","","","","clear_screen","null","null","","","critical","c","d","t","240","164","162.6685","237.1485","164","240","spektor","0.02","h","164","240","240","164","162.6685","237.1485","39360","39360","38576.5967","td","null","null","null","null","null","null","[3,2]","541.8943706622999","99.47398501539534","478.4930539429392"
"","canvas-keyboard-response","179","136794","0.0-6.0-5.24","572","","","","","make choice","261","2","","","critical","c","d","t","240","164","162.6685","237.1485","164","240","spektor","0.02","h","164","240","240","164","162.6685","237.1485","39360","39360","38576.5967","td","null","null","null","null","null","null","[3,2]","","",""
"","canvas-keyboard-response","180","136812","0.0-6.0-6.24","572","","","","","clear_screen","null","null","","","critical","c","d","t","240","164","162.6685","237.1485","164","240","spektor","0.02","h","164","240","240","164","162.6685","237.1485","39360","39360","38576.5967","td","null","null","null","null","null","null","[3,2]","","",""
"","canvas-keyboard-response","181","137012","0.0-6.0-0.25","572","","","","","pre trial waiting period","null","null","","","critical","t","c","d","240","164","164","240","232.8713","160.6713","spektor","0.05","w","240","164","164","240","232.8713","160.6713","39360","39360","37415.7294","td","null","null","null","null","null","null","[1,3]","506.92596731645256","155.8173409999719","509.5738948458144"
"","canvas-keyboard-response","182","137035","0.0-6.0-1.25","572","","","","","clear_screen","null","null","","","critical","t","c","d","240","164","164","240","232.8713","160.6713","spektor","0.05","w","240","164","164","240","232.8713","160.6713","39360","39360","37415.7294","td","null","null","null","null","null","null","[1,3]","506.92596731645256","155.8173409999719","509.5738948458144"
"","canvas-keyboard-response","183","137548","0.0-6.0-2.25","572","","","","","rectangles no change","null","null","","","critical","t","c","d","240","164","164","240","232.8713","160.6713","spektor","0.05","w","240","164","164","240","232.8713","160.6713","39360","39360","37415.7294","td","null","null","null","null","null","null","[1,3]","506.92596731645256","155.8173409999719","509.5738948458144"
"","canvas-keyboard-response","184","138888","0.0-6.0-3.25","572","","","","","rectangles with change","null","null","","","critical","t","c","d","240","164","164","240","232.8713","160.6713","spektor","0.05","w","240","164","164","240","232.8713","160.6713","39360","39360","37415.7294","td","null","null","null","null","null","null","[1,3]","506.92596731645256","155.8173409999719","509.5738948458144"
"","canvas-keyboard-response","185","138909","0.0-6.0-4.25","572","","","","","clear_screen","null","null","","","critical","t","c","d","240","164","164","240","232.8713","160.6713","spektor","0.05","w","240","164","164","240","232.8713","160.6713","39360","39360","37415.7294","td","null","null","null","null","null","null","[1,3]","506.92596731645256","155.8173409999719","509.5738948458144"
"","canvas-keyboard-response","186","139306","0.0-6.0-5.25","572","","","","","make choice","393","3","","","critical","t","c","d","240","164","164","240","232.8713","160.6713","spektor","0.05","w","240","164","164","240","232.8713","160.6713","39360","39360","37415.7294","td","null","null","null","null","null","null","[1,3]","","",""
"","canvas-keyboard-response","187","139325","0.0-6.0-6.25","572","","","","","clear_screen","null","null","","","critical","t","c","d","240","164","164","240","232.8713","160.6713","spektor","0.05","w","240","164","164","240","232.8713","160.6713","39360","39360","37415.7294","td","null","null","null","null","null","null","[1,3]","","",""
"","canvas-keyboard-response","188","139527","0.0-6.0-0.26","572","","","","","pre trial waiting period","null","null","","","catch","l","sw","sh","217","269","206","218","165","145","spektor","null","null","null","null","null","null","null","null","null","null","null","","180","200","260","200","36000","52000","[1,3]","477.792620414648","137.60826935530503","530.1126868856102"
"","canvas-keyboard-response","189","139547","0.0-6.0-1.26","572","","","","","clear_screen","null","null","","","catch","l","sw","sh","217","269","206","218","165","145","spektor","null","null","null","null","null","null","null","null","null","null","null","","180","200","260","200","36000","52000","[1,3]","477.792620414648","137.60826935530503","530.1126868856102"
"","canvas-keyboard-response","190","140052","0.0-6.0-2.26","572","","","","","rectangles no change","null","null","","","catch","l","sw","sh","217","269","206","218","165","145","spektor","null","null","null","null","null","null","null","null","null","null","null","","180","200","260","200","36000","52000","[1,3]","477.792620414648","137.60826935530503","530.1126868856102"
"","canvas-keyboard-response","191","141390","0.0-6.0-3.26","572","","","","","rectangles with change","null","null","","","catch","l","sw","sh","217","269","206","218","165","145","spektor","null","null","null","null","null","null","null","null","null","null","null","","180","200","260","200","36000","52000","[1,3]","477.792620414648","137.60826935530503","530.1126868856102"
"","canvas-keyboard-response","192","141412","0.0-6.0-4.26","572","","","","","clear_screen","null","null","","","catch","l","sw","sh","217","269","206","218","165","145","spektor","null","null","null","null","null","null","null","null","null","null","null","","180","200","260","200","36000","52000","[1,3]","477.792620414648","137.60826935530503","530.1126868856102"
"","canvas-keyboard-response","193","141698","0.0-6.0-5.26","572","","","","","make choice","282","1","","","catch","l","sw","sh","217","269","206","218","165","145","spektor","null","null","null","null","null","null","null","null","null","null","null","","180","200","260","200","36000","52000","[1,3]","","",""
"","canvas-keyboard-response","194","141717","0.0-6.0-6.26","572","","","","","clear_screen","null","null","","","catch","l","sw","sh","217","269","206","218","165","145","spektor","null","null","null","null","null","null","null","null","null","null","null","","180","200","260","200","36000","52000","[1,3]","","",""
"","canvas-keyboard-response","195","141919","0.0-6.0-0.27","572","","","","","pre trial waiting period","null","null","","","catch","sw","sh","l","180","200","199","212","242","172","trueblood","null","null","null","null","null","null","null","null","null","null","null","","180","200","260","200","36000","52000","[2,3]","482.166073060437","462.41080726550837","502.5592279492093"
"","canvas-keyboard-response","196","141939","0.0-6.0-1.27","572","","","","","clear_screen","null","null","","","catch","sw","sh","l","180","200","199","212","242","172","trueblood","null","null","null","null","null","null","null","null","null","null","null","","180","200","260","200","36000","52000","[2,3]","482.166073060437","462.41080726550837","502.5592279492093"
"","canvas-keyboard-response","197","142446","0.0-6.0-2.27","572","","","","","rectangles no change","null","null","","","catch","sw","sh","l","180","200","199","212","242","172","trueblood","null","null","null","null","null","null","null","null","null","null","null","","180","200","260","200","36000","52000","[2,3]","482.166073060437","462.41080726550837","502.5592279492093"
"","canvas-keyboard-response","198","143787","0.0-6.0-3.27","572","","","","","rectangles with change","null","null","","","catch","sw","sh","l","180","200","199","212","242","172","trueblood","null","null","null","null","null","null","null","null","null","null","null","","180","200","260","200","36000","52000","[2,3]","482.166073060437","462.41080726550837","502.5592279492093"
"","canvas-keyboard-response","199","143808","0.0-6.0-4.27","572","","","","","clear_screen","null","null","","","catch","sw","sh","l","180","200","199","212","242","172","trueblood","null","null","null","null","null","null","null","null","null","null","null","","180","200","260","200","36000","52000","[2,3]","482.166073060437","462.41080726550837","502.5592279492093"
"","canvas-keyboard-response","200","144066","0.0-6.0-5.27","572","","","","","make choice","253","3","","","catch","sw","sh","l","180","200","199","212","242","172","trueblood","null","null","null","null","null","null","null","null","null","null","null","","180","200","260","200","36000","52000","[2,3]","","",""
"","canvas-keyboard-response","201","144084","0.0-6.0-6.27","572","","","","","clear_screen","null","null","","","catch","sw","sh","l","180","200","199","212","242","172","trueblood","null","null","null","null","null","null","null","null","null","null","null","","180","200","260","200","36000","52000","[2,3]","","",""
"","canvas-keyboard-response","202","144286","0.0-6.0-0.28","572","","","","","pre trial waiting period","null","null","","","catch","sw","sh","l","180","200","184","188","216","243","spektor","null","null","null","null","null","null","null","null","null","null","null","","180","200","260","200","36000","52000","[1,3]","504.1227130986698","160.77027884730774","501.8210978622444"
"","canvas-keyboard-response","203","144306","0.0-6.0-1.28","572","","","","","clear_screen","null","null","","","catch","sw","sh","l","180","200","184","188","216","243","spektor","null","null","null","null","null","null","null","null","null","null","null","","180","200","260","200","36000","52000","[1,3]","504.1227130986698","160.77027884730774","501.8210978622444"
"","canvas-keyboard-response","204","144815","0.0-6.0-2.28","572","","","","","rectangles no change","null","null","","","catch","sw","sh","l","180","200","184","188","216","243","spektor","null","null","null","null","null","null","null","null","null","null","null","","180","200","260","200","36000","52000","[1,3]","504.1227130986698","160.77027884730774","501.8210978622444"
"","canvas-keyboard-response","205","146150","0.0-6.0-3.28","572","","","","","rectangles with change","null","null","","","catch","sw","sh","l","180","200","184","188","216","243","spektor","null","null","null","null","null","null","null","null","null","null","null","","180","200","260","200","36000","52000","[1,3]","504.1227130986698","160.77027884730774","501.8210978622444"
"","canvas-keyboard-response","206","146169","0.0-6.0-4.28","572","","","","","clear_screen","null","null","","","catch","sw","sh","l","180","200","184","188","216","243","spektor","null","null","null","null","null","null","null","null","null","null","null","","180","200","260","200","36000","52000","[1,3]","504.1227130986698","160.77027884730774","501.8210978622444"
"","canvas-keyboard-response","207","146451","0.0-6.0-5.28","572","","","","","make choice","276","3","","","catch","sw","sh","l","180","200","184","188","216","243","spektor","null","null","null","null","null","null","null","null","null","null","null","","180","200","260","200","36000","52000","[1,3]","","",""
"","canvas-keyboard-response","208","146469","0.0-6.0-6.28","572","","","","","clear_screen","null","null","","","catch","sw","sh","l","180","200","184","188","216","243","spektor","null","null","null","null","null","null","null","null","null","null","null","","180","200","260","200","36000","52000","[1,3]","","",""
"","canvas-keyboard-response","209","146669","0.0-6.0-0.29","572","","","","","pre trial waiting period","null","null","","","critical","t","d","c","240","164","227.1683","158.0083","164","240","trueblood","0.09","w","240","164","164","240","227.1683","158.0083","39360","39360","35894.4834","dc","null","null","null","null","null","null","[2,3]","485.6098775936696","484.21061047993953","467.13910703067273"
"","canvas-keyboard-response","210","146693","0.0-6.0-1.29","572","","","","","clear_screen","null","null","","","critical","t","d","c","240","164","227.1683","158.0083","164","240","trueblood","0.09","w","240","164","164","240","227.1683","158.0083","39360","39360","35894.4834","dc","null","null","null","null","null","null","[2,3]","485.6098775936696","484.21061047993953","467.13910703067273"
"","canvas-keyboard-response","211","147208","0.0-6.0-2.29","572","","","","","rectangles no change","null","null","","","critical","t","d","c","240","164","227.1683","158.0083","164","240","trueblood","0.09","w","240","164","164","240","227.1683","158.0083","39360","39360","35894.4834","dc","null","null","null","null","null","null","[2,3]","485.6098775936696","484.21061047993953","467.13910703067273"
"","canvas-keyboard-response","212","148544","0.0-6.0-3.29","572","","","","","rectangles with change","null","null","","","critical","t","d","c","240","164","227.1683","158.0083","164","240","trueblood","0.09","w","240","164","164","240","227.1683","158.0083","39360","39360","35894.4834","dc","null","null","null","null","null","null","[2,3]","485.6098775936696","484.21061047993953","467.13910703067273"
"","canvas-keyboard-response","213","148558","0.0-6.0-4.29","572","","","","","clear_screen","null","null","","","critical","t","d","c","240","164","227.1683","158.0083","164","240","trueblood","0.09","w","240","164","164","240","227.1683","158.0083","39360","39360","35894.4834","dc","null","null","null","null","null","null","[2,3]","485.6098775936696","484.21061047993953","467.13910703067273"
"","canvas-keyboard-response","214","148731","0.0-6.0-5.29","572","","","","","make choice","166","3","","","critical","t","d","c","240","164","227.1683","158.0083","164","240","trueblood","0.09","w","240","164","164","240","227.1683","158.0083","39360","39360","35894.4834","dc","null","null","null","null","null","null","[2,3]","","",""
"","canvas-keyboard-response","215","148751","0.0-6.0-6.29","572","","","","","clear_screen","null","null","","","critical","t","d","c","240","164","227.1683","158.0083","164","240","trueblood","0.09","w","240","164","164","240","227.1683","158.0083","39360","39360","35894.4834","dc","null","null","null","null","null","null","[2,3]","","",""
"","canvas-keyboard-response","216","148952","0.0-6.0-0.30","572","","","","","pre trial waiting period","null","null","","","critical","d","c","t","232.8713","160.6713","164","240","240","164","trueblood","0.05","w","240","164","164","240","232.8713","160.6713","39360","39360","37415.7294","dc","null","null","null","null","null","null","[1,2]","500.45674718185495","453.7746264728597","490.435900811495"
"","canvas-keyboard-response","217","148975","0.0-6.0-1.30","572","","","","","clear_screen","null","null","","","critical","d","c","t","232.8713","160.6713","164","240","240","164","trueblood","0.05","w","240","164","164","240","232.8713","160.6713","39360","39360","37415.7294","dc","null","null","null","null","null","null","[1,2]","500.45674718185495","453.7746264728597","490.435900811495"
"","canvas-keyboard-response","218","149481","0.0-6.0-2.30","572","","","","","rectangles no change","null","null","","","critical","d","c","t","232.8713","160.6713","164","240","240","164","trueblood","0.05","w","240","164","164","240","232.8713","160.6713","39360","39360","37415.7294","dc","null","null","null","null","null","null","[1,2]","500.45674718185495","453.7746264728597","490.435900811495"
"","canvas-keyboard-response","219","150817","0.0-6.0-3.30","572","","","","","rectangles with change","null","null","","","critical","d","c","t","232.8713","160.6713","164","240","240","164","trueblood","0.05","w","240","164","164","240","232.8713","160.6713","39360","39360","37415.7294","dc","null","null","null","null","null","null","[1,2]","500.45674718185495","453.7746264728597","490.435900811495"
"","canvas-keyboard-response","220","150840","0.0-6.0-4.30","572","","","","","clear_screen","null","null","","","critical","d","c","t","232.8713","160.6713","164","240","240","164","trueblood","0.05","w","240","164","164","240","232.8713","160.6713","39360","39360","37415.7294","dc","null","null","null","null","null","null","[1,2]","500.45674718185495","453.7746264728597","490.435900811495"
"","canvas-keyboard-response","221","151218","0.0-6.0-5.30","572","","","","","make choice","372","2","","","critical","d","c","t","232.8713","160.6713","164","240","240","164","trueblood","0.05","w","240","164","164","240","232.8713","160.6713","39360","39360","37415.7294","dc","null","null","null","null","null","null","[1,2]","","",""
"","canvas-keyboard-response","222","151239","0.0-6.0-6.30","572","","","","","clear_screen","null","null","","","critical","d","c","t","232.8713","160.6713","164","240","240","164","trueblood","0.05","w","240","164","164","240","232.8713","160.6713","39360","39360","37415.7294","dc","null","null","null","null","null","null","[1,2]","","",""
"","canvas-keyboard-response","223","151442","0.0-6.0-0.31","572","","","","","pre trial waiting period","null","null","","","catch","l","sw","sh","229","241","183","192","172","156","trueblood","null","null","null","null","null","null","null","null","null","null","null","","180","200","260","200","36000","52000","[1,3]","465.8617573846857","492.73083149249396","516.1643634851123"
"","canvas-keyboard-response","224","151464","0.0-6.0-1.31","572","","","","","clear_screen","null","null","","","catch","l","sw","sh","229","241","183","192","172","156","trueblood","null","null","null","null","null","null","null","null","null","null","null","","180","200","260","200","36000","52000","[1,3]","465.8617573846857","492.73083149249396","516.1643634851123"
"","canvas-keyboard-response","225","151970","0.0-6.0-2.31","572","","","","","rectangles no change","null","null","","","catch","l","sw","sh","229","241","183","192","172","156","trueblood","null","null","null","null","null","null","null","null","null","null","null","","180","200","260","200","36000","52000","[1,3]","465.8617573846857","492.73083149249396","516.1643634851123"
"","canvas-keyboard-response","226","153305","0.0-6.0-3.31","572","","","","","rectangles with change","null","null","","","catch","l","sw","sh","229","241","183","192","172","156","trueblood","null","null","null","null","null","null","null","null","null","null","null","","180","200","260","200","36000","52000","[1,3]","465.8617573846857","492.73083149249396","516.1643634851123"
"","canvas-keyboard-response","227","153325","0.0-6.0-4.31","572","","","","","clear_screen","null","null","","","catch","l","sw","sh","229","241","183","192","172","156","trueblood","null","null","null","null","null","null","null","null","null","null","null","","180","200","260","200","36000","52000","[1,3]","465.8617573846857","492.73083149249396","516.1643634851123"
"","canvas-keyboard-response","228","153507","0.0-6.0-5.31","572","","","","","make choice","176","1","","","catch","l","sw","sh","229","241","183","192","172","156","trueblood","null","null","null","null","null","null","null","null","null","null","null","","180","200","260","200","36000","52000","[1,3]","","",""
"","canvas-keyboard-response","229","153526","0.0-6.0-6.31","572","","","","","clear_screen","null","null","","","catch","l","sw","sh","229","241","183","192","172","156","trueblood","null","null","null","null","null","null","null","null","null","null","null","","180","200","260","200","36000","52000","[1,3]","","",""
"","canvas-keyboard-response","230","153726","0.0-6.0-0.32","572","","","","","pre trial waiting period","null","null","","","critical","t","d","c","164","240","154.6796","220.0396","240","164","trueblood","0.14","h","164","240","240","164","154.6796","220.0396","39360","39360","34035.6388","dc","null","null","null","null","null","null","[2,3]","454.42661752554596","460.50132720784814","485.0052762507201"
"","canvas-keyboard-response","231","153750","0.0-6.0-1.32","572","","","","","clear_screen","null","null","","","critical","t","d","c","164","240","154.6796","220.0396","240","164","trueblood","0.14","h","164","240","240","164","154.6796","220.0396","39360","39360","34035.6388","dc","null","null","null","null","null","null","[2,3]","454.42661752554596","460.50132720784814","485.0052762507201"
"","canvas-keyboard-response","232","154255","0.0-6.0-2.32","572","","","","","rectangles no change","null","null","","","critical","t","d","c","164","240","154.6796","220.0396","240","164","trueblood","0.14","h","164","240","240","164","154.6796","220.0396","39360","39360","34035.6388","dc","null","null","null","null","null","null","[2,3]","454.42661752554596","460.50132720784814","485.0052762507201"
"","canvas-keyboard-response","233","155589","0.0-6.0-3.32","572","","","","","rectangles with change","null","null","","","critical","t","d","c","164","240","154.6796","220.0396","240","164","trueblood","0.14","h","164","240","240","164","154.6796","220.0396","39360","39360","34035.6388","dc","null","null","null","null","null","null","[2,3]","454.42661752554596","460.50132720784814","485.0052762507201"
"","canvas-keyboard-response","234","155603","0.0-6.0-4.32","572","","","","","clear_screen","null","null","","","critical","t","d","c","164","240","154.6796","220.0396","240","164","trueblood","0.14","h","164","240","240","164","154.6796","220.0396","39360","39360","34035.6388","dc","null","null","null","null","null","null","[2,3]","454.42661752554596","460.50132720784814","485.0052762507201"
"","canvas-keyboard-response","235","155890","0.0-6.0-5.32","572","","","","","make choice","278","3","","","critical","t","d","c","164","240","154.6796","220.0396","240","164","trueblood","0.14","h","164","240","240","164","154.6796","220.0396","39360","39360","34035.6388","dc","null","null","null","null","null","null","[2,3]","","",""
"","canvas-keyboard-response","236","155910","0.0-6.0-6.32","572","","","","","clear_screen","null","null","","","critical","t","d","c","164","240","154.6796","220.0396","240","164","trueblood","0.14","h","164","240","240","164","154.6796","220.0396","39360","39360","34035.6388","dc","null","null","null","null","null","null","[2,3]","","",""
"","canvas-keyboard-response","237","156111","0.0-6.0-0.33","572","","","","","pre trial waiting period","null","null","","","critical","c","t","d","240","164","164","240","162.6685","237.1485","spektor","0.02","h","164","240","240","164","162.6685","237.1485","39360","39360","38576.5967","dc","null","null","null","null","null","null","[3,1]","540.2560655114524","115.5170628479889","465.3627954290018"
"","canvas-keyboard-response","238","156130","0.0-6.0-1.33","572","","","","","clear_screen","null","null","","","critical","c","t","d","240","164","164","240","162.6685","237.1485","spektor","0.02","h","164","240","240","164","162.6685","237.1485","39360","39360","38576.5967","dc","null","null","null","null","null","null","[3,1]","540.2560655114524","115.5170628479889","465.3627954290018"
"","canvas-keyboard-response","239","156638","0.0-6.0-2.33","572","","","","","rectangles no change","null","null","","","critical","c","t","d","240","164","164","240","162.6685","237.1485","spektor","0.02","h","164","240","240","164","162.6685","237.1485","39360","39360","38576.5967","dc","null","null","null","null","null","null","[3,1]","540.2560655114524","115.5170628479889","465.3627954290018"
"","canvas-keyboard-response","240","157974","0.0-6.0-3.33","572","","","","","rectangles with change","null","null","","","critical","c","t","d","240","164","164","240","162.6685","237.1485","spektor","0.02","h","164","240","240","164","162.6685","237.1485","39360","39360","38576.5967","dc","null","null","null","null","null","null","[3,1]","540.2560655114524","115.5170628479889","465.3627954290018"
"","canvas-keyboard-response","241","157993","0.0-6.0-4.33","572","","","","","clear_screen","null","null","","","critical","c","t","d","240","164","164","240","162.6685","237.1485","spektor","0.02","h","164","240","240","164","162.6685","237.1485","39360","39360","38576.5967","dc","null","null","null","null","null","null","[3,1]","540.2560655114524","115.5170628479889","465.3627954290018"
"","canvas-keyboard-response","242","158275","0.0-6.0-5.33","572","","","","","make choice","275","1","","","critical","c","t","d","240","164","164","240","162.6685","237.1485","spektor","0.02","h","164","240","240","164","162.6685","237.1485","39360","39360","38576.5967","dc","null","null","null","null","null","null","[3,1]","","",""
"","canvas-keyboard-response","243","158292","0.0-6.0-6.33","572","","","","","clear_screen","null","null","","","critical","c","t","d","240","164","164","240","162.6685","237.1485","spektor","0.02","h","164","240","240","164","162.6685","237.1485","39360","39360","38576.5967","dc","null","null","null","null","null","null","[3,1]","","",""
"","canvas-keyboard-response","244","158494","0.0-6.0-0.34","572","","","","","pre trial waiting period","null","null","","","critical","t","d","c","164","240","162.6685","237.1485","240","164","trueblood","0.02","h","164","240","240","164","162.6685","237.1485","39360","39360","38576.5967","td","null","null","null","null","null","null","[1,2]","430.2724166473032","430.5905031319848","488.21984424641414"
"","canvas-keyboard-response","245","158513","0.0-6.0-1.34","572","","","","","clear_screen","null","null","","","critical","t","d","c","164","240","162.6685","237.1485","240","164","trueblood","0.02","h","164","240","240","164","162.6685","237.1485","39360","39360","38576.5967","td","null","null","null","null","null","null","[1,2]","430.2724166473032","430.5905031319848","488.21984424641414"
"","canvas-keyboard-response","246","159019","0.0-6.0-2.34","572","","","","","rectangles no change","null","null","","","critical","t","d","c","164","240","162.6685","237.1485","240","164","trueblood","0.02","h","164","240","240","164","162.6685","237.1485","39360","39360","38576.5967","td","null","null","null","null","null","null","[1,2]","430.2724166473032","430.5905031319848","488.21984424641414"
"","canvas-keyboard-response","247","160356","0.0-6.0-3.34","572","","","","","rectangles with change","null","null","","","critical","t","d","c","164","240","162.6685","237.1485","240","164","trueblood","0.02","h","164","240","240","164","162.6685","237.1485","39360","39360","38576.5967","td","null","null","null","null","null","null","[1,2]","430.2724166473032","430.5905031319848","488.21984424641414"
"","canvas-keyboard-response","248","160374","0.0-6.0-4.34","572","","","","","clear_screen","null","null","","","critical","t","d","c","164","240","162.6685","237.1485","240","164","trueblood","0.02","h","164","240","240","164","162.6685","237.1485","39360","39360","38576.5967","td","null","null","null","null","null","null","[1,2]","430.2724166473032","430.5905031319848","488.21984424641414"
"","canvas-keyboard-response","249","161034","0.0-6.0-5.34","572","","","","","make choice","655","1","","","critical","t","d","c","164","240","162.6685","237.1485","240","164","trueblood","0.02","h","164","240","240","164","162.6685","237.1485","39360","39360","38576.5967","td","null","null","null","null","null","null","[1,2]","","",""
"","canvas-keyboard-response","250","161053","0.0-6.0-6.34","572","","","","","clear_screen","null","null","","","critical","t","d","c","164","240","162.6685","237.1485","240","164","trueblood","0.02","h","164","240","240","164","162.6685","237.1485","39360","39360","38576.5967","td","null","null","null","null","null","null","[1,2]","","",""
"","canvas-keyboard-response","251","161254","0.0-6.0-0.35","572","","","","","pre trial waiting period","null","null","","","catch","sh","sw","l","211","160","181","182","203","273","trueblood","null","null","null","null","null","null","null","null","null","null","null","","180","200","260","200","36000","52000","[2,3]","474.86845692404154","471.8296320554701","426.80916419633036"
"","canvas-keyboard-response","252","161276","0.0-6.0-1.35","572","","","","","clear_screen","null","null","","","catch","sh","sw","l","211","160","181","182","203","273","trueblood","null","null","null","null","null","null","null","null","null","null","null","","180","200","260","200","36000","52000","[2,3]","474.86845692404154","471.8296320554701","426.80916419633036"
"","canvas-keyboard-response","253","161785","0.0-6.0-2.35","572","","","","","rectangles no change","null","null","","","catch","sh","sw","l","211","160","181","182","203","273","trueblood","null","null","null","null","null","null","null","null","null","null","null","","180","200","260","200","36000","52000","[2,3]","474.86845692404154","471.8296320554701","426.80916419633036"
"","canvas-keyboard-response","254","163119","0.0-6.0-3.35","572","","","","","rectangles with change","null","null","","","catch","sh","sw","l","211","160","181","182","203","273","trueblood","null","null","null","null","null","null","null","null","null","null","null","","180","200","260","200","36000","52000","[2,3]","474.86845692404154","471.8296320554701","426.80916419633036"
"","canvas-keyboard-response","255","163141","0.0-6.0-4.35","572","","","","","clear_screen","null","null","","","catch","sh","sw","l","211","160","181","182","203","273","trueblood","null","null","null","null","null","null","null","null","null","null","null","","180","200","260","200","36000","52000","[2,3]","474.86845692404154","471.8296320554701","426.80916419633036"
"","canvas-keyboard-response","256","163243","0.0-6.0-5.35","572","","","","","make choice","95","3","","","catch","sh","sw","l","211","160","181","182","203","273","trueblood","null","null","null","null","null","null","null","null","null","null","null","","180","200","260","200","36000","52000","[2,3]","","",""
"","canvas-keyboard-response","257","163263","0.0-6.0-6.35","572","","","","","clear_screen","null","null","","","catch","sh","sw","l","211","160","181","182","203","273","trueblood","null","null","null","null","null","null","null","null","null","null","null","","180","200","260","200","36000","52000","[2,3]","","",""
"","canvas-keyboard-response","258","163463","0.0-6.0-0.36","572","","","","","pre trial waiting period","null","null","","","catch","l","sh","sw","207","256","237","188","150","188","spektor","null","null","null","null","null","null","null","null","null","null","null","","180","200","260","200","36000","52000","[1,3]","478.5130788011128","175.78868629317685","518.7722498156787"
"","canvas-keyboard-response","259","163484","0.0-6.0-1.36","572","","","","","clear_screen","null","null","","","catch","l","sh","sw","207","256","237","188","150","188","spektor","null","null","null","null","null","null","null","null","null","null","null","","180","200","260","200","36000","52000","[1,3]","478.5130788011128","175.78868629317685","518.7722498156787"
"","canvas-keyboard-response","260","163993","0.0-6.0-2.36","572","","","","","rectangles no change","null","null","","","catch","l","sh","sw","207","256","237","188","150","188","spektor","null","null","null","null","null","null","null","null","null","null","null","","180","200","260","200","36000","52000","[1,3]","478.5130788011128","175.78868629317685","518.7722498156787"
"","canvas-keyboard-response","261","165329","0.0-6.0-3.36","572","","","","","rectangles with change","null","null","","","catch","l","sh","sw","207","256","237","188","150","188","spektor","null","null","null","null","null","null","null","null","null","null","null","","180","200","260","200","36000","52000","[1,3]","478.5130788011128","175.78868629317685","518.7722498156787"
"","canvas-keyboard-response","262","165348","0.0-6.0-4.36","572","","","","","clear_screen","null","null","","","catch","l","sh","sw","207","256","237","188","150","188","spektor","null","null","null","null","null","null","null","null","null","null","null","","180","200","260","200","36000","52000","[1,3]","478.5130788011128","175.78868629317685","518.7722498156787"
"","canvas-keyboard-response","263","165595","0.0-6.0-5.36","572","","","","","make choice","240","1","","","catch","l","sh","sw","207","256","237","188","150","188","spektor","null","null","null","null","null","null","null","null","null","null","null","","180","200","260","200","36000","52000","[1,3]","","",""
"","canvas-keyboard-response","264","165616","0.0-6.0-6.36","572","","","","","clear_screen","null","null","","","catch","l","sh","sw","207","256","237","188","150","188","spektor","null","null","null","null","null","null","null","null","null","null","null","","180","200","260","200","36000","52000","[1,3]","","",""
"","canvas-keyboard-response","265","165817","0.0-6.0-0.37","572","","","","","pre trial waiting period","null","null","","","catch","sw","sh","l","180","200","210","181","191","255","spektor","null","null","null","null","null","null","null","null","null","null","null","","180","200","260","200","36000","52000","[1,3]","524.4131784252837","153.44732360370824","462.77926571906863"
"","canvas-keyboard-response","266","165837","0.0-6.0-1.37","572","","","","","clear_screen","null","null","","","catch","sw","sh","l","180","200","210","181","191","255","spektor","null","null","null","null","null","null","null","null","null","null","null","","180","200","260","200","36000","52000","[1,3]","524.4131784252837","153.44732360370824","462.77926571906863"
