"success","trial_type","trial_index","time_elapsed","internal_node_id","sub_n","timeout","failed_images","failed_audio","failed_video","screen_id","rt","response","stimulus","view_history","trial","r1","r2","r3","w1","h1","w2","h2","w3","h3","display","tdd","tdo","tw","th","cw","ch","dw","dh","ta","ca","da","probe","csls","csss","clls","clss","sa","la","probe_rects","r1yloc","r2yloc","r3yloc"
"true","fullscreen","0","4082","0.0-0.0","513","","","","","","","","","","","","","","","","","","","","","","","","","","","","","","","","","","","","","","","","","",""
"true","preload","1","4120","0.0-1.0","513","false","[]","[]","[]","img preload","","","","","","","","","","","","","","","","","","","","","","","","","","","","","","","","","","","","",""
"","survey-html-form","2","23327","0.0-2.0","513","","","","","enter-sub-number","19191","{""response"":""513""}","","","","","","","","","","","","","","","","","","","","","","","","","","","","","","","","","","",""
"","image-button-response","3","28576","0.0-3.0","513","","","","","","5146","0","consent.png","","","","","","","","","","","","","","","","","","","","","","","","","","","","","","","","","",""
"","html-button-response","4","44585","0.0-4.0","513","","","","","intro mssg","16003","0","<div style= ""font-size:25px;"" <p> <strong> Welcome! </strong><br> <p style=""color:#8B0000; font-size:25px;""><strong> Please do NOT exit full screen until you are done with the experiment. </strong> </p><p style=""font-size:25px;color:#8B0000;""> <strong> Your data will be lost <br> if you try to go back or refresh the page after the experiment starts. Feel free to click ""previous"" during the instructions, however.</strong> </p><br><p> <strong> Thanks in advance for your contribution to our research! </strong></p>","","","","","","","","","","","","","","","","","","","","","","","","","","","","","","","","","",""
"","instructions","5","110960","0.0-5.0","513","","","","","instructions","66370","","","[{""page_index"":0,""viewing_time"":9898},{""page_index"":1,""viewing_time"":11000},{""page_index"":2,""viewing_time"":5000},{""page_index"":3,""viewing_time"":18960},{""page_index"":4,""viewing_time"":7936},{""page_index"":5,""viewing_time"":4391},{""page_index"":6,""viewing_time"":6976},{""page_index"":7,""viewing_time"":2208}]","","","","","","","","","","","","","","","","","","","","","","","","","","","","","","","","",""
"","canvas-keyboard-response","6","111166","0.0-6.0-0.0","513","","","","","pre trial waiting period","null","null","","","critical","d","c","t","154.6796","220.0396","240","164","164","240","spektor","0.14","h","164","240","240","164","154.6796","220.0396","39360","39360","34035.6388","tc","null","null","null","null","null","null","[3,2]","486.61465337159706","185.8452404418454","474.961607338626"
"","canvas-keyboard-response","7","111191","0.0-6.0-1.0","513","","","","","clear_screen","null","null","","","critical","d","c","t","154.6796","220.0396","240","164","164","240","spektor","0.14","h","164","240","240","164","154.6796","220.0396","39360","39360","34035.6388","tc","null","null","null","null","null","null","[3,2]","486.61465337159706","185.8452404418454","474.961607338626"
"","canvas-keyboard-response","8","111712","0.0-6.0-2.0","513","","","","","rectangles no change","null","null","","","critical","d","c","t","154.6796","220.0396","240","164","164","240","spektor","0.14","h","164","240","240","164","154.6796","220.0396","39360","39360","34035.6388","tc","null","null","null","null","null","null","[3,2]","486.61465337159706","185.8452404418454","474.961607338626"
"","canvas-keyboard-response","9","113050","0.0-6.0-3.0","513","","","","","rectangles with change","null","null","","","critical","d","c","t","154.6796","220.0396","240","164","164","240","spektor","0.14","h","164","240","240","164","154.6796","220.0396","39360","39360","34035.6388","tc","null","null","null","null","null","null","[3,2]","486.61465337159706","185.8452404418454","474.961607338626"
"","canvas-keyboard-response","10","113068","0.0-6.0-4.0","513","","","","","clear_screen","null","null","","","critical","d","c","t","154.6796","220.0396","240","164","164","240","spektor","0.14","h","164","240","240","164","154.6796","220.0396","39360","39360","34035.6388","tc","null","null","null","null","null","null","[3,2]","486.61465337159706","185.8452404418454","474.961607338626"
"","canvas-keyboard-response","11","116509","0.0-6.0-5.0","513","","","","","make choice","3430","3","","","critical","d","c","t","154.6796","220.0396","240","164","164","240","spektor","0.14","h","164","240","240","164","154.6796","220.0396","39360","39360","34035.6388","tc","null","null","null","null","null","null","[3,2]","","",""
"","canvas-keyboard-response","12","116528","0.0-6.0-6.0","513","","","","","clear_screen","null","null","","","critical","d","c","t","154.6796","220.0396","240","164","164","240","spektor","0.14","h","164","240","240","164","154.6796","220.0396","39360","39360","34035.6388","tc","null","null","null","null","null","null","[3,2]","","",""
"","canvas-keyboard-response","13","116730","0.0-6.0-0.1","513","","","","","pre trial waiting period","null","null","","","critical","c","d","t","240","164","162.6685","237.1485","164","240","trueblood","0.02","h","164","240","240","164","162.6685","237.1485","39360","39360","38576.5967","td","null","null","null","null","null","null","[3,2]","489.11848409399573","442.81387909405606","434.9500464818196"
"","canvas-keyboard-response","14","116749","0.0-6.0-1.1","513","","","","","clear_screen","null","null","","","critical","c","d","t","240","164","162.6685","237.1485","164","240","trueblood","0.02","h","164","240","240","164","162.6685","237.1485","39360","39360","38576.5967","td","null","null","null","null","null","null","[3,2]","489.11848409399573","442.81387909405606","434.9500464818196"
"","canvas-keyboard-response","15","117261","0.0-6.0-2.1","513","","","","","rectangles no change","null","null","","","critical","c","d","t","240","164","162.6685","237.1485","164","240","trueblood","0.02","h","164","240","240","164","162.6685","237.1485","39360","39360","38576.5967","td","null","null","null","null","null","null","[3,2]","489.11848409399573","442.81387909405606","434.9500464818196"
"","canvas-keyboard-response","16","118596","0.0-6.0-3.1","513","","","","","rectangles with change","null","null","","","critical","c","d","t","240","164","162.6685","237.1485","164","240","trueblood","0.02","h","164","240","240","164","162.6685","237.1485","39360","39360","38576.5967","td","null","null","null","null","null","null","[3,2]","489.11848409399573","442.81387909405606","434.9500464818196"
"","canvas-keyboard-response","17","118615","0.0-6.0-4.1","513","","","","","clear_screen","null","null","","","critical","c","d","t","240","164","162.6685","237.1485","164","240","trueblood","0.02","h","164","240","240","164","162.6685","237.1485","39360","39360","38576.5967","td","null","null","null","null","null","null","[3,2]","489.11848409399573","442.81387909405606","434.9500464818196"
"","canvas-keyboard-response","18","124413","0.0-6.0-5.1","513","","","","","make choice","5782","3","","","critical","c","d","t","240","164","162.6685","237.1485","164","240","trueblood","0.02","h","164","240","240","164","162.6685","237.1485","39360","39360","38576.5967","td","null","null","null","null","null","null","[3,2]","","",""
"","canvas-keyboard-response","19","124432","0.0-6.0-6.1","513","","","","","clear_screen","null","null","","","critical","c","d","t","240","164","162.6685","237.1485","164","240","trueblood","0.02","h","164","240","240","164","162.6685","237.1485","39360","39360","38576.5967","td","null","null","null","null","null","null","[3,2]","","",""
"","canvas-keyboard-response","20","124634","0.0-6.0-0.2","513","","","","","pre trial waiting period","null","null","","","critical","d","t","c","158.0083","227.1683","164","240","240","164","spektor","0.09","h","164","240","240","164","158.0083","227.1683","39360","39360","35894.4834","dc","null","null","null","null","null","null","[1,3]","470.45516916047313","135.46161213638254","531.0500779650429"
"","canvas-keyboard-response","21","124654","0.0-6.0-1.2","513","","","","","clear_screen","null","null","","","critical","d","t","c","158.0083","227.1683","164","240","240","164","spektor","0.09","h","164","240","240","164","158.0083","227.1683","39360","39360","35894.4834","dc","null","null","null","null","null","null","[1,3]","470.45516916047313","135.46161213638254","531.0500779650429"
"","canvas-keyboard-response","22","125167","0.0-6.0-2.2","513","","","","","rectangles no change","null","null","","","critical","d","t","c","158.0083","227.1683","164","240","240","164","spektor","0.09","h","164","240","240","164","158.0083","227.1683","39360","39360","35894.4834","dc","null","null","null","null","null","null","[1,3]","470.45516916047313","135.46161213638254","531.0500779650429"
"","canvas-keyboard-response","23","126503","0.0-6.0-3.2","513","","","","","rectangles with change","null","null","","","critical","d","t","c","158.0083","227.1683","164","240","240","164","spektor","0.09","h","164","240","240","164","158.0083","227.1683","39360","39360","35894.4834","dc","null","null","null","null","null","null","[1,3]","470.45516916047313","135.46161213638254","531.0500779650429"
"","canvas-keyboard-response","24","126522","0.0-6.0-4.2","513","","","","","clear_screen","null","null","","","critical","d","t","c","158.0083","227.1683","164","240","240","164","spektor","0.09","h","164","240","240","164","158.0083","227.1683","39360","39360","35894.4834","dc","null","null","null","null","null","null","[1,3]","470.45516916047313","135.46161213638254","531.0500779650429"
"","canvas-keyboard-response","25","129221","0.0-6.0-5.2","513","","","","","make choice","2689","3","","","critical","d","t","c","158.0083","227.1683","164","240","240","164","spektor","0.09","h","164","240","240","164","158.0083","227.1683","39360","39360","35894.4834","dc","null","null","null","null","null","null","[1,3]","","",""
"","canvas-keyboard-response","26","129241","0.0-6.0-6.2","513","","","","","clear_screen","null","null","","","critical","d","t","c","158.0083","227.1683","164","240","240","164","spektor","0.09","h","164","240","240","164","158.0083","227.1683","39360","39360","35894.4834","dc","null","null","null","null","null","null","[1,3]","","",""
"","canvas-keyboard-response","27","129442","0.0-6.0-0.3","513","","","","","pre trial waiting period","null","null","","","catch","sw","l","sh","180","200","226","216","172","192","spektor","null","null","null","null","null","null","null","null","null","null","null","","180","200","260","200","36000","52000","[1,2]","479.60535371244043","157.74287004840426","497.57819783191263"
"","canvas-keyboard-response","28","129463","0.0-6.0-1.3","513","","","","","clear_screen","null","null","","","catch","sw","l","sh","180","200","226","216","172","192","spektor","null","null","null","null","null","null","null","null","null","null","null","","180","200","260","200","36000","52000","[1,2]","479.60535371244043","157.74287004840426","497.57819783191263"
"","canvas-keyboard-response","29","129973","0.0-6.0-2.3","513","","","","","rectangles no change","null","null","","","catch","sw","l","sh","180","200","226","216","172","192","spektor","null","null","null","null","null","null","null","null","null","null","null","","180","200","260","200","36000","52000","[1,2]","479.60535371244043","157.74287004840426","497.57819783191263"
"","canvas-keyboard-response","30","131309","0.0-6.0-3.3","513","","","","","rectangles with change","null","null","","","catch","sw","l","sh","180","200","226","216","172","192","spektor","null","null","null","null","null","null","null","null","null","null","null","","180","200","260","200","36000","52000","[1,2]","479.60535371244043","157.74287004840426","497.57819783191263"
"","canvas-keyboard-response","31","131328","0.0-6.0-4.3","513","","","","","clear_screen","null","null","","","catch","sw","l","sh","180","200","226","216","172","192","spektor","null","null","null","null","null","null","null","null","null","null","null","","180","200","260","200","36000","52000","[1,2]","479.60535371244043","157.74287004840426","497.57819783191263"
"","canvas-keyboard-response","32","132604","0.0-6.0-5.3","513","","","","","make choice","1270","2","","","catch","sw","l","sh","180","200","226","216","172","192","spektor","null","null","null","null","null","null","null","null","null","null","null","","180","200","260","200","36000","52000","[1,2]","","",""
"","canvas-keyboard-response","33","132624","0.0-6.0-6.3","513","","","","","clear_screen","null","null","","","catch","sw","l","sh","180","200","226","216","172","192","spektor","null","null","null","null","null","null","null","null","null","null","null","","180","200","260","200","36000","52000","[1,2]","","",""
"","canvas-keyboard-response","34","132825","0.0-6.0-0.4","513","","","","","pre trial waiting period","null","null","","","catch","sh","sw","l","200","199","166","211","261","171","spektor","null","null","null","null","null","null","null","null","null","null","null","","180","200","260","200","36000","52000","[2,3]","495.8054371424176","170.87638561492713","514.1373736412424"
"","canvas-keyboard-response","35","132845","0.0-6.0-1.4","513","","","","","clear_screen","null","null","","","catch","sh","sw","l","200","199","166","211","261","171","spektor","null","null","null","null","null","null","null","null","null","null","null","","180","200","260","200","36000","52000","[2,3]","495.8054371424176","170.87638561492713","514.1373736412424"
"","canvas-keyboard-response","36","133356","0.0-6.0-2.4","513","","","","","rectangles no change","null","null","","","catch","sh","sw","l","200","199","166","211","261","171","spektor","null","null","null","null","null","null","null","null","null","null","null","","180","200","260","200","36000","52000","[2,3]","495.8054371424176","170.87638561492713","514.1373736412424"
"","canvas-keyboard-response","37","134692","0.0-6.0-3.4","513","","","","","rectangles with change","null","null","","","catch","sh","sw","l","200","199","166","211","261","171","spektor","null","null","null","null","null","null","null","null","null","null","null","","180","200","260","200","36000","52000","[2,3]","495.8054371424176","170.87638561492713","514.1373736412424"
"","canvas-keyboard-response","38","134710","0.0-6.0-4.4","513","","","","","clear_screen","null","null","","","catch","sh","sw","l","200","199","166","211","261","171","spektor","null","null","null","null","null","null","null","null","null","null","null","","180","200","260","200","36000","52000","[2,3]","495.8054371424176","170.87638561492713","514.1373736412424"
"","canvas-keyboard-response","39","135501","0.0-6.0-5.4","513","","","","","make choice","785","3","","","catch","sh","sw","l","200","199","166","211","261","171","spektor","null","null","null","null","null","null","null","null","null","null","null","","180","200","260","200","36000","52000","[2,3]","","",""
"","canvas-keyboard-response","40","135520","0.0-6.0-6.4","513","","","","","clear_screen","null","null","","","catch","sh","sw","l","200","199","166","211","261","171","spektor","null","null","null","null","null","null","null","null","null","null","null","","180","200","260","200","36000","52000","[2,3]","","",""
"","canvas-keyboard-response","41","135723","0.0-6.0-0.5","513","","","","","pre trial waiting period","null","null","","","catch","l","sh","sw","248","237","180","179","158","205","trueblood","null","null","null","null","null","null","null","null","null","null","null","","180","200","260","200","36000","52000","[1,3]","460.9544546301825","486.3108909089425","470.91609733100483"
"","canvas-keyboard-response","42","135742","0.0-6.0-1.5","513","","","","","clear_screen","null","null","","","catch","l","sh","sw","248","237","180","179","158","205","trueblood","null","null","null","null","null","null","null","null","null","null","null","","180","200","260","200","36000","52000","[1,3]","460.9544546301825","486.3108909089425","470.91609733100483"
"","canvas-keyboard-response","43","136257","0.0-6.0-2.5","513","","","","","rectangles no change","null","null","","","catch","l","sh","sw","248","237","180","179","158","205","trueblood","null","null","null","null","null","null","null","null","null","null","null","","180","200","260","200","36000","52000","[1,3]","460.9544546301825","486.3108909089425","470.91609733100483"
"","canvas-keyboard-response","44","137593","0.0-6.0-3.5","513","","","","","rectangles with change","null","null","","","catch","l","sh","sw","248","237","180","179","158","205","trueblood","null","null","null","null","null","null","null","null","null","null","null","","180","200","260","200","36000","52000","[1,3]","460.9544546301825","486.3108909089425","470.91609733100483"
"","canvas-keyboard-response","45","137611","0.0-6.0-4.5","513","","","","","clear_screen","null","null","","","catch","l","sh","sw","248","237","180","179","158","205","trueblood","null","null","null","null","null","null","null","null","null","null","null","","180","200","260","200","36000","52000","[1,3]","460.9544546301825","486.3108909089425","470.91609733100483"
"","canvas-keyboard-response","46","138844","0.0-6.0-5.5","513","","","","","make choice","1226","1","","","catch","l","sh","sw","248","237","180","179","158","205","trueblood","null","null","null","null","null","null","null","null","null","null","null","","180","200","260","200","36000","52000","[1,3]","","",""
"","canvas-keyboard-response","47","138863","0.0-6.0-6.5","513","","","","","clear_screen","null","null","","","catch","l","sh","sw","248","237","180","179","158","205","trueblood","null","null","null","null","null","null","null","null","null","null","null","","180","200","260","200","36000","52000","[1,3]","","",""
"","canvas-keyboard-response","48","139064","0.0-6.0-0.6","513","","","","","pre trial waiting period","null","null","","","critical","t","d","c","164","240","164","240","240","164","trueblood","0","h","164","240","240","164","164","240","39360","39360","39360","td","null","null","null","null","null","null","[1,2]","466.2089464013831","462.9542981119632","483.4709155605388"
"","canvas-keyboard-response","49","139083","0.0-6.0-1.6","513","","","","","clear_screen","null","null","","","critical","t","d","c","164","240","164","240","240","164","trueblood","0","h","164","240","240","164","164","240","39360","39360","39360","td","null","null","null","null","null","null","[1,2]","466.2089464013831","462.9542981119632","483.4709155605388"
"","canvas-keyboard-response","50","139592","0.0-6.0-2.6","513","","","","","rectangles no change","null","null","","","critical","t","d","c","164","240","164","240","240","164","trueblood","0","h","164","240","240","164","164","240","39360","39360","39360","td","null","null","null","null","null","null","[1,2]","466.2089464013831","462.9542981119632","483.4709155605388"
"","canvas-keyboard-response","51","140928","0.0-6.0-3.6","513","","","","","rectangles with change","null","null","","","critical","t","d","c","164","240","164","240","240","164","trueblood","0","h","164","240","240","164","164","240","39360","39360","39360","td","null","null","null","null","null","null","[1,2]","466.2089464013831","462.9542981119632","483.4709155605388"
"","canvas-keyboard-response","52","140946","0.0-6.0-4.6","513","","","","","clear_screen","null","null","","","critical","t","d","c","164","240","164","240","240","164","trueblood","0","h","164","240","240","164","164","240","39360","39360","39360","td","null","null","null","null","null","null","[1,2]","466.2089464013831","462.9542981119632","483.4709155605388"
"","canvas-keyboard-response","53","142485","0.0-6.0-5.6","513","","","","","make choice","1531","1","","","critical","t","d","c","164","240","164","240","240","164","trueblood","0","h","164","240","240","164","164","240","39360","39360","39360","td","null","null","null","null","null","null","[1,2]","","",""
"","canvas-keyboard-response","54","142503","0.0-6.0-6.6","513","","","","","clear_screen","null","null","","","critical","t","d","c","164","240","164","240","240","164","trueblood","0","h","164","240","240","164","164","240","39360","39360","39360","td","null","null","null","null","null","null","[1,2]","","",""
"","canvas-keyboard-response","55","142705","0.0-6.0-0.7","513","","","","","pre trial waiting period","null","null","","","critical","c","d","t","164","240","232.8713","160.6713","240","164","trueblood","0.05","w","240","164","164","240","232.8713","160.6713","39360","39360","37415.7294","dc","null","null","null","null","null","null","[2,1]","463.338714231652","497.8474662265717","479.6996791900972"
"","canvas-keyboard-response","56","142723","0.0-6.0-1.7","513","","","","","clear_screen","null","null","","","critical","c","d","t","164","240","232.8713","160.6713","240","164","trueblood","0.05","w","240","164","164","240","232.8713","160.6713","39360","39360","37415.7294","dc","null","null","null","null","null","null","[2,1]","463.338714231652","497.8474662265717","479.6996791900972"
"","canvas-keyboard-response","57","143233","0.0-6.0-2.7","513","","","","","rectangles no change","null","null","","","critical","c","d","t","164","240","232.8713","160.6713","240","164","trueblood","0.05","w","240","164","164","240","232.8713","160.6713","39360","39360","37415.7294","dc","null","null","null","null","null","null","[2,1]","463.338714231652","497.8474662265717","479.6996791900972"
"","canvas-keyboard-response","58","144568","0.0-6.0-3.7","513","","","","","rectangles with change","null","null","","","critical","c","d","t","164","240","232.8713","160.6713","240","164","trueblood","0.05","w","240","164","164","240","232.8713","160.6713","39360","39360","37415.7294","dc","null","null","null","null","null","null","[2,1]","463.338714231652","497.8474662265717","479.6996791900972"
"","canvas-keyboard-response","59","144588","0.0-6.0-4.7","513","","","","","clear_screen","null","null","","","critical","c","d","t","164","240","232.8713","160.6713","240","164","trueblood","0.05","w","240","164","164","240","232.8713","160.6713","39360","39360","37415.7294","dc","null","null","null","null","null","null","[2,1]","463.338714231652","497.8474662265717","479.6996791900972"
"","canvas-keyboard-response","60","146349","0.0-6.0-5.7","513","","","","","make choice","1752","2","","","critical","c","d","t","164","240","232.8713","160.6713","240","164","trueblood","0.05","w","240","164","164","240","232.8713","160.6713","39360","39360","37415.7294","dc","null","null","null","null","null","null","[2,1]","","",""
"","canvas-keyboard-response","61","146367","0.0-6.0-6.7","513","","","","","clear_screen","null","null","","","critical","c","d","t","164","240","232.8713","160.6713","240","164","trueblood","0.05","w","240","164","164","240","232.8713","160.6713","39360","39360","37415.7294","dc","null","null","null","null","null","null","[2,1]","","",""
"","canvas-keyboard-response","62","146568","0.0-6.0-0.8","513","","","","","pre trial waiting period","null","null","","","critical","d","t","c","158.0083","227.1683","164","240","240","164","trueblood","0.09","h","164","240","240","164","158.0083","227.1683","39360","39360","35894.4834","tc","null","null","null","null","null","null","[2,3]","463.4045388587851","443.5150810690244","485.34213184691384"
"","canvas-keyboard-response","63","146588","0.0-6.0-1.8","513","","","","","clear_screen","null","null","","","critical","d","t","c","158.0083","227.1683","164","240","240","164","trueblood","0.09","h","164","240","240","164","158.0083","227.1683","39360","39360","35894.4834","tc","null","null","null","null","null","null","[2,3]","463.4045388587851","443.5150810690244","485.34213184691384"
"","canvas-keyboard-response","64","147100","0.0-6.0-2.8","513","","","","","rectangles no change","null","null","","","critical","d","t","c","158.0083","227.1683","164","240","240","164","trueblood","0.09","h","164","240","240","164","158.0083","227.1683","39360","39360","35894.4834","tc","null","null","null","null","null","null","[2,3]","463.4045388587851","443.5150810690244","485.34213184691384"
"","canvas-keyboard-response","65","148435","0.0-6.0-3.8","513","","","","","rectangles with change","null","null","","","critical","d","t","c","158.0083","227.1683","164","240","240","164","trueblood","0.09","h","164","240","240","164","158.0083","227.1683","39360","39360","35894.4834","tc","null","null","null","null","null","null","[2,3]","463.4045388587851","443.5150810690244","485.34213184691384"
"","canvas-keyboard-response","66","148453","0.0-6.0-4.8","513","","","","","clear_screen","null","null","","","critical","d","t","c","158.0083","227.1683","164","240","240","164","trueblood","0.09","h","164","240","240","164","158.0083","227.1683","39360","39360","35894.4834","tc","null","null","null","null","null","null","[2,3]","463.4045388587851","443.5150810690244","485.34213184691384"
"","canvas-keyboard-response","67","150029","0.0-6.0-5.8","513","","","","","make choice","1563","3","","","critical","d","t","c","158.0083","227.1683","164","240","240","164","trueblood","0.09","h","164","240","240","164","158.0083","227.1683","39360","39360","35894.4834","tc","null","null","null","null","null","null","[2,3]","","",""
"","canvas-keyboard-response","68","150047","0.0-6.0-6.8","513","","","","","clear_screen","null","null","","","critical","d","t","c","158.0083","227.1683","164","240","240","164","trueblood","0.09","h","164","240","240","164","158.0083","227.1683","39360","39360","35894.4834","tc","null","null","null","null","null","null","[2,3]","","",""
"","canvas-keyboard-response","69","150248","0.0-6.0-0.9","513","","","","","pre trial waiting period","null","null","","","critical","c","t","d","164","240","240","164","227.1683","158.0083","trueblood","0.09","w","240","164","164","240","227.1683","158.0083","39360","39360","35894.4834","dc","null","null","null","null","null","null","[3,1]","428.57525366810705","506.02012645697636","517.245873783222"
"","canvas-keyboard-response","70","150267","0.0-6.0-1.9","513","","","","","clear_screen","null","null","","","critical","c","t","d","164","240","240","164","227.1683","158.0083","trueblood","0.09","w","240","164","164","240","227.1683","158.0083","39360","39360","35894.4834","dc","null","null","null","null","null","null","[3,1]","428.57525366810705","506.02012645697636","517.245873783222"
"","canvas-keyboard-response","71","150776","0.0-6.0-2.9","513","","","","","rectangles no change","null","null","","","critical","c","t","d","164","240","240","164","227.1683","158.0083","trueblood","0.09","w","240","164","164","240","227.1683","158.0083","39360","39360","35894.4834","dc","null","null","null","null","null","null","[3,1]","428.57525366810705","506.02012645697636","517.245873783222"
"","canvas-keyboard-response","72","152111","0.0-6.0-3.9","513","","","","","rectangles with change","null","null","","","critical","c","t","d","164","240","240","164","227.1683","158.0083","trueblood","0.09","w","240","164","164","240","227.1683","158.0083","39360","39360","35894.4834","dc","null","null","null","null","null","null","[3,1]","428.57525366810705","506.02012645697636","517.245873783222"
"","canvas-keyboard-response","73","152129","0.0-6.0-4.9","513","","","","","clear_screen","null","null","","","critical","c","t","d","164","240","240","164","227.1683","158.0083","trueblood","0.09","w","240","164","164","240","227.1683","158.0083","39360","39360","35894.4834","dc","null","null","null","null","null","null","[3,1]","428.57525366810705","506.02012645697636","517.245873783222"
"","canvas-keyboard-response","74","153804","0.0-6.0-5.9","513","","","","","make choice","1668","3","","","critical","c","t","d","164","240","240","164","227.1683","158.0083","trueblood","0.09","w","240","164","164","240","227.1683","158.0083","39360","39360","35894.4834","dc","null","null","null","null","null","null","[3,1]","","",""
"","canvas-keyboard-response","75","153823","0.0-6.0-6.9","513","","","","","clear_screen","null","null","","","critical","c","t","d","164","240","240","164","227.1683","158.0083","trueblood","0.09","w","240","164","164","240","227.1683","158.0083","39360","39360","35894.4834","dc","null","null","null","null","null","null","[3,1]","","",""
"","canvas-keyboard-response","76","154025","0.0-6.0-0.10","513","","","","","pre trial waiting period","null","null","","","catch","sh","sw","l","225","215","150","226","192","281","trueblood","null","null","null","null","null","null","null","null","null","null","null","","180","200","260","200","36000","52000","[1,3]","477.0505926172529","459.3211517511379","394.05753780776257"
"","canvas-keyboard-response","77","154044","0.0-6.0-1.10","513","","","","","clear_screen","null","null","","","catch","sh","sw","l","225","215","150","226","192","281","trueblood","null","null","null","null","null","null","null","null","null","null","null","","180","200","260","200","36000","52000","[1,3]","477.0505926172529","459.3211517511379","394.05753780776257"
"","canvas-keyboard-response","78","154555","0.0-6.0-2.10","513","","","","","rectangles no change","null","null","","","catch","sh","sw","l","225","215","150","226","192","281","trueblood","null","null","null","null","null","null","null","null","null","null","null","","180","200","260","200","36000","52000","[1,3]","477.0505926172529","459.3211517511379","394.05753780776257"
"","canvas-keyboard-response","79","155890","0.0-6.0-3.10","513","","","","","rectangles with change","null","null","","","catch","sh","sw","l","225","215","150","226","192","281","trueblood","null","null","null","null","null","null","null","null","null","null","null","","180","200","260","200","36000","52000","[1,3]","477.0505926172529","459.3211517511379","394.05753780776257"
"","canvas-keyboard-response","80","155909","0.0-6.0-4.10","513","","","","","clear_screen","null","null","","","catch","sh","sw","l","225","215","150","226","192","281","trueblood","null","null","null","null","null","null","null","null","null","null","null","","180","200","260","200","36000","52000","[1,3]","477.0505926172529","459.3211517511379","394.05753780776257"
"","canvas-keyboard-response","81","157373","0.0-6.0-5.10","513","","","","","make choice","1455","3","","","catch","sh","sw","l","225","215","150","226","192","281","trueblood","null","null","null","null","null","null","null","null","null","null","null","","180","200","260","200","36000","52000","[1,3]","","",""
"","canvas-keyboard-response","82","157391","0.0-6.0-6.10","513","","","","","clear_screen","null","null","","","catch","sh","sw","l","225","215","150","226","192","281","trueblood","null","null","null","null","null","null","null","null","null","null","null","","180","200","260","200","36000","52000","[1,3]","","",""
"","canvas-keyboard-response","83","157592","0.0-6.0-0.11","513","","","","","pre trial waiting period","null","null","","","critical","c","t","d","164","240","240","164","220.0396","154.6796","trueblood","0.14","w","240","164","164","240","220.0396","154.6796","39360","39360","34035.6388","tc","null","null","null","null","null","null","[2,1]","421.317609487696","476.9561054315303","508.4232521984296"
"","canvas-keyboard-response","84","157611","0.0-6.0-1.11","513","","","","","clear_screen","null","null","","","critical","c","t","d","164","240","240","164","220.0396","154.6796","trueblood","0.14","w","240","164","164","240","220.0396","154.6796","39360","39360","34035.6388","tc","null","null","null","null","null","null","[2,1]","421.317609487696","476.9561054315303","508.4232521984296"
"","canvas-keyboard-response","85","158120","0.0-6.0-2.11","513","","","","","rectangles no change","null","null","","","critical","c","t","d","164","240","240","164","220.0396","154.6796","trueblood","0.14","w","240","164","164","240","220.0396","154.6796","39360","39360","34035.6388","tc","null","null","null","null","null","null","[2,1]","421.317609487696","476.9561054315303","508.4232521984296"
"","canvas-keyboard-response","86","159455","0.0-6.0-3.11","513","","","","","rectangles with change","null","null","","","critical","c","t","d","164","240","240","164","220.0396","154.6796","trueblood","0.14","w","240","164","164","240","220.0396","154.6796","39360","39360","34035.6388","tc","null","null","null","null","null","null","[2,1]","421.317609487696","476.9561054315303","508.4232521984296"
"","canvas-keyboard-response","87","159474","0.0-6.0-4.11","513","","","","","clear_screen","null","null","","","critical","c","t","d","164","240","240","164","220.0396","154.6796","trueblood","0.14","w","240","164","164","240","220.0396","154.6796","39360","39360","34035.6388","tc","null","null","null","null","null","null","[2,1]","421.317609487696","476.9561054315303","508.4232521984296"
"","canvas-keyboard-response","88","160836","0.0-6.0-5.11","513","","","","","make choice","1356","1","","","critical","c","t","d","164","240","240","164","220.0396","154.6796","trueblood","0.14","w","240","164","164","240","220.0396","154.6796","39360","39360","34035.6388","tc","null","null","null","null","null","null","[2,1]","","",""
"","canvas-keyboard-response","89","160855","0.0-6.0-6.11","513","","","","","clear_screen","null","null","","","critical","c","t","d","164","240","240","164","220.0396","154.6796","trueblood","0.14","w","240","164","164","240","220.0396","154.6796","39360","39360","34035.6388","tc","null","null","null","null","null","null","[2,1]","","",""
"","canvas-keyboard-response","90","161057","0.0-6.0-0.12","513","","","","","pre trial waiting period","null","null","","","critical","c","t","d","164","240","240","164","227.1683","158.0083","trueblood","0.09","w","240","164","164","240","227.1683","158.0083","39360","39360","35894.4834","tc","null","null","null","null","null","null","[2,1]","452.5320272528054","489.47599469051977","494.6292729096425"
"","canvas-keyboard-response","91","161079","0.0-6.0-1.12","513","","","","","clear_screen","null","null","","","critical","c","t","d","164","240","240","164","227.1683","158.0083","trueblood","0.09","w","240","164","164","240","227.1683","158.0083","39360","39360","35894.4834","tc","null","null","null","null","null","null","[2,1]","452.5320272528054","489.47599469051977","494.6292729096425"
"","canvas-keyboard-response","92","161589","0.0-6.0-2.12","513","","","","","rectangles no change","null","null","","","critical","c","t","d","164","240","240","164","227.1683","158.0083","trueblood","0.09","w","240","164","164","240","227.1683","158.0083","39360","39360","35894.4834","tc","null","null","null","null","null","null","[2,1]","452.5320272528054","489.47599469051977","494.6292729096425"
"","canvas-keyboard-response","93","162924","0.0-6.0-3.12","513","","","","","rectangles with change","null","null","","","critical","c","t","d","164","240","240","164","227.1683","158.0083","trueblood","0.09","w","240","164","164","240","227.1683","158.0083","39360","39360","35894.4834","tc","null","null","null","null","null","null","[2,1]","452.5320272528054","489.47599469051977","494.6292729096425"
"","canvas-keyboard-response","94","162942","0.0-6.0-4.12","513","","","","","clear_screen","null","null","","","critical","c","t","d","164","240","240","164","227.1683","158.0083","trueblood","0.09","w","240","164","164","240","227.1683","158.0083","39360","39360","35894.4834","tc","null","null","null","null","null","null","[2,1]","452.5320272528054","489.47599469051977","494.6292729096425"
"","canvas-keyboard-response","95","165861","0.0-6.0-5.12","513","","","","","make choice","2912","1","","","critical","c","t","d","164","240","240","164","227.1683","158.0083","trueblood","0.09","w","240","164","164","240","227.1683","158.0083","39360","39360","35894.4834","tc","null","null","null","null","null","null","[2,1]","","",""
"","canvas-keyboard-response","96","165879","0.0-6.0-6.12","513","","","","","clear_screen","null","null","","","critical","c","t","d","164","240","240","164","227.1683","158.0083","trueblood","0.09","w","240","164","164","240","227.1683","158.0083","39360","39360","35894.4834","tc","null","null","null","null","null","null","[2,1]","","",""
"","canvas-keyboard-response","97","166080","0.0-6.0-0.13","513","","","","","pre trial waiting period","null","null","","","catch","sw","sh","l","180","200","165","177","236","224","trueblood","null","null","null","null","null","null","null","null","null","null","null","","180","200","260","200","36000","52000","[1,3]","490.3789486921429","464.4298195627667","477.24064022611157"
"","canvas-keyboard-response","98","166099","0.0-6.0-1.13","513","","","","","clear_screen","null","null","","","catch","sw","sh","l","180","200","165","177","236","224","trueblood","null","null","null","null","null","null","null","null","null","null","null","","180","200","260","200","36000","52000","[1,3]","490.3789486921429","464.4298195627667","477.24064022611157"
"","canvas-keyboard-response","99","166610","0.0-6.0-2.13","513","","","","","rectangles no change","null","null","","","catch","sw","sh","l","180","200","165","177","236","224","trueblood","null","null","null","null","null","null","null","null","null","null","null","","180","200","260","200","36000","52000","[1,3]","490.3789486921429","464.4298195627667","477.24064022611157"
"","canvas-keyboard-response","100","167944","0.0-6.0-3.13","513","","","","","rectangles with change","null","null","","","catch","sw","sh","l","180","200","165","177","236","224","trueblood","null","null","null","null","null","null","null","null","null","null","null","","180","200","260","200","36000","52000","[1,3]","490.3789486921429","464.4298195627667","477.24064022611157"
"","canvas-keyboard-response","101","167963","0.0-6.0-4.13","513","","","","","clear_screen","null","null","","","catch","sw","sh","l","180","200","165","177","236","224","trueblood","null","null","null","null","null","null","null","null","null","null","null","","180","200","260","200","36000","52000","[1,3]","490.3789486921429","464.4298195627667","477.24064022611157"
"","canvas-keyboard-response","102","168540","0.0-6.0-5.13","513","","","","","make choice","571","3","","","catch","sw","sh","l","180","200","165","177","236","224","trueblood","null","null","null","null","null","null","null","null","null","null","null","","180","200","260","200","36000","52000","[1,3]","","",""
"","canvas-keyboard-response","103","168558","0.0-6.0-6.13","513","","","","","clear_screen","null","null","","","catch","sw","sh","l","180","200","165","177","236","224","trueblood","null","null","null","null","null","null","null","null","null","null","null","","180","200","260","200","36000","52000","[1,3]","","",""
"","canvas-keyboard-response","104","168761","0.0-6.0-0.14","513","","","","","pre trial waiting period","null","null","","","critical","c","d","t","164","240","237.1485","162.6685","240","164","spektor","0.02","w","240","164","164","240","237.1485","162.6685","39360","39360","38576.5967","td","null","null","null","null","null","null","[3,2]","501.2582479769486","173.44870503621465","514.3217273304318"
"","canvas-keyboard-response","105","168784","0.0-6.0-1.14","513","","","","","clear_screen","null","null","","","critical","c","d","t","164","240","237.1485","162.6685","240","164","spektor","0.02","w","240","164","164","240","237.1485","162.6685","39360","39360","38576.5967","td","null","null","null","null","null","null","[3,2]","501.2582479769486","173.44870503621465","514.3217273304318"
"","canvas-keyboard-response","106","169298","0.0-6.0-2.14","513","","","","","rectangles no change","null","null","","","critical","c","d","t","164","240","237.1485","162.6685","240","164","spektor","0.02","w","240","164","164","240","237.1485","162.6685","39360","39360","38576.5967","td","null","null","null","null","null","null","[3,2]","501.2582479769486","173.44870503621465","514.3217273304318"
"","canvas-keyboard-response","107","170635","0.0-6.0-3.14","513","","","","","rectangles with change","null","null","","","critical","c","d","t","164","240","237.1485","162.6685","240","164","spektor","0.02","w","240","164","164","240","237.1485","162.6685","39360","39360","38576.5967","td","null","null","null","null","null","null","[3,2]","501.2582479769486","173.44870503621465","514.3217273304318"
"","canvas-keyboard-response","108","170656","0.0-6.0-4.14","513","","","","","clear_screen","null","null","","","critical","c","d","t","164","240","237.1485","162.6685","240","164","spektor","0.02","w","240","164","164","240","237.1485","162.6685","39360","39360","38576.5967","td","null","null","null","null","null","null","[3,2]","501.2582479769486","173.44870503621465","514.3217273304318"
"","canvas-keyboard-response","109","173053","0.0-6.0-5.14","513","","","","","make choice","2388","2","","","critical","c","d","t","164","240","237.1485","162.6685","240","164","spektor","0.02","w","240","164","164","240","237.1485","162.6685","39360","39360","38576.5967","td","null","null","null","null","null","null","[3,2]","","",""
"","canvas-keyboard-response","110","173074","0.0-6.0-6.14","513","","","","","clear_screen","null","null","","","critical","c","d","t","164","240","237.1485","162.6685","240","164","spektor","0.02","w","240","164","164","240","237.1485","162.6685","39360","39360","38576.5967","td","null","null","null","null","null","null","[3,2]","","",""
"","canvas-keyboard-response","111","173276","0.0-6.0-0.15","513","","","","","pre trial waiting period","null","null","","","critical","c","d","t","240","164","158.0083","227.1683","164","240","spektor","0.09","h","164","240","240","164","158.0083","227.1683","39360","39360","35894.4834","td","null","null","null","null","null","null","[3,2]","530.9106402063585","125.88769958567204","503.9811925052385"
"","canvas-keyboard-response","112","173296","0.0-6.0-1.15","513","","","","","clear_screen","null","null","","","critical","c","d","t","240","164","158.0083","227.1683","164","240","spektor","0.09","h","164","240","240","164","158.0083","227.1683","39360","39360","35894.4834","td","null","null","null","null","null","null","[3,2]","530.9106402063585","125.88769958567204","503.9811925052385"
"","canvas-keyboard-response","113","173808","0.0-6.0-2.15","513","","","","","rectangles no change","null","null","","","critical","c","d","t","240","164","158.0083","227.1683","164","240","spektor","0.09","h","164","240","240","164","158.0083","227.1683","39360","39360","35894.4834","td","null","null","null","null","null","null","[3,2]","530.9106402063585","125.88769958567204","503.9811925052385"
"","canvas-keyboard-response","114","175144","0.0-6.0-3.15","513","","","","","rectangles with change","null","null","","","critical","c","d","t","240","164","158.0083","227.1683","164","240","spektor","0.09","h","164","240","240","164","158.0083","227.1683","39360","39360","35894.4834","td","null","null","null","null","null","null","[3,2]","530.9106402063585","125.88769958567204","503.9811925052385"
"","canvas-keyboard-response","115","175164","0.0-6.0-4.15","513","","","","","clear_screen","null","null","","","critical","c","d","t","240","164","158.0083","227.1683","164","240","spektor","0.09","h","164","240","240","164","158.0083","227.1683","39360","39360","35894.4834","td","null","null","null","null","null","null","[3,2]","530.9106402063585","125.88769958567204","503.9811925052385"
"","canvas-keyboard-response","116","175837","0.0-6.0-5.15","513","","","","","make choice","661","3","","","critical","c","d","t","240","164","158.0083","227.1683","164","240","spektor","0.09","h","164","240","240","164","158.0083","227.1683","39360","39360","35894.4834","td","null","null","null","null","null","null","[3,2]","","",""
"","canvas-keyboard-response","117","175857","0.0-6.0-6.15","513","","","","","clear_screen","null","null","","","critical","c","d","t","240","164","158.0083","227.1683","164","240","spektor","0.09","h","164","240","240","164","158.0083","227.1683","39360","39360","35894.4834","td","null","null","null","null","null","null","[3,2]","","",""
"","canvas-keyboard-response","118","176058","0.0-6.0-0.16","513","","","","","pre trial waiting period","null","null","","","critical","c","d","t","164","240","237.1485","162.6685","240","164","spektor","0.02","w","240","164","164","240","237.1485","162.6685","39360","39360","38576.5967","dc","null","null","null","null","null","null","[2,1]","472.0660548345705","198.9687276197018","542.203397528069"
"","canvas-keyboard-response","119","176080","0.0-6.0-1.16","513","","","","","clear_screen","null","null","","","critical","c","d","t","164","240","237.1485","162.6685","240","164","spektor","0.02","w","240","164","164","240","237.1485","162.6685","39360","39360","38576.5967","dc","null","null","null","null","null","null","[2,1]","472.0660548345705","198.9687276197018","542.203397528069"
"","canvas-keyboard-response","120","176594","0.0-6.0-2.16","513","","","","","rectangles no change","null","null","","","critical","c","d","t","164","240","237.1485","162.6685","240","164","spektor","0.02","w","240","164","164","240","237.1485","162.6685","39360","39360","38576.5967","dc","null","null","null","null","null","null","[2,1]","472.0660548345705","198.9687276197018","542.203397528069"
"","canvas-keyboard-response","121","177931","0.0-6.0-3.16","513","","","","","rectangles with change","null","null","","","critical","c","d","t","164","240","237.1485","162.6685","240","164","spektor","0.02","w","240","164","164","240","237.1485","162.6685","39360","39360","38576.5967","dc","null","null","null","null","null","null","[2,1]","472.0660548345705","198.9687276197018","542.203397528069"
"","canvas-keyboard-response","122","177948","0.0-6.0-4.16","513","","","","","clear_screen","null","null","","","critical","c","d","t","164","240","237.1485","162.6685","240","164","spektor","0.02","w","240","164","164","240","237.1485","162.6685","39360","39360","38576.5967","dc","null","null","null","null","null","null","[2,1]","472.0660548345705","198.9687276197018","542.203397528069"
"","canvas-keyboard-response","123","178964","0.0-6.0-5.16","513","","","","","make choice","1007","2","","","critical","c","d","t","164","240","237.1485","162.6685","240","164","spektor","0.02","w","240","164","164","240","237.1485","162.6685","39360","39360","38576.5967","dc","null","null","null","null","null","null","[2,1]","","",""
"","canvas-keyboard-response","124","178985","0.0-6.0-6.16","513","","","","","clear_screen","null","null","","","critical","c","d","t","164","240","237.1485","162.6685","240","164","spektor","0.02","w","240","164","164","240","237.1485","162.6685","39360","39360","38576.5967","dc","null","null","null","null","null","null","[2,1]","","",""
"","canvas-keyboard-response","125","179187","0.0-6.0-0.17","513","","","","","pre trial waiting period","null","null","","","critical","t","c","d","240","164","164","240","227.1683","158.0083","spektor","0.09","w","240","164","164","240","227.1683","158.0083","39360","39360","35894.4834","tc","null","null","null","null","null","null","[1,2]","534.2669573535562","119.36575162373109","508.3249039229952"
"","canvas-keyboard-response","126","179207","0.0-6.0-1.17","513","","","","","clear_screen","null","null","","","critical","t","c","d","240","164","164","240","227.1683","158.0083","spektor","0.09","w","240","164","164","240","227.1683","158.0083","39360","39360","35894.4834","tc","null","null","null","null","null","null","[1,2]","534.2669573535562","119.36575162373109","508.3249039229952"
"","canvas-keyboard-response","127","179718","0.0-6.0-2.17","513","","","","","rectangles no change","null","null","","","critical","t","c","d","240","164","164","240","227.1683","158.0083","spektor","0.09","w","240","164","164","240","227.1683","158.0083","39360","39360","35894.4834","tc","null","null","null","null","null","null","[1,2]","534.2669573535562","119.36575162373109","508.3249039229952"
"","canvas-keyboard-response","128","181053","0.0-6.0-3.17","513","","","","","rectangles with change","null","null","","","critical","t","c","d","240","164","164","240","227.1683","158.0083","spektor","0.09","w","240","164","164","240","227.1683","158.0083","39360","39360","35894.4834","tc","null","null","null","null","null","null","[1,2]","534.2669573535562","119.36575162373109","508.3249039229952"
"","canvas-keyboard-response","129","181073","0.0-6.0-4.17","513","","","","","clear_screen","null","null","","","critical","t","c","d","240","164","164","240","227.1683","158.0083","spektor","0.09","w","240","164","164","240","227.1683","158.0083","39360","39360","35894.4834","tc","null","null","null","null","null","null","[1,2]","534.2669573535562","119.36575162373109","508.3249039229952"
"","canvas-keyboard-response","130","184245","0.0-6.0-5.17","513","","","","","make choice","3163","1","","","critical","t","c","d","240","164","164","240","227.1683","158.0083","spektor","0.09","w","240","164","164","240","227.1683","158.0083","39360","39360","35894.4834","tc","null","null","null","null","null","null","[1,2]","","",""
"","canvas-keyboard-response","131","184263","0.0-6.0-6.17","513","","","","","clear_screen","null","null","","","critical","t","c","d","240","164","164","240","227.1683","158.0083","spektor","0.09","w","240","164","164","240","227.1683","158.0083","39360","39360","35894.4834","tc","null","null","null","null","null","null","[1,2]","","",""
"","canvas-keyboard-response","132","184464","0.0-6.0-0.18","513","","","","","pre trial waiting period","null","null","","","catch","sw","sh","l","180","200","224","188","211","258","spektor","null","null","null","null","null","null","null","null","null","null","null","","180","200","260","200","36000","52000","[2,3]","506.9564295061557","141.11835341458783","487.9492780898568"
"","canvas-keyboard-response","133","184483","0.0-6.0-1.18","513","","","","","clear_screen","null","null","","","catch","sw","sh","l","180","200","224","188","211","258","spektor","null","null","null","null","null","null","null","null","null","null","null","","180","200","260","200","36000","52000","[2,3]","506.9564295061557","141.11835341458783","487.9492780898568"
"","canvas-keyboard-response","134","184997","0.0-6.0-2.18","513","","","","","rectangles no change","null","null","","","catch","sw","sh","l","180","200","224","188","211","258","spektor","null","null","null","null","null","null","null","null","null","null","null","","180","200","260","200","36000","52000","[2,3]","506.9564295061557","141.11835341458783","487.9492780898568"
"","canvas-keyboard-response","135","186332","0.0-6.0-3.18","513","","","","","rectangles with change","null","null","","","catch","sw","sh","l","180","200","224","188","211","258","spektor","null","null","null","null","null","null","null","null","null","null","null","","180","200","260","200","36000","52000","[2,3]","506.9564295061557","141.11835341458783","487.9492780898568"
"","canvas-keyboard-response","136","186356","0.0-6.0-4.18","513","","","","","clear_screen","null","null","","","catch","sw","sh","l","180","200","224","188","211","258","spektor","null","null","null","null","null","null","null","null","null","null","null","","180","200","260","200","36000","52000","[2,3]","506.9564295061557","141.11835341458783","487.9492780898568"
"","canvas-keyboard-response","137","187229","0.0-6.0-5.18","513","","","","","make choice","863","3","","","catch","sw","sh","l","180","200","224","188","211","258","spektor","null","null","null","null","null","null","null","null","null","null","null","","180","200","260","200","36000","52000","[2,3]","","",""
"","canvas-keyboard-response","138","187247","0.0-6.0-6.18","513","","","","","clear_screen","null","null","","","catch","sw","sh","l","180","200","224","188","211","258","spektor","null","null","null","null","null","null","null","null","null","null","null","","180","200","260","200","36000","52000","[2,3]","","",""
"","canvas-keyboard-response","139","187449","0.0-6.0-0.19","513","","","","","pre trial waiting period","null","null","","","critical","t","c","d","240","164","164","240","232.8713","160.6713","spektor","0.05","w","240","164","164","240","232.8713","160.6713","39360","39360","37415.7294","tc","null","null","null","null","null","null","[1,2]","506.10486278053827","156.20508778205615","533.7700024909452"
"","canvas-keyboard-response","140","187470","0.0-6.0-1.19","513","","","","","clear_screen","null","null","","","critical","t","c","d","240","164","164","240","232.8713","160.6713","spektor","0.05","w","240","164","164","240","232.8713","160.6713","39360","39360","37415.7294","tc","null","null","null","null","null","null","[1,2]","506.10486278053827","156.20508778205615","533.7700024909452"
"","canvas-keyboard-response","141","187982","0.0-6.0-2.19","513","","","","","rectangles no change","null","null","","","critical","t","c","d","240","164","164","240","232.8713","160.6713","spektor","0.05","w","240","164","164","240","232.8713","160.6713","39360","39360","37415.7294","tc","null","null","null","null","null","null","[1,2]","506.10486278053827","156.20508778205615","533.7700024909452"
"","canvas-keyboard-response","142","189318","0.0-6.0-3.19","513","","","","","rectangles with change","null","null","","","critical","t","c","d","240","164","164","240","232.8713","160.6713","spektor","0.05","w","240","164","164","240","232.8713","160.6713","39360","39360","37415.7294","tc","null","null","null","null","null","null","[1,2]","506.10486278053827","156.20508778205615","533.7700024909452"
"","canvas-keyboard-response","143","189338","0.0-6.0-4.19","513","","","","","clear_screen","null","null","","","critical","t","c","d","240","164","164","240","232.8713","160.6713","spektor","0.05","w","240","164","164","240","232.8713","160.6713","39360","39360","37415.7294","tc","null","null","null","null","null","null","[1,2]","506.10486278053827","156.20508778205615","533.7700024909452"
"","canvas-keyboard-response","144","190196","0.0-6.0-5.19","513","","","","","make choice","848","1","","","critical","t","c","d","240","164","164","240","232.8713","160.6713","spektor","0.05","w","240","164","164","240","232.8713","160.6713","39360","39360","37415.7294","tc","null","null","null","null","null","null","[1,2]","","",""
"","canvas-keyboard-response","145","190214","0.0-6.0-6.19","513","","","","","clear_screen","null","null","","","critical","t","c","d","240","164","164","240","232.8713","160.6713","spektor","0.05","w","240","164","164","240","232.8713","160.6713","39360","39360","37415.7294","tc","null","null","null","null","null","null","[1,2]","","",""
"","canvas-keyboard-response","146","190415","0.0-6.0-0.20","513","","","","","pre trial waiting period","null","null","","","critical","c","d","t","240","164","160.6713","232.8713","164","240","trueblood","0.05","h","164","240","240","164","160.6713","232.8713","39360","39360","37415.7294","dc","null","null","null","null","null","null","[2,1]","511.8359136203305","442.9890375089773","428.19286536256783"
"","canvas-keyboard-response","147","190435","0.0-6.0-1.20","513","","","","","clear_screen","null","null","","","critical","c","d","t","240","164","160.6713","232.8713","164","240","trueblood","0.05","h","164","240","240","164","160.6713","232.8713","39360","39360","37415.7294","dc","null","null","null","null","null","null","[2,1]","511.8359136203305","442.9890375089773","428.19286536256783"
"","canvas-keyboard-response","148","190944","0.0-6.0-2.20","513","","","","","rectangles no change","null","null","","","critical","c","d","t","240","164","160.6713","232.8713","164","240","trueblood","0.05","h","164","240","240","164","160.6713","232.8713","39360","39360","37415.7294","dc","null","null","null","null","null","null","[2,1]","511.8359136203305","442.9890375089773","428.19286536256783"
"","canvas-keyboard-response","149","192279","0.0-6.0-3.20","513","","","","","rectangles with change","null","null","","","critical","c","d","t","240","164","160.6713","232.8713","164","240","trueblood","0.05","h","164","240","240","164","160.6713","232.8713","39360","39360","37415.7294","dc","null","null","null","null","null","null","[2,1]","511.8359136203305","442.9890375089773","428.19286536256783"
"","canvas-keyboard-response","150","192297","0.0-6.0-4.20","513","","","","","clear_screen","null","null","","","critical","c","d","t","240","164","160.6713","232.8713","164","240","trueblood","0.05","h","164","240","240","164","160.6713","232.8713","39360","39360","37415.7294","dc","null","null","null","null","null","null","[2,1]","511.8359136203305","442.9890375089773","428.19286536256783"
"","canvas-keyboard-response","151","193188","0.0-6.0-5.20","513","","","","","make choice","882","1","","","critical","c","d","t","240","164","160.6713","232.8713","164","240","trueblood","0.05","h","164","240","240","164","160.6713","232.8713","39360","39360","37415.7294","dc","null","null","null","null","null","null","[2,1]","","",""
"","canvas-keyboard-response","152","193207","0.0-6.0-6.20","513","","","","","clear_screen","null","null","","","critical","c","d","t","240","164","160.6713","232.8713","164","240","trueblood","0.05","h","164","240","240","164","160.6713","232.8713","39360","39360","37415.7294","dc","null","null","null","null","null","null","[2,1]","","",""
"","canvas-keyboard-response","153","193408","0.0-6.0-0.21","513","","","","","pre trial waiting period","null","null","","","catch","sw","sh","l","180","200","232","213","223","165","spektor","null","null","null","null","null","null","null","null","null","null","null","","180","200","260","200","36000","52000","[1,3]","490.67941340480763","166.5943990715542","519.4520587698702"
"","canvas-keyboard-response","154","193428","0.0-6.0-1.21","513","","","","","clear_screen","null","null","","","catch","sw","sh","l","180","200","232","213","223","165","spektor","null","null","null","null","null","null","null","null","null","null","null","","180","200","260","200","36000","52000","[1,3]","490.67941340480763","166.5943990715542","519.4520587698702"
"","canvas-keyboard-response","155","193938","0.0-6.0-2.21","513","","","","","rectangles no change","null","null","","","catch","sw","sh","l","180","200","232","213","223","165","spektor","null","null","null","null","null","null","null","null","null","null","null","","180","200","260","200","36000","52000","[1,3]","490.67941340480763","166.5943990715542","519.4520587698702"
"","canvas-keyboard-response","156","195274","0.0-6.0-3.21","513","","","","","rectangles with change","null","null","","","catch","sw","sh","l","180","200","232","213","223","165","spektor","null","null","null","null","null","null","null","null","null","null","null","","180","200","260","200","36000","52000","[1,3]","490.67941340480763","166.5943990715542","519.4520587698702"
"","canvas-keyboard-response","157","195292","0.0-6.0-4.21","513","","","","","clear_screen","null","null","","","catch","sw","sh","l","180","200","232","213","223","165","spektor","null","null","null","null","null","null","null","null","null","null","null","","180","200","260","200","36000","52000","[1,3]","490.67941340480763","166.5943990715542","519.4520587698702"
"","canvas-keyboard-response","158","199101","0.0-6.0-5.21","513","","","","","make choice","3801","3","","","catch","sw","sh","l","180","200","232","213","223","165","spektor","null","null","null","null","null","null","null","null","null","null","null","","180","200","260","200","36000","52000","[1,3]","","",""
"","canvas-keyboard-response","159","199118","0.0-6.0-6.21","513","","","","","clear_screen","null","null","","","catch","sw","sh","l","180","200","232","213","223","165","spektor","null","null","null","null","null","null","null","null","null","null","null","","180","200","260","200","36000","52000","[1,3]","","",""
"","canvas-keyboard-response","160","199319","0.0-6.0-0.22","513","","","","","pre trial waiting period","null","null","","","critical","t","d","c","164","240","154.6796","220.0396","240","164","trueblood","0.14","h","164","240","240","164","154.6796","220.0396","39360","39360","34035.6388","td","null","null","null","null","null","null","[1,2]","419.0264041362888","463.17204749220946","496.6431937433986"
"","canvas-keyboard-response","161","199339","0.0-6.0-1.22","513","","","","","clear_screen","null","null","","","critical","t","d","c","164","240","154.6796","220.0396","240","164","trueblood","0.14","h","164","240","240","164","154.6796","220.0396","39360","39360","34035.6388","td","null","null","null","null","null","null","[1,2]","419.0264041362888","463.17204749220946","496.6431937433986"
"","canvas-keyboard-response","162","199851","0.0-6.0-2.22","513","","","","","rectangles no change","null","null","","","critical","t","d","c","164","240","154.6796","220.0396","240","164","trueblood","0.14","h","164","240","240","164","154.6796","220.0396","39360","39360","34035.6388","td","null","null","null","null","null","null","[1,2]","419.0264041362888","463.17204749220946","496.6431937433986"
"","canvas-keyboard-response","163","201189","0.0-6.0-3.22","513","","","","","rectangles with change","null","null","","","critical","t","d","c","164","240","154.6796","220.0396","240","164","trueblood","0.14","h","164","240","240","164","154.6796","220.0396","39360","39360","34035.6388","td","null","null","null","null","null","null","[1,2]","419.0264041362888","463.17204749220946","496.6431937433986"
"","canvas-keyboard-response","164","201209","0.0-6.0-4.22","513","","","","","clear_screen","null","null","","","critical","t","d","c","164","240","154.6796","220.0396","240","164","trueblood","0.14","h","164","240","240","164","154.6796","220.0396","39360","39360","34035.6388","td","null","null","null","null","null","null","[1,2]","419.0264041362888","463.17204749220946","496.6431937433986"
"","canvas-keyboard-response","165","202252","0.0-6.0-5.22","513","","","","","make choice","1035","1","","","critical","t","d","c","164","240","154.6796","220.0396","240","164","trueblood","0.14","h","164","240","240","164","154.6796","220.0396","39360","39360","34035.6388","td","null","null","null","null","null","null","[1,2]","","",""
"","canvas-keyboard-response","166","202270","0.0-6.0-6.22","513","","","","","clear_screen","null","null","","","critical","t","d","c","164","240","154.6796","220.0396","240","164","trueblood","0.14","h","164","240","240","164","154.6796","220.0396","39360","39360","34035.6388","td","null","null","null","null","null","null","[1,2]","","",""
"","canvas-keyboard-response","167","202472","0.0-6.0-0.23","513","","","","","pre trial waiting period","null","null","","","critical","t","d","c","240","164","227.1683","158.0083","164","240","spektor","0.09","w","240","164","164","240","227.1683","158.0083","39360","39360","35894.4834","td","null","null","null","null","null","null","[1,2]","536.889999192363","221.30188519324494","498.5986517540772"
"","canvas-keyboard-response","168","202492","0.0-6.0-1.23","513","","","","","clear_screen","null","null","","","critical","t","d","c","240","164","227.1683","158.0083","164","240","spektor","0.09","w","240","164","164","240","227.1683","158.0083","39360","39360","35894.4834","td","null","null","null","null","null","null","[1,2]","536.889999192363","221.30188519324494","498.5986517540772"
"","canvas-keyboard-response","169","203004","0.0-6.0-2.23","513","","","","","rectangles no change","null","null","","","critical","t","d","c","240","164","227.1683","158.0083","164","240","spektor","0.09","w","240","164","164","240","227.1683","158.0083","39360","39360","35894.4834","td","null","null","null","null","null","null","[1,2]","536.889999192363","221.30188519324494","498.5986517540772"
"","canvas-keyboard-response","170","204340","0.0-6.0-3.23","513","","","","","rectangles with change","null","null","","","critical","t","d","c","240","164","227.1683","158.0083","164","240","spektor","0.09","w","240","164","164","240","227.1683","158.0083","39360","39360","35894.4834","td","null","null","null","null","null","null","[1,2]","536.889999192363","221.30188519324494","498.5986517540772"
"","canvas-keyboard-response","171","204360","0.0-6.0-4.23","513","","","","","clear_screen","null","null","","","critical","t","d","c","240","164","227.1683","158.0083","164","240","spektor","0.09","w","240","164","164","240","227.1683","158.0083","39360","39360","35894.4834","td","null","null","null","null","null","null","[1,2]","536.889999192363","221.30188519324494","498.5986517540772"
"","canvas-keyboard-response","172","205389","0.0-6.0-5.23","513","","","","","make choice","1022","1","","","critical","t","d","c","240","164","227.1683","158.0083","164","240","spektor","0.09","w","240","164","164","240","227.1683","158.0083","39360","39360","35894.4834","td","null","null","null","null","null","null","[1,2]","","",""
"","canvas-keyboard-response","173","205409","0.0-6.0-6.23","513","","","","","clear_screen","null","null","","","critical","t","d","c","240","164","227.1683","158.0083","164","240","spektor","0.09","w","240","164","164","240","227.1683","158.0083","39360","39360","35894.4834","td","null","null","null","null","null","null","[1,2]","","",""
"","canvas-keyboard-response","174","205611","0.0-6.0-0.24","513","","","","","pre trial waiting period","null","null","","","critical","d","c","t","164","240","240","164","164","240","trueblood","0","h","164","240","240","164","164","240","39360","39360","39360","tc","null","null","null","null","null","null","[3,2]","467.3761917264867","506.3783977710678","455.2181792920751"
"","canvas-keyboard-response","175","205632","0.0-6.0-1.24","513","","","","","clear_screen","null","null","","","critical","d","c","t","164","240","240","164","164","240","trueblood","0","h","164","240","240","164","164","240","39360","39360","39360","tc","null","null","null","null","null","null","[3,2]","467.3761917264867","506.3783977710678","455.2181792920751"
"","canvas-keyboard-response","176","206146","0.0-6.0-2.24","513","","","","","rectangles no change","null","null","","","critical","d","c","t","164","240","240","164","164","240","trueblood","0","h","164","240","240","164","164","240","39360","39360","39360","tc","null","null","null","null","null","null","[3,2]","467.3761917264867","506.3783977710678","455.2181792920751"
"","canvas-keyboard-response","177","207482","0.0-6.0-3.24","513","","","","","rectangles with change","null","null","","","critical","d","c","t","164","240","240","164","164","240","trueblood","0","h","164","240","240","164","164","240","39360","39360","39360","tc","null","null","null","null","null","null","[3,2]","467.3761917264867","506.3783977710678","455.2181792920751"
"","canvas-keyboard-response","178","207501","0.0-6.0-4.24","513","","","","","clear_screen","null","null","","","critical","d","c","t","164","240","240","164","164","240","trueblood","0","h","164","240","240","164","164","240","39360","39360","39360","tc","null","null","null","null","null","null","[3,2]","467.3761917264867","506.3783977710678","455.2181792920751"
"","canvas-keyboard-response","179","208421","0.0-6.0-5.24","513","","","","","make choice","911","2","","","critical","d","c","t","164","240","240","164","164","240","trueblood","0","h","164","240","240","164","164","240","39360","39360","39360","tc","null","null","null","null","null","null","[3,2]","","",""
"","canvas-keyboard-response","180","208439","0.0-6.0-6.24","513","","","","","clear_screen","null","null","","","critical","d","c","t","164","240","240","164","164","240","trueblood","0","h","164","240","240","164","164","240","39360","39360","39360","tc","null","null","null","null","null","null","[3,2]","","",""
"","canvas-keyboard-response","181","208641","0.0-6.0-0.25","513","","","","","pre trial waiting period","null","null","","","critical","d","t","c","162.6685","237.1485","164","240","240","164","spektor","0.02","h","164","240","240","164","162.6685","237.1485","39360","39360","38576.5967","tc","null","null","null","null","null","null","[2,3]","474.3951056555507","100.48986757081737","523.5391052176483"
"","canvas-keyboard-response","182","208660","0.0-6.0-1.25","513","","","","","clear_screen","null","null","","","critical","d","t","c","162.6685","237.1485","164","240","240","164","spektor","0.02","h","164","240","240","164","162.6685","237.1485","39360","39360","38576.5967","tc","null","null","null","null","null","null","[2,3]","474.3951056555507","100.48986757081737","523.5391052176483"
"","canvas-keyboard-response","183","209172","0.0-6.0-2.25","513","","","","","rectangles no change","null","null","","","critical","d","t","c","162.6685","237.1485","164","240","240","164","spektor","0.02","h","164","240","240","164","162.6685","237.1485","39360","39360","38576.5967","tc","null","null","null","null","null","null","[2,3]","474.3951056555507","100.48986757081737","523.5391052176483"
"","canvas-keyboard-response","184","210508","0.0-6.0-3.25","513","","","","","rectangles with change","null","null","","","critical","d","t","c","162.6685","237.1485","164","240","240","164","spektor","0.02","h","164","240","240","164","162.6685","237.1485","39360","39360","38576.5967","tc","null","null","null","null","null","null","[2,3]","474.3951056555507","100.48986757081737","523.5391052176483"
"","canvas-keyboard-response","185","210527","0.0-6.0-4.25","513","","","","","clear_screen","null","null","","","critical","d","t","c","162.6685","237.1485","164","240","240","164","spektor","0.02","h","164","240","240","164","162.6685","237.1485","39360","39360","38576.5967","tc","null","null","null","null","null","null","[2,3]","474.3951056555507","100.48986757081737","523.5391052176483"
"","canvas-keyboard-response","186","211580","0.0-6.0-5.25","513","","","","","make choice","1047","3","","","critical","d","t","c","162.6685","237.1485","164","240","240","164","spektor","0.02","h","164","240","240","164","162.6685","237.1485","39360","39360","38576.5967","tc","null","null","null","null","null","null","[2,3]","","",""
"","canvas-keyboard-response","187","211599","0.0-6.0-6.25","513","","","","","clear_screen","null","null","","","critical","d","t","c","162.6685","237.1485","164","240","240","164","spektor","0.02","h","164","240","240","164","162.6685","237.1485","39360","39360","38576.5967","tc","null","null","null","null","null","null","[2,3]","","",""
"","canvas-keyboard-response","188","211800","0.0-6.0-0.26","513","","","","","pre trial waiting period","null","null","","","catch","sh","l","sw","204","193","294","163","201","194","trueblood","null","null","null","null","null","null","null","null","null","null","null","","180","200","260","200","36000","52000","[1,2]","472.5560219817199","485.34930538725786","464.1309695925788"
"","canvas-keyboard-response","189","211819","0.0-6.0-1.26","513","","","","","clear_screen","null","null","","","catch","sh","l","sw","204","193","294","163","201","194","trueblood","null","null","null","null","null","null","null","null","null","null","null","","180","200","260","200","36000","52000","[1,2]","472.5560219817199","485.34930538725786","464.1309695925788"
"","canvas-keyboard-response","190","212330","0.0-6.0-2.26","513","","","","","rectangles no change","null","null","","","catch","sh","l","sw","204","193","294","163","201","194","trueblood","null","null","null","null","null","null","null","null","null","null","null","","180","200","260","200","36000","52000","[1,2]","472.5560219817199","485.34930538725786","464.1309695925788"
"","canvas-keyboard-response","191","213665","0.0-6.0-3.26","513","","","","","rectangles with change","null","null","","","catch","sh","l","sw","204","193","294","163","201","194","trueblood","null","null","null","null","null","null","null","null","null","null","null","","180","200","260","200","36000","52000","[1,2]","472.5560219817199","485.34930538725786","464.1309695925788"
"","canvas-keyboard-response","192","213683","0.0-6.0-4.26","513","","","","","clear_screen","null","null","","","catch","sh","l","sw","204","193","294","163","201","194","trueblood","null","null","null","null","null","null","null","null","null","null","null","","180","200","260","200","36000","52000","[1,2]","472.5560219817199","485.34930538725786","464.1309695925788"
"","canvas-keyboard-response","193","214621","0.0-6.0-5.26","513","","","","","make choice","929","2","","","catch","sh","l","sw","204","193","294","163","201","194","trueblood","null","null","null","null","null","null","null","null","null","null","null","","180","200","260","200","36000","52000","[1,2]","","",""
"","canvas-keyboard-response","194","214639","0.0-6.0-6.26","513","","","","","clear_screen","null","null","","","catch","sh","l","sw","204","193","294","163","201","194","trueblood","null","null","null","null","null","null","null","null","null","null","null","","180","200","260","200","36000","52000","[1,2]","","",""
"","canvas-keyboard-response","195","214841","0.0-6.0-0.27","513","","","","","pre trial waiting period","null","null","","","catch","l","sh","sw","230","233","212","141","173","169","spektor","null","null","null","null","null","null","null","null","null","null","null","","180","200","260","200","36000","52000","[1,3]","471.45946072364484","198.79643907035515","526.4817709391732"
"","canvas-keyboard-response","196","214861","0.0-6.0-1.27","513","","","","","clear_screen","null","null","","","catch","l","sh","sw","230","233","212","141","173","169","spektor","null","null","null","null","null","null","null","null","null","null","null","","180","200","260","200","36000","52000","[1,3]","471.45946072364484","198.79643907035515","526.4817709391732"
"","canvas-keyboard-response","197","215373","0.0-6.0-2.27","513","","","","","rectangles no change","null","null","","","catch","l","sh","sw","230","233","212","141","173","169","spektor","null","null","null","null","null","null","null","null","null","null","null","","180","200","260","200","36000","52000","[1,3]","471.45946072364484","198.79643907035515","526.4817709391732"
"","canvas-keyboard-response","198","216712","0.0-6.0-3.27","513","","","","","rectangles with change","null","null","","","catch","l","sh","sw","230","233","212","141","173","169","spektor","null","null","null","null","null","null","null","null","null","null","null","","180","200","260","200","36000","52000","[1,3]","471.45946072364484","198.79643907035515","526.4817709391732"
"","canvas-keyboard-response","199","216733","0.0-6.0-4.27","513","","","","","clear_screen","null","null","","","catch","l","sh","sw","230","233","212","141","173","169","spektor","null","null","null","null","null","null","null","null","null","null","null","","180","200","260","200","36000","52000","[1,3]","471.45946072364484","198.79643907035515","526.4817709391732"
"","canvas-keyboard-response","200","217340","0.0-6.0-5.27","513","","","","","make choice","598","1","","","catch","l","sh","sw","230","233","212","141","173","169","spektor","null","null","null","null","null","null","null","null","null","null","null","","180","200","260","200","36000","52000","[1,3]","","",""
"","canvas-keyboard-response","201","217358","0.0-6.0-6.27","513","","","","","clear_screen","null","null","","","catch","l","sh","sw","230","233","212","141","173","169","spektor","null","null","null","null","null","null","null","null","null","null","null","","180","200","260","200","36000","52000","[1,3]","","",""
"","canvas-keyboard-response","202","217559","0.0-6.0-0.28","513","","","","","pre trial waiting period","null","null","","","critical","t","d","c","164","240","154.6796","220.0396","240","164","trueblood","0.14","h","164","240","240","164","154.6796","220.0396","39360","39360","34035.6388","dc","null","null","null","null","null","null","[2,3]","452.7003838871515","466.0646446128579","486.10216554459083"
"","canvas-keyboard-response","203","217579","0.0-6.0-1.28","513","","","","","clear_screen","null","null","","","critical","t","d","c","164","240","154.6796","220.0396","240","164","trueblood","0.14","h","164","240","240","164","154.6796","220.0396","39360","39360","34035.6388","dc","null","null","null","null","null","null","[2,3]","452.7003838871515","466.0646446128579","486.10216554459083"
"","canvas-keyboard-response","204","218088","0.0-6.0-2.28","513","","","","","rectangles no change","null","null","","","critical","t","d","c","164","240","154.6796","220.0396","240","164","trueblood","0.14","h","164","240","240","164","154.6796","220.0396","39360","39360","34035.6388","dc","null","null","null","null","null","null","[2,3]","452.7003838871515","466.0646446128579","486.10216554459083"
"","canvas-keyboard-response","205","219423","0.0-6.0-3.28","513","","","","","rectangles with change","null","null","","","critical","t","d","c","164","240","154.6796","220.0396","240","164","trueblood","0.14","h","164","240","240","164","154.6796","220.0396","39360","39360","34035.6388","dc","null","null","null","null","null","null","[2,3]","452.7003838871515","466.0646446128579","486.10216554459083"
"","canvas-keyboard-response","206","219442","0.0-6.0-4.28","513","","","","","clear_screen","null","null","","","critical","t","d","c","164","240","154.6796","220.0396","240","164","trueblood","0.14","h","164","240","240","164","154.6796","220.0396","39360","39360","34035.6388","dc","null","null","null","null","null","null","[2,3]","452.7003838871515","466.0646446128579","486.10216554459083"
"","canvas-keyboard-response","207","220620","0.0-6.0-5.28","513","","","","","make choice","1171","3","","","critical","t","d","c","164","240","154.6796","220.0396","240","164","trueblood","0.14","h","164","240","240","164","154.6796","220.0396","39360","39360","34035.6388","dc","null","null","null","null","null","null","[2,3]","","",""
"","canvas-keyboard-response","208","220640","0.0-6.0-6.28","513","","","","","clear_screen","null","null","","","critical","t","d","c","164","240","154.6796","220.0396","240","164","trueblood","0.14","h","164","240","240","164","154.6796","220.0396","39360","39360","34035.6388","dc","null","null","null","null","null","null","[2,3]","","",""
"","canvas-keyboard-response","209","220841","0.0-6.0-0.29","513","","","","","pre trial waiting period","null","null","","","catch","l","sw","sh","221","184","146","208","180","166","spektor","null","null","null","null","null","null","null","null","null","null","null","","180","200","260","200","36000","52000","[1,2]","511.9072905745766","136.96561082177922","496.73819815142804"
"","canvas-keyboard-response","210","220860","0.0-6.0-1.29","513","","","","","clear_screen","null","null","","","catch","l","sw","sh","221","184","146","208","180","166","spektor","null","null","null","null","null","null","null","null","null","null","null","","180","200","260","200","36000","52000","[1,2]","511.9072905745766","136.96561082177922","496.73819815142804"
"","canvas-keyboard-response","211","221372","0.0-6.0-2.29","513","","","","","rectangles no change","null","null","","","catch","l","sw","sh","221","184","146","208","180","166","spektor","null","null","null","null","null","null","null","null","null","null","null","","180","200","260","200","36000","52000","[1,2]","511.9072905745766","136.96561082177922","496.73819815142804"
"","canvas-keyboard-response","212","222708","0.0-6.0-3.29","513","","","","","rectangles with change","null","null","","","catch","l","sw","sh","221","184","146","208","180","166","spektor","null","null","null","null","null","null","null","null","null","null","null","","180","200","260","200","36000","52000","[1,2]","511.9072905745766","136.96561082177922","496.73819815142804"
"","canvas-keyboard-response","213","222726","0.0-6.0-4.29","513","","","","","clear_screen","null","null","","","catch","l","sw","sh","221","184","146","208","180","166","spektor","null","null","null","null","null","null","null","null","null","null","null","","180","200","260","200","36000","52000","[1,2]","511.9072905745766","136.96561082177922","496.73819815142804"
"","canvas-keyboard-response","214","223820","0.0-6.0-5.29","513","","","","","make choice","1088","1","","","catch","l","sw","sh","221","184","146","208","180","166","spektor","null","null","null","null","null","null","null","null","null","null","null","","180","200","260","200","36000","52000","[1,2]","","",""
"","canvas-keyboard-response","215","223839","0.0-6.0-6.29","513","","","","","clear_screen","null","null","","","catch","l","sw","sh","221","184","146","208","180","166","spektor","null","null","null","null","null","null","null","null","null","null","null","","180","200","260","200","36000","52000","[1,2]","","",""
"","canvas-keyboard-response","216","224041","0.0-6.0-0.30","513","","","","","pre trial waiting period","null","null","","","catch","l","sh","sw","262","166","195","213","145","193","trueblood","null","null","null","null","null","null","null","null","null","null","null","","180","200","260","200","36000","52000","[1,2]","510.8604904323241","458.58780707270085","471.4983257576597"
"","canvas-keyboard-response","217","224060","0.0-6.0-1.30","513","","","","","clear_screen","null","null","","","catch","l","sh","sw","262","166","195","213","145","193","trueblood","null","null","null","null","null","null","null","null","null","null","null","","180","200","260","200","36000","52000","[1,2]","510.8604904323241","458.58780707270085","471.4983257576597"
"","canvas-keyboard-response","218","224571","0.0-6.0-2.30","513","","","","","rectangles no change","null","null","","","catch","l","sh","sw","262","166","195","213","145","193","trueblood","null","null","null","null","null","null","null","null","null","null","null","","180","200","260","200","36000","52000","[1,2]","510.8604904323241","458.58780707270085","471.4983257576597"
"","canvas-keyboard-response","219","225905","0.0-6.0-3.30","513","","","","","rectangles with change","null","null","","","catch","l","sh","sw","262","166","195","213","145","193","trueblood","null","null","null","null","null","null","null","null","null","null","null","","180","200","260","200","36000","52000","[1,2]","510.8604904323241","458.58780707270085","471.4983257576597"
"","canvas-keyboard-response","220","225923","0.0-6.0-4.30","513","","","","","clear_screen","null","null","","","catch","l","sh","sw","262","166","195","213","145","193","trueblood","null","null","null","null","null","null","null","null","null","null","null","","180","200","260","200","36000","52000","[1,2]","510.8604904323241","458.58780707270085","471.4983257576597"
"","canvas-keyboard-response","221","228380","0.0-6.0-5.30","513","","","","","make choice","2449","2","","","catch","l","sh","sw","262","166","195","213","145","193","trueblood","null","null","null","null","null","null","null","null","null","null","null","","180","200","260","200","36000","52000","[1,2]","","",""
"","canvas-keyboard-response","222","228398","0.0-6.0-6.30","513","","","","","clear_screen","null","null","","","catch","l","sh","sw","262","166","195","213","145","193","trueblood","null","null","null","null","null","null","null","null","null","null","null","","180","200","260","200","36000","52000","[1,2]","","",""
"","canvas-keyboard-response","223","228599","0.0-6.0-0.31","513","","","","","pre trial waiting period","null","null","","","critical","c","t","d","240","164","164","240","164","240","spektor","0","h","164","240","240","164","164","240","39360","39360","39360","dc","null","null","null","null","null","null","[3,1]","537.7781183182567","114.66134887524221","469.3930527605873"
"","canvas-keyboard-response","224","228617","0.0-6.0-1.31","513","","","","","clear_screen","null","null","","","critical","c","t","d","240","164","164","240","164","240","spektor","0","h","164","240","240","164","164","240","39360","39360","39360","dc","null","null","null","null","null","null","[3,1]","537.7781183182567","114.66134887524221","469.3930527605873"
"","canvas-keyboard-response","225","229133","0.0-6.0-2.31","513","","","","","rectangles no change","null","null","","","critical","c","t","d","240","164","164","240","164","240","spektor","0","h","164","240","240","164","164","240","39360","39360","39360","dc","null","null","null","null","null","null","[3,1]","537.7781183182567","114.66134887524221","469.3930527605873"
"","canvas-keyboard-response","226","230468","0.0-6.0-3.31","513","","","","","rectangles with change","null","null","","","critical","c","t","d","240","164","164","240","164","240","spektor","0","h","164","240","240","164","164","240","39360","39360","39360","dc","null","null","null","null","null","null","[3,1]","537.7781183182567","114.66134887524221","469.3930527605873"
"","canvas-keyboard-response","227","230487","0.0-6.0-4.31","513","","","","","clear_screen","null","null","","","critical","c","t","d","240","164","164","240","164","240","spektor","0","h","164","240","240","164","164","240","39360","39360","39360","dc","null","null","null","null","null","null","[3,1]","537.7781183182567","114.66134887524221","469.3930527605873"
"","canvas-keyboard-response","228","231428","0.0-6.0-5.31","513","","","","","make choice","933","1","","","critical","c","t","d","240","164","164","240","164","240","spektor","0","h","164","240","240","164","164","240","39360","39360","39360","dc","null","null","null","null","null","null","[3,1]","","",""
"","canvas-keyboard-response","229","231446","0.0-6.0-6.31","513","","","","","clear_screen","null","null","","","critical","c","t","d","240","164","164","240","164","240","spektor","0","h","164","240","240","164","164","240","39360","39360","39360","dc","null","null","null","null","null","null","[3,1]","","",""
"","canvas-keyboard-response","230","231648","0.0-6.0-0.32","513","","","","","pre trial waiting period","null","null","","","critical","t","c","d","240","164","164","240","240","164","trueblood","0","w","240","164","164","240","240","164","39360","39360","39360","tc","null","null","null","null","null","null","[1,2]","489.607466884099","432.68339477214596","504.3539753234574"
"","canvas-keyboard-response","231","231667","0.0-6.0-1.32","513","","","","","clear_screen","null","null","","","critical","t","c","d","240","164","164","240","240","164","trueblood","0","w","240","164","164","240","240","164","39360","39360","39360","tc","null","null","null","null","null","null","[1,2]","489.607466884099","432.68339477214596","504.3539753234574"
"","canvas-keyboard-response","232","232177","0.0-6.0-2.32","513","","","","","rectangles no change","null","null","","","critical","t","c","d","240","164","164","240","240","164","trueblood","0","w","240","164","164","240","240","164","39360","39360","39360","tc","null","null","null","null","null","null","[1,2]","489.607466884099","432.68339477214596","504.3539753234574"
"","canvas-keyboard-response","233","233512","0.0-6.0-3.32","513","","","","","rectangles with change","null","null","","","critical","t","c","d","240","164","164","240","240","164","trueblood","0","w","240","164","164","240","240","164","39360","39360","39360","tc","null","null","null","null","null","null","[1,2]","489.607466884099","432.68339477214596","504.3539753234574"
"","canvas-keyboard-response","234","233530","0.0-6.0-4.32","513","","","","","clear_screen","null","null","","","critical","t","c","d","240","164","164","240","240","164","trueblood","0","w","240","164","164","240","240","164","39360","39360","39360","tc","null","null","null","null","null","null","[1,2]","489.607466884099","432.68339477214596","504.3539753234574"
"","canvas-keyboard-response","235","234556","0.0-6.0-5.32","513","","","","","make choice","1020","1","","","critical","t","c","d","240","164","164","240","240","164","trueblood","0","w","240","164","164","240","240","164","39360","39360","39360","tc","null","null","null","null","null","null","[1,2]","","",""
"","canvas-keyboard-response","236","234575","0.0-6.0-6.32","513","","","","","clear_screen","null","null","","","critical","t","c","d","240","164","164","240","240","164","trueblood","0","w","240","164","164","240","240","164","39360","39360","39360","tc","null","null","null","null","null","null","[1,2]","","",""
"","canvas-keyboard-response","237","234776","0.0-6.0-0.33","513","","","","","pre trial waiting period","null","null","","","critical","t","c","d","240","164","164","240","227.1683","158.0083","trueblood","0.09","w","240","164","164","240","227.1683","158.0083","39360","39360","35894.4834","td","null","null","null","null","null","null","[1,3]","500.2562011229459","447.67501017903015","483.7945949924609"
"","canvas-keyboard-response","238","234796","0.0-6.0-1.33","513","","","","","clear_screen","null","null","","","critical","t","c","d","240","164","164","240","227.1683","158.0083","trueblood","0.09","w","240","164","164","240","227.1683","158.0083","39360","39360","35894.4834","td","null","null","null","null","null","null","[1,3]","500.2562011229459","447.67501017903015","483.7945949924609"
"","canvas-keyboard-response","239","235307","0.0-6.0-2.33","513","","","","","rectangles no change","null","null","","","critical","t","c","d","240","164","164","240","227.1683","158.0083","trueblood","0.09","w","240","164","164","240","227.1683","158.0083","39360","39360","35894.4834","td","null","null","null","null","null","null","[1,3]","500.2562011229459","447.67501017903015","483.7945949924609"
"","canvas-keyboard-response","240","236643","0.0-6.0-3.33","513","","","","","rectangles with change","null","null","","","critical","t","c","d","240","164","164","240","227.1683","158.0083","trueblood","0.09","w","240","164","164","240","227.1683","158.0083","39360","39360","35894.4834","td","null","null","null","null","null","null","[1,3]","500.2562011229459","447.67501017903015","483.7945949924609"
"","canvas-keyboard-response","241","236660","0.0-6.0-4.33","513","","","","","clear_screen","null","null","","","critical","t","c","d","240","164","164","240","227.1683","158.0083","trueblood","0.09","w","240","164","164","240","227.1683","158.0083","39360","39360","35894.4834","td","null","null","null","null","null","null","[1,3]","500.2562011229459","447.67501017903015","483.7945949924609"
"","canvas-keyboard-response","242","237524","0.0-6.0-5.33","513","","","","","make choice","857","1","","","critical","t","c","d","240","164","164","240","227.1683","158.0083","trueblood","0.09","w","240","164","164","240","227.1683","158.0083","39360","39360","35894.4834","td","null","null","null","null","null","null","[1,3]","","",""
"","canvas-keyboard-response","243","237542","0.0-6.0-6.33","513","","","","","clear_screen","null","null","","","critical","t","c","d","240","164","164","240","227.1683","158.0083","trueblood","0.09","w","240","164","164","240","227.1683","158.0083","39360","39360","35894.4834","td","null","null","null","null","null","null","[1,3]","","",""
"","canvas-keyboard-response","244","237743","0.0-6.0-0.34","513","","","","","pre trial waiting period","null","null","","","critical","d","c","t","160.6713","232.8713","240","164","164","240","spektor","0.05","h","164","240","240","164","160.6713","232.8713","39360","39360","37415.7294","dc","null","null","null","null","null","null","[1,2]","494.99698033907407","155.14630512529615","499.4744557439281"
"","canvas-keyboard-response","245","237762","0.0-6.0-1.34","513","","","","","clear_screen","null","null","","","critical","d","c","t","160.6713","232.8713","240","164","164","240","spektor","0.05","h","164","240","240","164","160.6713","232.8713","39360","39360","37415.7294","dc","null","null","null","null","null","null","[1,2]","494.99698033907407","155.14630512529615","499.4744557439281"
"","canvas-keyboard-response","246","238271","0.0-6.0-2.34","513","","","","","rectangles no change","null","null","","","critical","d","c","t","160.6713","232.8713","240","164","164","240","spektor","0.05","h","164","240","240","164","160.6713","232.8713","39360","39360","37415.7294","dc","null","null","null","null","null","null","[1,2]","494.99698033907407","155.14630512529615","499.4744557439281"
"","canvas-keyboard-response","247","239606","0.0-6.0-3.34","513","","","","","rectangles with change","null","null","","","critical","d","c","t","160.6713","232.8713","240","164","164","240","spektor","0.05","h","164","240","240","164","160.6713","232.8713","39360","39360","37415.7294","dc","null","null","null","null","null","null","[1,2]","494.99698033907407","155.14630512529615","499.4744557439281"
"","canvas-keyboard-response","248","239628","0.0-6.0-4.34","513","","","","","clear_screen","null","null","","","critical","d","c","t","160.6713","232.8713","240","164","164","240","spektor","0.05","h","164","240","240","164","160.6713","232.8713","39360","39360","37415.7294","dc","null","null","null","null","null","null","[1,2]","494.99698033907407","155.14630512529615","499.4744557439281"
"","canvas-keyboard-response","249","240635","0.0-6.0-5.34","513","","","","","make choice","1002","2","","","critical","d","c","t","160.6713","232.8713","240","164","164","240","spektor","0.05","h","164","240","240","164","160.6713","232.8713","39360","39360","37415.7294","dc","null","null","null","null","null","null","[1,2]","","",""
"","canvas-keyboard-response","250","240654","0.0-6.0-6.34","513","","","","","clear_screen","null","null","","","critical","d","c","t","160.6713","232.8713","240","164","164","240","spektor","0.05","h","164","240","240","164","160.6713","232.8713","39360","39360","37415.7294","dc","null","null","null","null","null","null","[1,2]","","",""
"","canvas-keyboard-response","251","240856","0.0-6.0-0.35","513","","","","","pre trial waiting period","null","null","","","critical","d","t","c","227.1683","158.0083","240","164","164","240","spektor","0.09","w","240","164","164","240","227.1683","158.0083","39360","39360","35894.4834","dc","null","null","null","null","null","null","[1,3]","516.5637953298526","193.54860292256677","475.9331340428835"
"","canvas-keyboard-response","252","240875","0.0-6.0-1.35","513","","","","","clear_screen","null","null","","","critical","d","t","c","227.1683","158.0083","240","164","164","240","spektor","0.09","w","240","164","164","240","227.1683","158.0083","39360","39360","35894.4834","dc","null","null","null","null","null","null","[1,3]","516.5637953298526","193.54860292256677","475.9331340428835"
"","canvas-keyboard-response","253","241385","0.0-6.0-2.35","513","","","","","rectangles no change","null","null","","","critical","d","t","c","227.1683","158.0083","240","164","164","240","spektor","0.09","w","240","164","164","240","227.1683","158.0083","39360","39360","35894.4834","dc","null","null","null","null","null","null","[1,3]","516.5637953298526","193.54860292256677","475.9331340428835"
"","canvas-keyboard-response","254","242721","0.0-6.0-3.35","513","","","","","rectangles with change","null","null","","","critical","d","t","c","227.1683","158.0083","240","164","164","240","spektor","0.09","w","240","164","164","240","227.1683","158.0083","39360","39360","35894.4834","dc","null","null","null","null","null","null","[1,3]","516.5637953298526","193.54860292256677","475.9331340428835"
"","canvas-keyboard-response","255","242740","0.0-6.0-4.35","513","","","","","clear_screen","null","null","","","critical","d","t","c","227.1683","158.0083","240","164","164","240","spektor","0.09","w","240","164","164","240","227.1683","158.0083","39360","39360","35894.4834","dc","null","null","null","null","null","null","[1,3]","516.5637953298526","193.54860292256677","475.9331340428835"
"","canvas-keyboard-response","256","243867","0.0-6.0-5.35","513","","","","","make choice","1120","3","","","critical","d","t","c","227.1683","158.0083","240","164","164","240","spektor","0.09","w","240","164","164","240","227.1683","158.0083","39360","39360","35894.4834","dc","null","null","null","null","null","null","[1,3]","","",""
"","canvas-keyboard-response","257","243885","0.0-6.0-6.35","513","","","","","clear_screen","null","null","","","critical","d","t","c","227.1683","158.0083","240","164","164","240","spektor","0.09","w","240","164","164","240","227.1683","158.0083","39360","39360","35894.4834","dc","null","null","null","null","null","null","[1,3]","","",""
"","canvas-keyboard-response","258","244087","0.0-6.0-0.36","513","","","","","pre trial waiting period","null","null","","","catch","sh","l","sw","164","204","190","270","207","206","spektor","null","null","null","null","null","null","null","null","null","null","null","","180","200","260","200","36000","52000","[1,2]","512.4208870628559","90.49763690189091","473.7439653803551"
"","canvas-keyboard-response","259","244106","0.0-6.0-1.36","513","","","","","clear_screen","null","null","","","catch","sh","l","sw","164","204","190","270","207","206","spektor","null","null","null","null","null","null","null","null","null","null","null","","180","200","260","200","36000","52000","[1,2]","512.4208870628559","90.49763690189091","473.7439653803551"
"","canvas-keyboard-response","260","244617","0.0-6.0-2.36","513","","","","","rectangles no change","null","null","","","catch","sh","l","sw","164","204","190","270","207","206","spektor","null","null","null","null","null","null","null","null","null","null","null","","180","200","260","200","36000","52000","[1,2]","512.4208870628559","90.49763690189091","473.7439653803551"
"","canvas-keyboard-response","261","245953","0.0-6.0-3.36","513","","","","","rectangles with change","null","null","","","catch","sh","l","sw","164","204","190","270","207","206","spektor","null","null","null","null","null","null","null","null","null","null","null","","180","200","260","200","36000","52000","[1,2]","512.4208870628559","90.49763690189091","473.7439653803551"
"","canvas-keyboard-response","262","245974","0.0-6.0-4.36","513","","","","","clear_screen","null","null","","","catch","sh","l","sw","164","204","190","270","207","206","spektor","null","null","null","null","null","null","null","null","null","null","null","","180","200","260","200","36000","52000","[1,2]","512.4208870628559","90.49763690189091","473.7439653803551"
"","canvas-keyboard-response","263","246572","0.0-6.0-5.36","513","","","","","make choice","588","2","","","catch","sh","l","sw","164","204","190","270","207","206","spektor","null","null","null","null","null","null","null","null","null","null","null","","180","200","260","200","36000","52000","[1,2]","","",""
"","canvas-keyboard-response","264","246592","0.0-6.0-6.36","513","","","","","clear_screen","null","null","","","catch","sh","l","sw","164","204","190","270","207","206","spektor","null","null","null","null","null","null","null","null","null","null","null","","180","200","260","200","36000","52000","[1,2]","","",""
"","canvas-keyboard-response","265","246794","0.0-6.0-0.37","513","","","","","pre trial waiting period","null","null","","","critical","c","d","t","164","240","237.1485","162.6685","240","164","trueblood","0.02","w","240","164","164","240","237.1485","162.6685","39360","39360","38576.5967","td","null","null","null","null","null","null","[3,2]","420.1591385717534","494.8400175177613","515.0142122884165"
"","canvas-keyboard-response","266","246816","0.0-6.0-1.37","513","","","","","clear_screen","null","null","","","critical","c","d","t","164","240","237.1485","162.6685","240","164","trueblood","0.02","w","240","164","164","240","237.1485","162.6685","39360","39360","38576.5967","td","null","null","null","null","null","null","[3,2]","420.1591385717534","494.8400175177613","515.0142122884165"
