"success","trial_type","trial_index","time_elapsed","internal_node_id","sub_n","timeout","failed_images","failed_audio","failed_video","screen_id","rt","response","stimulus","view_history","trial","r1","r2","r3","w1","h1","w2","h2","w3","h3","display","tdd","tdo","tw","th","cw","ch","dw","dh","ta","ca","da","probe","csls","csss","clls","clss","sa","la","probe_rects","r1yloc","r2yloc","r3yloc"
"true","fullscreen","0","2593","0.0-0.0","576","","","","","","","","","","","","","","","","","","","","","","","","","","","","","","","","","","","","","","","","","",""
"true","preload","1","2608","0.0-1.0","576","false","[]","[]","[]","img preload","","","","","","","","","","","","","","","","","","","","","","","","","","","","","","","","","","","","",""
"","survey-html-form","2","4949","0.0-2.0","576","","","","","enter-sub-number","2332","{""response"":""576""}","","","","","","","","","","","","","","","","","","","","","","","","","","","","","","","","","","",""
"","image-button-response","3","70634","0.0-3.0","576","","","","","","65606","0","consent.png","","","","","","","","","","","","","","","","","","","","","","","","","","","","","","","","","",""
"","html-button-response","4","80537","0.0-4.0","576","","","","","intro mssg","9897","0","<div style= ""font-size:25px;"" <p> <strong> Welcome! </strong><br> <p style=""color:#8B0000; font-size:25px;""><strong> Please do NOT exit full screen until you are done with the experiment. </strong> </p><p style=""font-size:25px;color:#8B0000;""> <strong> Your data will be lost <br> if you try to go back or refresh the page after the experiment starts. Feel free to click ""previous"" during the instructions, however.</strong> </p><br><p> <strong> Thanks in advance for your contribution to our research! </strong></p>","","","","","","","","","","","","","","","","","","","","","","","","","","","","","","","","","",""
"","instructions","5","136497","0.0-5.0","576","","","","","instructions","55955","","","[{""page_index"":0,""viewing_time"":8634},{""page_index"":1,""viewing_time"":8185},{""page_index"":2,""viewing_time"":3824},{""page_index"":3,""viewing_time"":22191},{""page_index"":4,""viewing_time"":5865},{""page_index"":5,""viewing_time"":3943},{""page_index"":6,""viewing_time"":2425},{""page_index"":7,""viewing_time"":887}]","","","","","","","","","","","","","","","","","","","","","","","","","","","","","","","","",""
"","canvas-keyboard-response","6","136703","0.0-6.0-0.0","576","","","","","pre trial waiting period","null","null","","","catch","sh","sw","l","223","186","216","207","165","289","trueblood","null","null","null","null","null","null","null","null","null","null","null","","180","200","260","200","36000","52000","[1,3]","479.6521681383361","468.7694688728529","431.3950123323469"
"","canvas-keyboard-response","7","136726","0.0-6.0-1.0","576","","","","","clear_screen","null","null","","","catch","sh","sw","l","223","186","216","207","165","289","trueblood","null","null","null","null","null","null","null","null","null","null","null","","180","200","260","200","36000","52000","[1,3]","479.6521681383361","468.7694688728529","431.3950123323469"
"","canvas-keyboard-response","8","137237","0.0-6.0-2.0","576","","","","","rectangles no change","null","null","","","catch","sh","sw","l","223","186","216","207","165","289","trueblood","null","null","null","null","null","null","null","null","null","null","null","","180","200","260","200","36000","52000","[1,3]","479.6521681383361","468.7694688728529","431.3950123323469"
"","canvas-keyboard-response","9","138573","0.0-6.0-3.0","576","","","","","rectangles with change","null","null","","","catch","sh","sw","l","223","186","216","207","165","289","trueblood","null","null","null","null","null","null","null","null","null","null","null","","180","200","260","200","36000","52000","[1,3]","479.6521681383361","468.7694688728529","431.3950123323469"
"","canvas-keyboard-response","10","138593","0.0-6.0-4.0","576","","","","","clear_screen","null","null","","","catch","sh","sw","l","223","186","216","207","165","289","trueblood","null","null","null","null","null","null","null","null","null","null","null","","180","200","260","200","36000","52000","[1,3]","479.6521681383361","468.7694688728529","431.3950123323469"
"","canvas-keyboard-response","11","143937","0.0-6.0-5.0","576","","","","","make choice","5338","3","","","catch","sh","sw","l","223","186","216","207","165","289","trueblood","null","null","null","null","null","null","null","null","null","null","null","","180","200","260","200","36000","52000","[1,3]","","",""
"","canvas-keyboard-response","12","143955","0.0-6.0-6.0","576","","","","","clear_screen","null","null","","","catch","sh","sw","l","223","186","216","207","165","289","trueblood","null","null","null","null","null","null","null","null","null","null","null","","180","200","260","200","36000","52000","[1,3]","","",""
"","canvas-keyboard-response","13","144157","0.0-6.0-0.1","576","","","","","pre trial waiting period","null","null","","","critical","d","t","c","164","240","164","240","240","164","spektor","0","h","164","240","240","164","164","240","39360","39360","39360","td","null","null","null","null","null","null","[2,1]","486.5246066948456","133.33714016352678","507.0406531363878"
"","canvas-keyboard-response","14","144176","0.0-6.0-1.1","576","","","","","clear_screen","null","null","","","critical","d","t","c","164","240","164","240","240","164","spektor","0","h","164","240","240","164","164","240","39360","39360","39360","td","null","null","null","null","null","null","[2,1]","486.5246066948456","133.33714016352678","507.0406531363878"
"","canvas-keyboard-response","15","144683","0.0-6.0-2.1","576","","","","","rectangles no change","null","null","","","critical","d","t","c","164","240","164","240","240","164","spektor","0","h","164","240","240","164","164","240","39360","39360","39360","td","null","null","null","null","null","null","[2,1]","486.5246066948456","133.33714016352678","507.0406531363878"
"","canvas-keyboard-response","16","146023","0.0-6.0-3.1","576","","","","","rectangles with change","null","null","","","critical","d","t","c","164","240","164","240","240","164","spektor","0","h","164","240","240","164","164","240","39360","39360","39360","td","null","null","null","null","null","null","[2,1]","486.5246066948456","133.33714016352678","507.0406531363878"
"","canvas-keyboard-response","17","146043","0.0-6.0-4.1","576","","","","","clear_screen","null","null","","","critical","d","t","c","164","240","164","240","240","164","spektor","0","h","164","240","240","164","164","240","39360","39360","39360","td","null","null","null","null","null","null","[2,1]","486.5246066948456","133.33714016352678","507.0406531363878"
"","canvas-keyboard-response","18","151680","0.0-6.0-5.1","576","","","","","make choice","5627","1","","","critical","d","t","c","164","240","164","240","240","164","spektor","0","h","164","240","240","164","164","240","39360","39360","39360","td","null","null","null","null","null","null","[2,1]","","",""
"","canvas-keyboard-response","19","151698","0.0-6.0-6.1","576","","","","","clear_screen","null","null","","","critical","d","t","c","164","240","164","240","240","164","spektor","0","h","164","240","240","164","164","240","39360","39360","39360","td","null","null","null","null","null","null","[2,1]","","",""
"","canvas-keyboard-response","20","151899","0.0-6.0-0.2","576","","","","","pre trial waiting period","null","null","","","catch","sw","sh","l","180","200","192","166","192","285","spektor","null","null","null","null","null","null","null","null","null","null","null","","180","200","260","200","36000","52000","[1,3]","487.21081522202627","187.3887693136631","440.4159314200063"
"","canvas-keyboard-response","21","151919","0.0-6.0-1.2","576","","","","","clear_screen","null","null","","","catch","sw","sh","l","180","200","192","166","192","285","spektor","null","null","null","null","null","null","null","null","null","null","null","","180","200","260","200","36000","52000","[1,3]","487.21081522202627","187.3887693136631","440.4159314200063"
"","canvas-keyboard-response","22","152428","0.0-6.0-2.2","576","","","","","rectangles no change","null","null","","","catch","sw","sh","l","180","200","192","166","192","285","spektor","null","null","null","null","null","null","null","null","null","null","null","","180","200","260","200","36000","52000","[1,3]","487.21081522202627","187.3887693136631","440.4159314200063"
"","canvas-keyboard-response","23","153763","0.0-6.0-3.2","576","","","","","rectangles with change","null","null","","","catch","sw","sh","l","180","200","192","166","192","285","spektor","null","null","null","null","null","null","null","null","null","null","null","","180","200","260","200","36000","52000","[1,3]","487.21081522202627","187.3887693136631","440.4159314200063"
"","canvas-keyboard-response","24","153785","0.0-6.0-4.2","576","","","","","clear_screen","null","null","","","catch","sw","sh","l","180","200","192","166","192","285","spektor","null","null","null","null","null","null","null","null","null","null","null","","180","200","260","200","36000","52000","[1,3]","487.21081522202627","187.3887693136631","440.4159314200063"
"","canvas-keyboard-response","25","155320","0.0-6.0-5.2","576","","","","","make choice","1531","3","","","catch","sw","sh","l","180","200","192","166","192","285","spektor","null","null","null","null","null","null","null","null","null","null","null","","180","200","260","200","36000","52000","[1,3]","","",""
"","canvas-keyboard-response","26","155339","0.0-6.0-6.2","576","","","","","clear_screen","null","null","","","catch","sw","sh","l","180","200","192","166","192","285","spektor","null","null","null","null","null","null","null","null","null","null","null","","180","200","260","200","36000","52000","[1,3]","","",""
"","canvas-keyboard-response","27","155540","0.0-6.0-0.3","576","","","","","pre trial waiting period","null","null","","","critical","d","c","t","237.1485","162.6685","164","240","240","164","spektor","0.02","w","240","164","164","240","237.1485","162.6685","39360","39360","38576.5967","td","null","null","null","null","null","null","[3,1]","494.76812698567034","141.24240379976573","522.9860144095278"
"","canvas-keyboard-response","28","155559","0.0-6.0-1.3","576","","","","","clear_screen","null","null","","","critical","d","c","t","237.1485","162.6685","164","240","240","164","spektor","0.02","w","240","164","164","240","237.1485","162.6685","39360","39360","38576.5967","td","null","null","null","null","null","null","[3,1]","494.76812698567034","141.24240379976573","522.9860144095278"
"","canvas-keyboard-response","29","156068","0.0-6.0-2.3","576","","","","","rectangles no change","null","null","","","critical","d","c","t","237.1485","162.6685","164","240","240","164","spektor","0.02","w","240","164","164","240","237.1485","162.6685","39360","39360","38576.5967","td","null","null","null","null","null","null","[3,1]","494.76812698567034","141.24240379976573","522.9860144095278"
"","canvas-keyboard-response","30","157401","0.0-6.0-3.3","576","","","","","rectangles with change","null","null","","","critical","d","c","t","237.1485","162.6685","164","240","240","164","spektor","0.02","w","240","164","164","240","237.1485","162.6685","39360","39360","38576.5967","td","null","null","null","null","null","null","[3,1]","494.76812698567034","141.24240379976573","522.9860144095278"
"","canvas-keyboard-response","31","157422","0.0-6.0-4.3","576","","","","","clear_screen","null","null","","","critical","d","c","t","237.1485","162.6685","164","240","240","164","spektor","0.02","w","240","164","164","240","237.1485","162.6685","39360","39360","38576.5967","td","null","null","null","null","null","null","[3,1]","494.76812698567034","141.24240379976573","522.9860144095278"
"","canvas-keyboard-response","32","158825","0.0-6.0-5.3","576","","","","","make choice","1394","1","","","critical","d","c","t","237.1485","162.6685","164","240","240","164","spektor","0.02","w","240","164","164","240","237.1485","162.6685","39360","39360","38576.5967","td","null","null","null","null","null","null","[3,1]","","",""
"","canvas-keyboard-response","33","158842","0.0-6.0-6.3","576","","","","","clear_screen","null","null","","","critical","d","c","t","237.1485","162.6685","164","240","240","164","spektor","0.02","w","240","164","164","240","237.1485","162.6685","39360","39360","38576.5967","td","null","null","null","null","null","null","[3,1]","","",""
"","canvas-keyboard-response","34","159043","0.0-6.0-0.4","576","","","","","pre trial waiting period","null","null","","","catch","sw","l","sh","180","200","259","189","181","205","spektor","null","null","null","null","null","null","null","null","null","null","null","","180","200","260","200","36000","52000","[2,3]","516.1131331378723","165.56810855366328","478.1552036053662"
"","canvas-keyboard-response","35","159067","0.0-6.0-1.4","576","","","","","clear_screen","null","null","","","catch","sw","l","sh","180","200","259","189","181","205","spektor","null","null","null","null","null","null","null","null","null","null","null","","180","200","260","200","36000","52000","[2,3]","516.1131331378723","165.56810855366328","478.1552036053662"
"","canvas-keyboard-response","36","159574","0.0-6.0-2.4","576","","","","","rectangles no change","null","null","","","catch","sw","l","sh","180","200","259","189","181","205","spektor","null","null","null","null","null","null","null","null","null","null","null","","180","200","260","200","36000","52000","[2,3]","516.1131331378723","165.56810855366328","478.1552036053662"
"","canvas-keyboard-response","37","160911","0.0-6.0-3.4","576","","","","","rectangles with change","null","null","","","catch","sw","l","sh","180","200","259","189","181","205","spektor","null","null","null","null","null","null","null","null","null","null","null","","180","200","260","200","36000","52000","[2,3]","516.1131331378723","165.56810855366328","478.1552036053662"
"","canvas-keyboard-response","38","160930","0.0-6.0-4.4","576","","","","","clear_screen","null","null","","","catch","sw","l","sh","180","200","259","189","181","205","spektor","null","null","null","null","null","null","null","null","null","null","null","","180","200","260","200","36000","52000","[2,3]","516.1131331378723","165.56810855366328","478.1552036053662"
"","canvas-keyboard-response","39","161969","0.0-6.0-5.4","576","","","","","make choice","1032","2","","","catch","sw","l","sh","180","200","259","189","181","205","spektor","null","null","null","null","null","null","null","null","null","null","null","","180","200","260","200","36000","52000","[2,3]","","",""
"","canvas-keyboard-response","40","161986","0.0-6.0-6.4","576","","","","","clear_screen","null","null","","","catch","sw","l","sh","180","200","259","189","181","205","spektor","null","null","null","null","null","null","null","null","null","null","null","","180","200","260","200","36000","52000","[2,3]","","",""
"","canvas-keyboard-response","41","162187","0.0-6.0-0.5","576","","","","","pre trial waiting period","null","null","","","catch","sh","l","sw","186","160","257","167","151","239","spektor","null","null","null","null","null","null","null","null","null","null","null","","180","200","260","200","36000","52000","[2,3]","501.168548821098","201.92813940003617","485.5824679828587"
"","canvas-keyboard-response","42","162211","0.0-6.0-1.5","576","","","","","clear_screen","null","null","","","catch","sh","l","sw","186","160","257","167","151","239","spektor","null","null","null","null","null","null","null","null","null","null","null","","180","200","260","200","36000","52000","[2,3]","501.168548821098","201.92813940003617","485.5824679828587"
"","canvas-keyboard-response","43","162721","0.0-6.0-2.5","576","","","","","rectangles no change","null","null","","","catch","sh","l","sw","186","160","257","167","151","239","spektor","null","null","null","null","null","null","null","null","null","null","null","","180","200","260","200","36000","52000","[2,3]","501.168548821098","201.92813940003617","485.5824679828587"
"","canvas-keyboard-response","44","164056","0.0-6.0-3.5","576","","","","","rectangles with change","null","null","","","catch","sh","l","sw","186","160","257","167","151","239","spektor","null","null","null","null","null","null","null","null","null","null","null","","180","200","260","200","36000","52000","[2,3]","501.168548821098","201.92813940003617","485.5824679828587"
"","canvas-keyboard-response","45","164075","0.0-6.0-4.5","576","","","","","clear_screen","null","null","","","catch","sh","l","sw","186","160","257","167","151","239","spektor","null","null","null","null","null","null","null","null","null","null","null","","180","200","260","200","36000","52000","[2,3]","501.168548821098","201.92813940003617","485.5824679828587"
"","canvas-keyboard-response","46","164849","0.0-6.0-5.5","576","","","","","make choice","769","2","","","catch","sh","l","sw","186","160","257","167","151","239","spektor","null","null","null","null","null","null","null","null","null","null","null","","180","200","260","200","36000","52000","[2,3]","","",""
"","canvas-keyboard-response","47","164867","0.0-6.0-6.5","576","","","","","clear_screen","null","null","","","catch","sh","l","sw","186","160","257","167","151","239","spektor","null","null","null","null","null","null","null","null","null","null","null","","180","200","260","200","36000","52000","[2,3]","","",""
"","canvas-keyboard-response","48","165068","0.0-6.0-0.6","576","","","","","pre trial waiting period","null","null","","","catch","sh","sw","l","179","159","180","211","230","238","trueblood","null","null","null","null","null","null","null","null","null","null","null","","180","200","260","200","36000","52000","[1,3]","518.8602811299545","475.78887486238904","425.77973055221014"
"","canvas-keyboard-response","49","165087","0.0-6.0-1.6","576","","","","","clear_screen","null","null","","","catch","sh","sw","l","179","159","180","211","230","238","trueblood","null","null","null","null","null","null","null","null","null","null","null","","180","200","260","200","36000","52000","[1,3]","518.8602811299545","475.78887486238904","425.77973055221014"
"","canvas-keyboard-response","50","165592","0.0-6.0-2.6","576","","","","","rectangles no change","null","null","","","catch","sh","sw","l","179","159","180","211","230","238","trueblood","null","null","null","null","null","null","null","null","null","null","null","","180","200","260","200","36000","52000","[1,3]","518.8602811299545","475.78887486238904","425.77973055221014"
"","canvas-keyboard-response","51","166930","0.0-6.0-3.6","576","","","","","rectangles with change","null","null","","","catch","sh","sw","l","179","159","180","211","230","238","trueblood","null","null","null","null","null","null","null","null","null","null","null","","180","200","260","200","36000","52000","[1,3]","518.8602811299545","475.78887486238904","425.77973055221014"
"","canvas-keyboard-response","52","166951","0.0-6.0-4.6","576","","","","","clear_screen","null","null","","","catch","sh","sw","l","179","159","180","211","230","238","trueblood","null","null","null","null","null","null","null","null","null","null","null","","180","200","260","200","36000","52000","[1,3]","518.8602811299545","475.78887486238904","425.77973055221014"
"","canvas-keyboard-response","53","167969","0.0-6.0-5.6","576","","","","","make choice","1013","3","","","catch","sh","sw","l","179","159","180","211","230","238","trueblood","null","null","null","null","null","null","null","null","null","null","null","","180","200","260","200","36000","52000","[1,3]","","",""
"","canvas-keyboard-response","54","167985","0.0-6.0-6.6","576","","","","","clear_screen","null","null","","","catch","sh","sw","l","179","159","180","211","230","238","trueblood","null","null","null","null","null","null","null","null","null","null","null","","180","200","260","200","36000","52000","[1,3]","","",""
"","canvas-keyboard-response","55","168185","0.0-6.0-0.7","576","","","","","pre trial waiting period","null","null","","","critical","t","d","c","164","240","162.6685","237.1485","240","164","trueblood","0.02","h","164","240","240","164","162.6685","237.1485","39360","39360","38576.5967","td","null","null","null","null","null","null","[1,2]","462.14960587426185","420.94443796915067","476.69823205479344"
"","canvas-keyboard-response","56","168207","0.0-6.0-1.7","576","","","","","clear_screen","null","null","","","critical","t","d","c","164","240","162.6685","237.1485","240","164","trueblood","0.02","h","164","240","240","164","162.6685","237.1485","39360","39360","38576.5967","td","null","null","null","null","null","null","[1,2]","462.14960587426185","420.94443796915067","476.69823205479344"
"","canvas-keyboard-response","57","168713","0.0-6.0-2.7","576","","","","","rectangles no change","null","null","","","critical","t","d","c","164","240","162.6685","237.1485","240","164","trueblood","0.02","h","164","240","240","164","162.6685","237.1485","39360","39360","38576.5967","td","null","null","null","null","null","null","[1,2]","462.14960587426185","420.94443796915067","476.69823205479344"
"","canvas-keyboard-response","58","170048","0.0-6.0-3.7","576","","","","","rectangles with change","null","null","","","critical","t","d","c","164","240","162.6685","237.1485","240","164","trueblood","0.02","h","164","240","240","164","162.6685","237.1485","39360","39360","38576.5967","td","null","null","null","null","null","null","[1,2]","462.14960587426185","420.94443796915067","476.69823205479344"
"","canvas-keyboard-response","59","170068","0.0-6.0-4.7","576","","","","","clear_screen","null","null","","","critical","t","d","c","164","240","162.6685","237.1485","240","164","trueblood","0.02","h","164","240","240","164","162.6685","237.1485","39360","39360","38576.5967","td","null","null","null","null","null","null","[1,2]","462.14960587426185","420.94443796915067","476.69823205479344"
"","canvas-keyboard-response","60","170841","0.0-6.0-5.7","576","","","","","make choice","769","1","","","critical","t","d","c","164","240","162.6685","237.1485","240","164","trueblood","0.02","h","164","240","240","164","162.6685","237.1485","39360","39360","38576.5967","td","null","null","null","null","null","null","[1,2]","","",""
"","canvas-keyboard-response","61","170858","0.0-6.0-6.7","576","","","","","clear_screen","null","null","","","critical","t","d","c","164","240","162.6685","237.1485","240","164","trueblood","0.02","h","164","240","240","164","162.6685","237.1485","39360","39360","38576.5967","td","null","null","null","null","null","null","[1,2]","","",""
"","canvas-keyboard-response","62","171059","0.0-6.0-0.8","576","","","","","pre trial waiting period","null","null","","","critical","d","c","t","240","164","164","240","240","164","trueblood","0","w","240","164","164","240","240","164","39360","39360","39360","td","null","null","null","null","null","null","[3,1]","496.13364275962704","426.5804812539152","473.8881349731143"
"","canvas-keyboard-response","63","171080","0.0-6.0-1.8","576","","","","","clear_screen","null","null","","","critical","d","c","t","240","164","164","240","240","164","trueblood","0","w","240","164","164","240","240","164","39360","39360","39360","td","null","null","null","null","null","null","[3,1]","496.13364275962704","426.5804812539152","473.8881349731143"
"","canvas-keyboard-response","64","171588","0.0-6.0-2.8","576","","","","","rectangles no change","null","null","","","critical","d","c","t","240","164","164","240","240","164","trueblood","0","w","240","164","164","240","240","164","39360","39360","39360","td","null","null","null","null","null","null","[3,1]","496.13364275962704","426.5804812539152","473.8881349731143"
"","canvas-keyboard-response","65","172919","0.0-6.0-3.8","576","","","","","rectangles with change","null","null","","","critical","d","c","t","240","164","164","240","240","164","trueblood","0","w","240","164","164","240","240","164","39360","39360","39360","td","null","null","null","null","null","null","[3,1]","496.13364275962704","426.5804812539152","473.8881349731143"
"","canvas-keyboard-response","66","172939","0.0-6.0-4.8","576","","","","","clear_screen","null","null","","","critical","d","c","t","240","164","164","240","240","164","trueblood","0","w","240","164","164","240","240","164","39360","39360","39360","td","null","null","null","null","null","null","[3,1]","496.13364275962704","426.5804812539152","473.8881349731143"
"","canvas-keyboard-response","67","174464","0.0-6.0-5.8","576","","","","","make choice","1516","3","","","critical","d","c","t","240","164","164","240","240","164","trueblood","0","w","240","164","164","240","240","164","39360","39360","39360","td","null","null","null","null","null","null","[3,1]","","",""
"","canvas-keyboard-response","68","174483","0.0-6.0-6.8","576","","","","","clear_screen","null","null","","","critical","d","c","t","240","164","164","240","240","164","trueblood","0","w","240","164","164","240","240","164","39360","39360","39360","td","null","null","null","null","null","null","[3,1]","","",""
"","canvas-keyboard-response","69","174684","0.0-6.0-0.9","576","","","","","pre trial waiting period","null","null","","","critical","t","d","c","164","240","162.6685","237.1485","240","164","trueblood","0.02","h","164","240","240","164","162.6685","237.1485","39360","39360","38576.5967","dc","null","null","null","null","null","null","[2,3]","422.6545488133187","442.74626146964897","508.6211789111043"
"","canvas-keyboard-response","70","174708","0.0-6.0-1.9","576","","","","","clear_screen","null","null","","","critical","t","d","c","164","240","162.6685","237.1485","240","164","trueblood","0.02","h","164","240","240","164","162.6685","237.1485","39360","39360","38576.5967","dc","null","null","null","null","null","null","[2,3]","422.6545488133187","442.74626146964897","508.6211789111043"
"","canvas-keyboard-response","71","175213","0.0-6.0-2.9","576","","","","","rectangles no change","null","null","","","critical","t","d","c","164","240","162.6685","237.1485","240","164","trueblood","0.02","h","164","240","240","164","162.6685","237.1485","39360","39360","38576.5967","dc","null","null","null","null","null","null","[2,3]","422.6545488133187","442.74626146964897","508.6211789111043"
"","canvas-keyboard-response","72","176548","0.0-6.0-3.9","576","","","","","rectangles with change","null","null","","","critical","t","d","c","164","240","162.6685","237.1485","240","164","trueblood","0.02","h","164","240","240","164","162.6685","237.1485","39360","39360","38576.5967","dc","null","null","null","null","null","null","[2,3]","422.6545488133187","442.74626146964897","508.6211789111043"
"","canvas-keyboard-response","73","176568","0.0-6.0-4.9","576","","","","","clear_screen","null","null","","","critical","t","d","c","164","240","162.6685","237.1485","240","164","trueblood","0.02","h","164","240","240","164","162.6685","237.1485","39360","39360","38576.5967","dc","null","null","null","null","null","null","[2,3]","422.6545488133187","442.74626146964897","508.6211789111043"
"","canvas-keyboard-response","74","178376","0.0-6.0-5.9","576","","","","","make choice","1804","3","","","critical","t","d","c","164","240","162.6685","237.1485","240","164","trueblood","0.02","h","164","240","240","164","162.6685","237.1485","39360","39360","38576.5967","dc","null","null","null","null","null","null","[2,3]","","",""
"","canvas-keyboard-response","75","178395","0.0-6.0-6.9","576","","","","","clear_screen","null","null","","","critical","t","d","c","164","240","162.6685","237.1485","240","164","trueblood","0.02","h","164","240","240","164","162.6685","237.1485","39360","39360","38576.5967","dc","null","null","null","null","null","null","[2,3]","","",""
"","canvas-keyboard-response","76","178596","0.0-6.0-0.10","576","","","","","pre trial waiting period","null","null","","","catch","sh","sw","l","213","201","146","212","281","191","spektor","null","null","null","null","null","null","null","null","null","null","null","","180","200","260","200","36000","52000","[2,3]","480.4870985110006","170.47762436631245","498.18729226045815"
"","canvas-keyboard-response","77","178619","0.0-6.0-1.10","576","","","","","clear_screen","null","null","","","catch","sh","sw","l","213","201","146","212","281","191","spektor","null","null","null","null","null","null","null","null","null","null","null","","180","200","260","200","36000","52000","[2,3]","480.4870985110006","170.47762436631245","498.18729226045815"
"","canvas-keyboard-response","78","179127","0.0-6.0-2.10","576","","","","","rectangles no change","null","null","","","catch","sh","sw","l","213","201","146","212","281","191","spektor","null","null","null","null","null","null","null","null","null","null","null","","180","200","260","200","36000","52000","[2,3]","480.4870985110006","170.47762436631245","498.18729226045815"
"","canvas-keyboard-response","79","180466","0.0-6.0-3.10","576","","","","","rectangles with change","null","null","","","catch","sh","sw","l","213","201","146","212","281","191","spektor","null","null","null","null","null","null","null","null","null","null","null","","180","200","260","200","36000","52000","[2,3]","480.4870985110006","170.47762436631245","498.18729226045815"
"","canvas-keyboard-response","80","180487","0.0-6.0-4.10","576","","","","","clear_screen","null","null","","","catch","sh","sw","l","213","201","146","212","281","191","spektor","null","null","null","null","null","null","null","null","null","null","null","","180","200","260","200","36000","52000","[2,3]","480.4870985110006","170.47762436631245","498.18729226045815"
"","canvas-keyboard-response","81","181393","0.0-6.0-5.10","576","","","","","make choice","903","3","","","catch","sh","sw","l","213","201","146","212","281","191","spektor","null","null","null","null","null","null","null","null","null","null","null","","180","200","260","200","36000","52000","[2,3]","","",""
"","canvas-keyboard-response","82","181411","0.0-6.0-6.10","576","","","","","clear_screen","null","null","","","catch","sh","sw","l","213","201","146","212","281","191","spektor","null","null","null","null","null","null","null","null","null","null","null","","180","200","260","200","36000","52000","[2,3]","","",""
"","canvas-keyboard-response","83","181612","0.0-6.0-0.11","576","","","","","pre trial waiting period","null","null","","","critical","c","t","d","164","240","240","164","220.0396","154.6796","trueblood","0.14","w","240","164","164","240","220.0396","154.6796","39360","39360","34035.6388","td","null","null","null","null","null","null","[2,3]","439.62890948367084","480.10683652175555","477.9299030594994"
"","canvas-keyboard-response","84","181632","0.0-6.0-1.11","576","","","","","clear_screen","null","null","","","critical","c","t","d","164","240","240","164","220.0396","154.6796","trueblood","0.14","w","240","164","164","240","220.0396","154.6796","39360","39360","34035.6388","td","null","null","null","null","null","null","[2,3]","439.62890948367084","480.10683652175555","477.9299030594994"
"","canvas-keyboard-response","85","182140","0.0-6.0-2.11","576","","","","","rectangles no change","null","null","","","critical","c","t","d","164","240","240","164","220.0396","154.6796","trueblood","0.14","w","240","164","164","240","220.0396","154.6796","39360","39360","34035.6388","td","null","null","null","null","null","null","[2,3]","439.62890948367084","480.10683652175555","477.9299030594994"
"","canvas-keyboard-response","86","183476","0.0-6.0-3.11","576","","","","","rectangles with change","null","null","","","critical","c","t","d","164","240","240","164","220.0396","154.6796","trueblood","0.14","w","240","164","164","240","220.0396","154.6796","39360","39360","34035.6388","td","null","null","null","null","null","null","[2,3]","439.62890948367084","480.10683652175555","477.9299030594994"
"","canvas-keyboard-response","87","183494","0.0-6.0-4.11","576","","","","","clear_screen","null","null","","","critical","c","t","d","164","240","240","164","220.0396","154.6796","trueblood","0.14","w","240","164","164","240","220.0396","154.6796","39360","39360","34035.6388","td","null","null","null","null","null","null","[2,3]","439.62890948367084","480.10683652175555","477.9299030594994"
"","canvas-keyboard-response","88","184160","0.0-6.0-5.11","576","","","","","make choice","661","2","","","critical","c","t","d","164","240","240","164","220.0396","154.6796","trueblood","0.14","w","240","164","164","240","220.0396","154.6796","39360","39360","34035.6388","td","null","null","null","null","null","null","[2,3]","","",""
"","canvas-keyboard-response","89","184179","0.0-6.0-6.11","576","","","","","clear_screen","null","null","","","critical","c","t","d","164","240","240","164","220.0396","154.6796","trueblood","0.14","w","240","164","164","240","220.0396","154.6796","39360","39360","34035.6388","td","null","null","null","null","null","null","[2,3]","","",""
"","canvas-keyboard-response","90","184380","0.0-6.0-0.12","576","","","","","pre trial waiting period","null","null","","","critical","c","t","d","240","164","164","240","164","240","trueblood","0","h","164","240","240","164","164","240","39360","39360","39360","td","null","null","null","null","null","null","[2,3]","503.5924963196946","419.17032492042597","468.48042878736175"
"","canvas-keyboard-response","91","184400","0.0-6.0-1.12","576","","","","","clear_screen","null","null","","","critical","c","t","d","240","164","164","240","164","240","trueblood","0","h","164","240","240","164","164","240","39360","39360","39360","td","null","null","null","null","null","null","[2,3]","503.5924963196946","419.17032492042597","468.48042878736175"
"","canvas-keyboard-response","92","184911","0.0-6.0-2.12","576","","","","","rectangles no change","null","null","","","critical","c","t","d","240","164","164","240","164","240","trueblood","0","h","164","240","240","164","164","240","39360","39360","39360","td","null","null","null","null","null","null","[2,3]","503.5924963196946","419.17032492042597","468.48042878736175"
"","canvas-keyboard-response","93","186249","0.0-6.0-3.12","576","","","","","rectangles with change","null","null","","","critical","c","t","d","240","164","164","240","164","240","trueblood","0","h","164","240","240","164","164","240","39360","39360","39360","td","null","null","null","null","null","null","[2,3]","503.5924963196946","419.17032492042597","468.48042878736175"
"","canvas-keyboard-response","94","186275","0.0-6.0-4.12","576","","","","","clear_screen","null","null","","","critical","c","t","d","240","164","164","240","164","240","trueblood","0","h","164","240","240","164","164","240","39360","39360","39360","td","null","null","null","null","null","null","[2,3]","503.5924963196946","419.17032492042597","468.48042878736175"
"","canvas-keyboard-response","95","187296","0.0-6.0-5.12","576","","","","","make choice","1017","2","","","critical","c","t","d","240","164","164","240","164","240","trueblood","0","h","164","240","240","164","164","240","39360","39360","39360","td","null","null","null","null","null","null","[2,3]","","",""
"","canvas-keyboard-response","96","187313","0.0-6.0-6.12","576","","","","","clear_screen","null","null","","","critical","c","t","d","240","164","164","240","164","240","trueblood","0","h","164","240","240","164","164","240","39360","39360","39360","td","null","null","null","null","null","null","[2,3]","","",""
"","canvas-keyboard-response","97","187514","0.0-6.0-0.13","576","","","","","pre trial waiting period","null","null","","","critical","c","t","d","164","240","240","164","237.1485","162.6685","spektor","0.02","w","240","164","164","240","237.1485","162.6685","39360","39360","38576.5967","tc","null","null","null","null","null","null","[2,1]","471.33536051869345","173.48779160829397","539.7228054473262"
"","canvas-keyboard-response","98","187539","0.0-6.0-1.13","576","","","","","clear_screen","null","null","","","critical","c","t","d","164","240","240","164","237.1485","162.6685","spektor","0.02","w","240","164","164","240","237.1485","162.6685","39360","39360","38576.5967","tc","null","null","null","null","null","null","[2,1]","471.33536051869345","173.48779160829397","539.7228054473262"
"","canvas-keyboard-response","99","188045","0.0-6.0-2.13","576","","","","","rectangles no change","null","null","","","critical","c","t","d","164","240","240","164","237.1485","162.6685","spektor","0.02","w","240","164","164","240","237.1485","162.6685","39360","39360","38576.5967","tc","null","null","null","null","null","null","[2,1]","471.33536051869345","173.48779160829397","539.7228054473262"
"","canvas-keyboard-response","100","189385","0.0-6.0-3.13","576","","","","","rectangles with change","null","null","","","critical","c","t","d","164","240","240","164","237.1485","162.6685","spektor","0.02","w","240","164","164","240","237.1485","162.6685","39360","39360","38576.5967","tc","null","null","null","null","null","null","[2,1]","471.33536051869345","173.48779160829397","539.7228054473262"
"","canvas-keyboard-response","101","189408","0.0-6.0-4.13","576","","","","","clear_screen","null","null","","","critical","c","t","d","164","240","240","164","237.1485","162.6685","spektor","0.02","w","240","164","164","240","237.1485","162.6685","39360","39360","38576.5967","tc","null","null","null","null","null","null","[2,1]","471.33536051869345","173.48779160829397","539.7228054473262"
"","canvas-keyboard-response","102","190000","0.0-6.0-5.13","576","","","","","make choice","590","2","","","critical","c","t","d","164","240","240","164","237.1485","162.6685","spektor","0.02","w","240","164","164","240","237.1485","162.6685","39360","39360","38576.5967","tc","null","null","null","null","null","null","[2,1]","","",""
"","canvas-keyboard-response","103","190020","0.0-6.0-6.13","576","","","","","clear_screen","null","null","","","critical","c","t","d","164","240","240","164","237.1485","162.6685","spektor","0.02","w","240","164","164","240","237.1485","162.6685","39360","39360","38576.5967","tc","null","null","null","null","null","null","[2,1]","","",""
"","canvas-keyboard-response","104","190220","0.0-6.0-0.14","576","","","","","pre trial waiting period","null","null","","","critical","d","c","t","158.0083","227.1683","240","164","164","240","trueblood","0.09","h","164","240","240","164","158.0083","227.1683","39360","39360","35894.4834","td","null","null","null","null","null","null","[3,1]","452.6187560918312","502.2582688176562","439.8853959176268"
"","canvas-keyboard-response","105","190243","0.0-6.0-1.14","576","","","","","clear_screen","null","null","","","critical","d","c","t","158.0083","227.1683","240","164","164","240","trueblood","0.09","h","164","240","240","164","158.0083","227.1683","39360","39360","35894.4834","td","null","null","null","null","null","null","[3,1]","452.6187560918312","502.2582688176562","439.8853959176268"
"","canvas-keyboard-response","106","190749","0.0-6.0-2.14","576","","","","","rectangles no change","null","null","","","critical","d","c","t","158.0083","227.1683","240","164","164","240","trueblood","0.09","h","164","240","240","164","158.0083","227.1683","39360","39360","35894.4834","td","null","null","null","null","null","null","[3,1]","452.6187560918312","502.2582688176562","439.8853959176268"
"","canvas-keyboard-response","107","192085","0.0-6.0-3.14","576","","","","","rectangles with change","null","null","","","critical","d","c","t","158.0083","227.1683","240","164","164","240","trueblood","0.09","h","164","240","240","164","158.0083","227.1683","39360","39360","35894.4834","td","null","null","null","null","null","null","[3,1]","452.6187560918312","502.2582688176562","439.8853959176268"
"","canvas-keyboard-response","108","192103","0.0-6.0-4.14","576","","","","","clear_screen","null","null","","","critical","d","c","t","158.0083","227.1683","240","164","164","240","trueblood","0.09","h","164","240","240","164","158.0083","227.1683","39360","39360","35894.4834","td","null","null","null","null","null","null","[3,1]","452.6187560918312","502.2582688176562","439.8853959176268"
"","canvas-keyboard-response","109","192928","0.0-6.0-5.14","576","","","","","make choice","820","3","","","critical","d","c","t","158.0083","227.1683","240","164","164","240","trueblood","0.09","h","164","240","240","164","158.0083","227.1683","39360","39360","35894.4834","td","null","null","null","null","null","null","[3,1]","","",""
"","canvas-keyboard-response","110","192949","0.0-6.0-6.14","576","","","","","clear_screen","null","null","","","critical","d","c","t","158.0083","227.1683","240","164","164","240","trueblood","0.09","h","164","240","240","164","158.0083","227.1683","39360","39360","35894.4834","td","null","null","null","null","null","null","[3,1]","","",""
"","canvas-keyboard-response","111","193150","0.0-6.0-0.15","576","","","","","pre trial waiting period","null","null","","","critical","d","c","t","154.6796","220.0396","240","164","164","240","trueblood","0.14","h","164","240","240","164","154.6796","220.0396","39360","39360","34035.6388","td","null","null","null","null","null","null","[3,1]","479.75321190690084","506.6621095780312","443.5756333468824"
"","canvas-keyboard-response","112","193174","0.0-6.0-1.15","576","","","","","clear_screen","null","null","","","critical","d","c","t","154.6796","220.0396","240","164","164","240","trueblood","0.14","h","164","240","240","164","154.6796","220.0396","39360","39360","34035.6388","td","null","null","null","null","null","null","[3,1]","479.75321190690084","506.6621095780312","443.5756333468824"
"","canvas-keyboard-response","113","193680","0.0-6.0-2.15","576","","","","","rectangles no change","null","null","","","critical","d","c","t","154.6796","220.0396","240","164","164","240","trueblood","0.14","h","164","240","240","164","154.6796","220.0396","39360","39360","34035.6388","td","null","null","null","null","null","null","[3,1]","479.75321190690084","506.6621095780312","443.5756333468824"
"","canvas-keyboard-response","114","195012","0.0-6.0-3.15","576","","","","","rectangles with change","null","null","","","critical","d","c","t","154.6796","220.0396","240","164","164","240","trueblood","0.14","h","164","240","240","164","154.6796","220.0396","39360","39360","34035.6388","td","null","null","null","null","null","null","[3,1]","479.75321190690084","506.6621095780312","443.5756333468824"
"","canvas-keyboard-response","115","195031","0.0-6.0-4.15","576","","","","","clear_screen","null","null","","","critical","d","c","t","154.6796","220.0396","240","164","164","240","trueblood","0.14","h","164","240","240","164","154.6796","220.0396","39360","39360","34035.6388","td","null","null","null","null","null","null","[3,1]","479.75321190690084","506.6621095780312","443.5756333468824"
"","canvas-keyboard-response","116","195720","0.0-6.0-5.15","576","","","","","make choice","679","3","","","critical","d","c","t","154.6796","220.0396","240","164","164","240","trueblood","0.14","h","164","240","240","164","154.6796","220.0396","39360","39360","34035.6388","td","null","null","null","null","null","null","[3,1]","","",""
"","canvas-keyboard-response","117","195737","0.0-6.0-6.15","576","","","","","clear_screen","null","null","","","critical","d","c","t","154.6796","220.0396","240","164","164","240","trueblood","0.14","h","164","240","240","164","154.6796","220.0396","39360","39360","34035.6388","td","null","null","null","null","null","null","[3,1]","","",""
"","canvas-keyboard-response","118","195938","0.0-6.0-0.16","576","","","","","pre trial waiting period","null","null","","","critical","d","t","c","154.6796","220.0396","164","240","240","164","spektor","0.14","h","164","240","240","164","154.6796","220.0396","39360","39360","34035.6388","td","null","null","null","null","null","null","[2,1]","514.8209302903856","130.1755070183406","540.2622016200445"
"","canvas-keyboard-response","119","195959","0.0-6.0-1.16","576","","","","","clear_screen","null","null","","","critical","d","t","c","154.6796","220.0396","164","240","240","164","spektor","0.14","h","164","240","240","164","154.6796","220.0396","39360","39360","34035.6388","td","null","null","null","null","null","null","[2,1]","514.8209302903856","130.1755070183406","540.2622016200445"
"","canvas-keyboard-response","120","196466","0.0-6.0-2.16","576","","","","","rectangles no change","null","null","","","critical","d","t","c","154.6796","220.0396","164","240","240","164","spektor","0.14","h","164","240","240","164","154.6796","220.0396","39360","39360","34035.6388","td","null","null","null","null","null","null","[2,1]","514.8209302903856","130.1755070183406","540.2622016200445"
"","canvas-keyboard-response","121","197801","0.0-6.0-3.16","576","","","","","rectangles with change","null","null","","","critical","d","t","c","154.6796","220.0396","164","240","240","164","spektor","0.14","h","164","240","240","164","154.6796","220.0396","39360","39360","34035.6388","td","null","null","null","null","null","null","[2,1]","514.8209302903856","130.1755070183406","540.2622016200445"
"","canvas-keyboard-response","122","197820","0.0-6.0-4.16","576","","","","","clear_screen","null","null","","","critical","d","t","c","154.6796","220.0396","164","240","240","164","spektor","0.14","h","164","240","240","164","154.6796","220.0396","39360","39360","34035.6388","td","null","null","null","null","null","null","[2,1]","514.8209302903856","130.1755070183406","540.2622016200445"
"","canvas-keyboard-response","123","198366","0.0-6.0-5.16","576","","","","","make choice","539","2","","","critical","d","t","c","154.6796","220.0396","164","240","240","164","spektor","0.14","h","164","240","240","164","154.6796","220.0396","39360","39360","34035.6388","td","null","null","null","null","null","null","[2,1]","","",""
"","canvas-keyboard-response","124","198381","0.0-6.0-6.16","576","","","","","clear_screen","null","null","","","critical","d","t","c","154.6796","220.0396","164","240","240","164","spektor","0.14","h","164","240","240","164","154.6796","220.0396","39360","39360","34035.6388","td","null","null","null","null","null","null","[2,1]","","",""
"","canvas-keyboard-response","125","198583","0.0-6.0-0.17","576","","","","","pre trial waiting period","null","null","","","critical","t","c","d","164","240","240","164","158.0083","227.1683","spektor","0.09","h","164","240","240","164","158.0083","227.1683","39360","39360","35894.4834","td","null","null","null","null","null","null","[1,3]","499.93108756969866","184.32801081982745","491.3798616782465"
"","canvas-keyboard-response","126","198603","0.0-6.0-1.17","576","","","","","clear_screen","null","null","","","critical","t","c","d","164","240","240","164","158.0083","227.1683","spektor","0.09","h","164","240","240","164","158.0083","227.1683","39360","39360","35894.4834","td","null","null","null","null","null","null","[1,3]","499.93108756969866","184.32801081982745","491.3798616782465"
"","canvas-keyboard-response","127","199112","0.0-6.0-2.17","576","","","","","rectangles no change","null","null","","","critical","t","c","d","164","240","240","164","158.0083","227.1683","spektor","0.09","h","164","240","240","164","158.0083","227.1683","39360","39360","35894.4834","td","null","null","null","null","null","null","[1,3]","499.93108756969866","184.32801081982745","491.3798616782465"
"","canvas-keyboard-response","128","200451","0.0-6.0-3.17","576","","","","","rectangles with change","null","null","","","critical","t","c","d","164","240","240","164","158.0083","227.1683","spektor","0.09","h","164","240","240","164","158.0083","227.1683","39360","39360","35894.4834","td","null","null","null","null","null","null","[1,3]","499.93108756969866","184.32801081982745","491.3798616782465"
"","canvas-keyboard-response","129","200472","0.0-6.0-4.17","576","","","","","clear_screen","null","null","","","critical","t","c","d","164","240","240","164","158.0083","227.1683","spektor","0.09","h","164","240","240","164","158.0083","227.1683","39360","39360","35894.4834","td","null","null","null","null","null","null","[1,3]","499.93108756969866","184.32801081982745","491.3798616782465"
"","canvas-keyboard-response","130","200824","0.0-6.0-5.17","576","","","","","make choice","346","1","","","critical","t","c","d","164","240","240","164","158.0083","227.1683","spektor","0.09","h","164","240","240","164","158.0083","227.1683","39360","39360","35894.4834","td","null","null","null","null","null","null","[1,3]","","",""
"","canvas-keyboard-response","131","200843","0.0-6.0-6.17","576","","","","","clear_screen","null","null","","","critical","t","c","d","164","240","240","164","158.0083","227.1683","spektor","0.09","h","164","240","240","164","158.0083","227.1683","39360","39360","35894.4834","td","null","null","null","null","null","null","[1,3]","","",""
"","canvas-keyboard-response","132","201044","0.0-6.0-0.18","576","","","","","pre trial waiting period","null","null","","","critical","t","c","d","164","240","240","164","162.6685","237.1485","spektor","0.02","h","164","240","240","164","162.6685","237.1485","39360","39360","38576.5967","td","null","null","null","null","null","null","[1,3]","466.0403419184999","188.78873113850207","471.12047684318037"
"","canvas-keyboard-response","133","201064","0.0-6.0-1.18","576","","","","","clear_screen","null","null","","","critical","t","c","d","164","240","240","164","162.6685","237.1485","spektor","0.02","h","164","240","240","164","162.6685","237.1485","39360","39360","38576.5967","td","null","null","null","null","null","null","[1,3]","466.0403419184999","188.78873113850207","471.12047684318037"
"","canvas-keyboard-response","134","201570","0.0-6.0-2.18","576","","","","","rectangles no change","null","null","","","critical","t","c","d","164","240","240","164","162.6685","237.1485","spektor","0.02","h","164","240","240","164","162.6685","237.1485","39360","39360","38576.5967","td","null","null","null","null","null","null","[1,3]","466.0403419184999","188.78873113850207","471.12047684318037"
"","canvas-keyboard-response","135","202910","0.0-6.0-3.18","576","","","","","rectangles with change","null","null","","","critical","t","c","d","164","240","240","164","162.6685","237.1485","spektor","0.02","h","164","240","240","164","162.6685","237.1485","39360","39360","38576.5967","td","null","null","null","null","null","null","[1,3]","466.0403419184999","188.78873113850207","471.12047684318037"
"","canvas-keyboard-response","136","202928","0.0-6.0-4.18","576","","","","","clear_screen","null","null","","","critical","t","c","d","164","240","240","164","162.6685","237.1485","spektor","0.02","h","164","240","240","164","162.6685","237.1485","39360","39360","38576.5967","td","null","null","null","null","null","null","[1,3]","466.0403419184999","188.78873113850207","471.12047684318037"
"","canvas-keyboard-response","137","203568","0.0-6.0-5.18","576","","","","","make choice","635","1","","","critical","t","c","d","164","240","240","164","162.6685","237.1485","spektor","0.02","h","164","240","240","164","162.6685","237.1485","39360","39360","38576.5967","td","null","null","null","null","null","null","[1,3]","","",""
"","canvas-keyboard-response","138","203587","0.0-6.0-6.18","576","","","","","clear_screen","null","null","","","critical","t","c","d","164","240","240","164","162.6685","237.1485","spektor","0.02","h","164","240","240","164","162.6685","237.1485","39360","39360","38576.5967","td","null","null","null","null","null","null","[1,3]","","",""
"","canvas-keyboard-response","139","203789","0.0-6.0-0.19","576","","","","","pre trial waiting period","null","null","","","catch","l","sh","sw","186","291","190","199","168","221","spektor","null","null","null","null","null","null","null","null","null","null","null","","180","200","260","200","36000","52000","[1,3]","440.7766710215537","151.40983389446595","496.16060033985895"
"","canvas-keyboard-response","140","203808","0.0-6.0-1.19","576","","","","","clear_screen","null","null","","","catch","l","sh","sw","186","291","190","199","168","221","spektor","null","null","null","null","null","null","null","null","null","null","null","","180","200","260","200","36000","52000","[1,3]","440.7766710215537","151.40983389446595","496.16060033985895"
"","canvas-keyboard-response","141","204319","0.0-6.0-2.19","576","","","","","rectangles no change","null","null","","","catch","l","sh","sw","186","291","190","199","168","221","spektor","null","null","null","null","null","null","null","null","null","null","null","","180","200","260","200","36000","52000","[1,3]","440.7766710215537","151.40983389446595","496.16060033985895"
"","canvas-keyboard-response","142","205659","0.0-6.0-3.19","576","","","","","rectangles with change","null","null","","","catch","l","sh","sw","186","291","190","199","168","221","spektor","null","null","null","null","null","null","null","null","null","null","null","","180","200","260","200","36000","52000","[1,3]","440.7766710215537","151.40983389446595","496.16060033985895"
"","canvas-keyboard-response","143","205681","0.0-6.0-4.19","576","","","","","clear_screen","null","null","","","catch","l","sh","sw","186","291","190","199","168","221","spektor","null","null","null","null","null","null","null","null","null","null","null","","180","200","260","200","36000","52000","[1,3]","440.7766710215537","151.40983389446595","496.16060033985895"
"","canvas-keyboard-response","144","206152","0.0-6.0-5.19","576","","","","","make choice","467","1","","","catch","l","sh","sw","186","291","190","199","168","221","spektor","null","null","null","null","null","null","null","null","null","null","null","","180","200","260","200","36000","52000","[1,3]","","",""
"","canvas-keyboard-response","145","206171","0.0-6.0-6.19","576","","","","","clear_screen","null","null","","","catch","l","sh","sw","186","291","190","199","168","221","spektor","null","null","null","null","null","null","null","null","null","null","null","","180","200","260","200","36000","52000","[1,3]","","",""
"","canvas-keyboard-response","146","206373","0.0-6.0-0.20","576","","","","","pre trial waiting period","null","null","","","critical","c","d","t","164","240","240","164","240","164","spektor","0","w","240","164","164","240","240","164","39360","39360","39360","dc","null","null","null","null","null","null","[2,1]","460.2096845399793","208.18010333451699","526.0713453967426"
"","canvas-keyboard-response","147","206396","0.0-6.0-1.20","576","","","","","clear_screen","null","null","","","critical","c","d","t","164","240","240","164","240","164","spektor","0","w","240","164","164","240","240","164","39360","39360","39360","dc","null","null","null","null","null","null","[2,1]","460.2096845399793","208.18010333451699","526.0713453967426"
"","canvas-keyboard-response","148","206903","0.0-6.0-2.20","576","","","","","rectangles no change","null","null","","","critical","c","d","t","164","240","240","164","240","164","spektor","0","w","240","164","164","240","240","164","39360","39360","39360","dc","null","null","null","null","null","null","[2,1]","460.2096845399793","208.18010333451699","526.0713453967426"
"","canvas-keyboard-response","149","208242","0.0-6.0-3.20","576","","","","","rectangles with change","null","null","","","critical","c","d","t","164","240","240","164","240","164","spektor","0","w","240","164","164","240","240","164","39360","39360","39360","dc","null","null","null","null","null","null","[2,1]","460.2096845399793","208.18010333451699","526.0713453967426"
"","canvas-keyboard-response","150","208261","0.0-6.0-4.20","576","","","","","clear_screen","null","null","","","critical","c","d","t","164","240","240","164","240","164","spektor","0","w","240","164","164","240","240","164","39360","39360","39360","dc","null","null","null","null","null","null","[2,1]","460.2096845399793","208.18010333451699","526.0713453967426"
"","canvas-keyboard-response","151","209240","0.0-6.0-5.20","576","","","","","make choice","974","2","","","critical","c","d","t","164","240","240","164","240","164","spektor","0","w","240","164","164","240","240","164","39360","39360","39360","dc","null","null","null","null","null","null","[2,1]","","",""
"","canvas-keyboard-response","152","209260","0.0-6.0-6.20","576","","","","","clear_screen","null","null","","","critical","c","d","t","164","240","240","164","240","164","spektor","0","w","240","164","164","240","240","164","39360","39360","39360","dc","null","null","null","null","null","null","[2,1]","","",""
"","canvas-keyboard-response","153","209462","0.0-6.0-0.21","576","","","","","pre trial waiting period","null","null","","","critical","t","d","c","240","164","240","164","164","240","trueblood","0","w","240","164","164","240","240","164","39360","39360","39360","tc","null","null","null","null","null","null","[1,3]","493.64168956991796","484.3389259226616","462.3249265184792"
"","canvas-keyboard-response","154","209479","0.0-6.0-1.21","576","","","","","clear_screen","null","null","","","critical","t","d","c","240","164","240","164","164","240","trueblood","0","w","240","164","164","240","240","164","39360","39360","39360","tc","null","null","null","null","null","null","[1,3]","493.64168956991796","484.3389259226616","462.3249265184792"
"","canvas-keyboard-response","155","209985","0.0-6.0-2.21","576","","","","","rectangles no change","null","null","","","critical","t","d","c","240","164","240","164","164","240","trueblood","0","w","240","164","164","240","240","164","39360","39360","39360","tc","null","null","null","null","null","null","[1,3]","493.64168956991796","484.3389259226616","462.3249265184792"
"","canvas-keyboard-response","156","211323","0.0-6.0-3.21","576","","","","","rectangles with change","null","null","","","critical","t","d","c","240","164","240","164","164","240","trueblood","0","w","240","164","164","240","240","164","39360","39360","39360","tc","null","null","null","null","null","null","[1,3]","493.64168956991796","484.3389259226616","462.3249265184792"
"","canvas-keyboard-response","157","211347","0.0-6.0-4.21","576","","","","","clear_screen","null","null","","","critical","t","d","c","240","164","240","164","164","240","trueblood","0","w","240","164","164","240","240","164","39360","39360","39360","tc","null","null","null","null","null","null","[1,3]","493.64168956991796","484.3389259226616","462.3249265184792"
"","canvas-keyboard-response","158","212024","0.0-6.0-5.21","576","","","","","make choice","667","1","","","critical","t","d","c","240","164","240","164","164","240","trueblood","0","w","240","164","164","240","240","164","39360","39360","39360","tc","null","null","null","null","null","null","[1,3]","","",""
"","canvas-keyboard-response","159","212044","0.0-6.0-6.21","576","","","","","clear_screen","null","null","","","critical","t","d","c","240","164","240","164","164","240","trueblood","0","w","240","164","164","240","240","164","39360","39360","39360","tc","null","null","null","null","null","null","[1,3]","","",""
"","canvas-keyboard-response","160","212246","0.0-6.0-0.22","576","","","","","pre trial waiting period","null","null","","","catch","l","sw","sh","229","298","203","202","213","160","trueblood","null","null","null","null","null","null","null","null","null","null","null","","180","200","260","200","36000","52000","[1,3]","419.1823335360219","477.2176699201378","516.6125499172598"
"","canvas-keyboard-response","161","212267","0.0-6.0-1.22","576","","","","","clear_screen","null","null","","","catch","l","sw","sh","229","298","203","202","213","160","trueblood","null","null","null","null","null","null","null","null","null","null","null","","180","200","260","200","36000","52000","[1,3]","419.1823335360219","477.2176699201378","516.6125499172598"
"","canvas-keyboard-response","162","212772","0.0-6.0-2.22","576","","","","","rectangles no change","null","null","","","catch","l","sw","sh","229","298","203","202","213","160","trueblood","null","null","null","null","null","null","null","null","null","null","null","","180","200","260","200","36000","52000","[1,3]","419.1823335360219","477.2176699201378","516.6125499172598"
"","canvas-keyboard-response","163","214106","0.0-6.0-3.22","576","","","","","rectangles with change","null","null","","","catch","l","sw","sh","229","298","203","202","213","160","trueblood","null","null","null","null","null","null","null","null","null","null","null","","180","200","260","200","36000","52000","[1,3]","419.1823335360219","477.2176699201378","516.6125499172598"
"","canvas-keyboard-response","164","214125","0.0-6.0-4.22","576","","","","","clear_screen","null","null","","","catch","l","sw","sh","229","298","203","202","213","160","trueblood","null","null","null","null","null","null","null","null","null","null","null","","180","200","260","200","36000","52000","[1,3]","419.1823335360219","477.2176699201378","516.6125499172598"
"","canvas-keyboard-response","165","214585","0.0-6.0-5.22","576","","","","","make choice","452","1","","","catch","l","sw","sh","229","298","203","202","213","160","trueblood","null","null","null","null","null","null","null","null","null","null","null","","180","200","260","200","36000","52000","[1,3]","","",""
"","canvas-keyboard-response","166","214605","0.0-6.0-6.22","576","","","","","clear_screen","null","null","","","catch","l","sw","sh","229","298","203","202","213","160","trueblood","null","null","null","null","null","null","null","null","null","null","null","","180","200","260","200","36000","52000","[1,3]","","",""
"","canvas-keyboard-response","167","214806","0.0-6.0-0.23","576","","","","","pre trial waiting period","null","null","","","critical","d","c","t","232.8713","160.6713","164","240","240","164","trueblood","0.05","w","240","164","164","240","232.8713","160.6713","39360","39360","37415.7294","tc","null","null","null","null","null","null","[3,2]","502.10955041838776","457.35284190585946","499.40811971961784"
"","canvas-keyboard-response","168","214829","0.0-6.0-1.23","576","","","","","clear_screen","null","null","","","critical","d","c","t","232.8713","160.6713","164","240","240","164","trueblood","0.05","w","240","164","164","240","232.8713","160.6713","39360","39360","37415.7294","tc","null","null","null","null","null","null","[3,2]","502.10955041838776","457.35284190585946","499.40811971961784"
"","canvas-keyboard-response","169","215336","0.0-6.0-2.23","576","","","","","rectangles no change","null","null","","","critical","d","c","t","232.8713","160.6713","164","240","240","164","trueblood","0.05","w","240","164","164","240","232.8713","160.6713","39360","39360","37415.7294","tc","null","null","null","null","null","null","[3,2]","502.10955041838776","457.35284190585946","499.40811971961784"
"","canvas-keyboard-response","170","216671","0.0-6.0-3.23","576","","","","","rectangles with change","null","null","","","critical","d","c","t","232.8713","160.6713","164","240","240","164","trueblood","0.05","w","240","164","164","240","232.8713","160.6713","39360","39360","37415.7294","tc","null","null","null","null","null","null","[3,2]","502.10955041838776","457.35284190585946","499.40811971961784"
"","canvas-keyboard-response","171","216691","0.0-6.0-4.23","576","","","","","clear_screen","null","null","","","critical","d","c","t","232.8713","160.6713","164","240","240","164","trueblood","0.05","w","240","164","164","240","232.8713","160.6713","39360","39360","37415.7294","tc","null","null","null","null","null","null","[3,2]","502.10955041838776","457.35284190585946","499.40811971961784"
"","canvas-keyboard-response","172","217543","0.0-6.0-5.23","576","","","","","make choice","847","3","","","critical","d","c","t","232.8713","160.6713","164","240","240","164","trueblood","0.05","w","240","164","164","240","232.8713","160.6713","39360","39360","37415.7294","tc","null","null","null","null","null","null","[3,2]","","",""
"","canvas-keyboard-response","173","217563","0.0-6.0-6.23","576","","","","","clear_screen","null","null","","","critical","d","c","t","232.8713","160.6713","164","240","240","164","trueblood","0.05","w","240","164","164","240","232.8713","160.6713","39360","39360","37415.7294","tc","null","null","null","null","null","null","[3,2]","","",""
"","canvas-keyboard-response","174","217765","0.0-6.0-0.24","576","","","","","pre trial waiting period","null","null","","","critical","t","c","d","164","240","240","164","160.6713","232.8713","spektor","0.05","h","164","240","240","164","160.6713","232.8713","39360","39360","37415.7294","td","null","null","null","null","null","null","[1,3]","499.6743405760821","193.96389845922081","488.0895810777259"
"","canvas-keyboard-response","175","217787","0.0-6.0-1.24","576","","","","","clear_screen","null","null","","","critical","t","c","d","164","240","240","164","160.6713","232.8713","spektor","0.05","h","164","240","240","164","160.6713","232.8713","39360","39360","37415.7294","td","null","null","null","null","null","null","[1,3]","499.6743405760821","193.96389845922081","488.0895810777259"
"","canvas-keyboard-response","176","218292","0.0-6.0-2.24","576","","","","","rectangles no change","null","null","","","critical","t","c","d","164","240","240","164","160.6713","232.8713","spektor","0.05","h","164","240","240","164","160.6713","232.8713","39360","39360","37415.7294","td","null","null","null","null","null","null","[1,3]","499.6743405760821","193.96389845922081","488.0895810777259"
"","canvas-keyboard-response","177","219630","0.0-6.0-3.24","576","","","","","rectangles with change","null","null","","","critical","t","c","d","164","240","240","164","160.6713","232.8713","spektor","0.05","h","164","240","240","164","160.6713","232.8713","39360","39360","37415.7294","td","null","null","null","null","null","null","[1,3]","499.6743405760821","193.96389845922081","488.0895810777259"
"","canvas-keyboard-response","178","219648","0.0-6.0-4.24","576","","","","","clear_screen","null","null","","","critical","t","c","d","164","240","240","164","160.6713","232.8713","spektor","0.05","h","164","240","240","164","160.6713","232.8713","39360","39360","37415.7294","td","null","null","null","null","null","null","[1,3]","499.6743405760821","193.96389845922081","488.0895810777259"
"","canvas-keyboard-response","179","220535","0.0-6.0-5.24","576","","","","","make choice","883","1","","","critical","t","c","d","164","240","240","164","160.6713","232.8713","spektor","0.05","h","164","240","240","164","160.6713","232.8713","39360","39360","37415.7294","td","null","null","null","null","null","null","[1,3]","","",""
"","canvas-keyboard-response","180","220553","0.0-6.0-6.24","576","","","","","clear_screen","null","null","","","critical","t","c","d","164","240","240","164","160.6713","232.8713","spektor","0.05","h","164","240","240","164","160.6713","232.8713","39360","39360","37415.7294","td","null","null","null","null","null","null","[1,3]","","",""
"","canvas-keyboard-response","181","220754","0.0-6.0-0.25","576","","","","","pre trial waiting period","null","null","","","critical","d","t","c","154.6796","220.0396","164","240","240","164","spektor","0.14","h","164","240","240","164","154.6796","220.0396","39360","39360","34035.6388","dc","null","null","null","null","null","null","[1,3]","488.3777763453676","95.11151814313035","512.0364928674115"
"","canvas-keyboard-response","182","220776","0.0-6.0-1.25","576","","","","","clear_screen","null","null","","","critical","d","t","c","154.6796","220.0396","164","240","240","164","spektor","0.14","h","164","240","240","164","154.6796","220.0396","39360","39360","34035.6388","dc","null","null","null","null","null","null","[1,3]","488.3777763453676","95.11151814313035","512.0364928674115"
"","canvas-keyboard-response","183","221288","0.0-6.0-2.25","576","","","","","rectangles no change","null","null","","","critical","d","t","c","154.6796","220.0396","164","240","240","164","spektor","0.14","h","164","240","240","164","154.6796","220.0396","39360","39360","34035.6388","dc","null","null","null","null","null","null","[1,3]","488.3777763453676","95.11151814313035","512.0364928674115"
"","canvas-keyboard-response","184","222622","0.0-6.0-3.25","576","","","","","rectangles with change","null","null","","","critical","d","t","c","154.6796","220.0396","164","240","240","164","spektor","0.14","h","164","240","240","164","154.6796","220.0396","39360","39360","34035.6388","dc","null","null","null","null","null","null","[1,3]","488.3777763453676","95.11151814313035","512.0364928674115"
"","canvas-keyboard-response","185","222640","0.0-6.0-4.25","576","","","","","clear_screen","null","null","","","critical","d","t","c","154.6796","220.0396","164","240","240","164","spektor","0.14","h","164","240","240","164","154.6796","220.0396","39360","39360","34035.6388","dc","null","null","null","null","null","null","[1,3]","488.3777763453676","95.11151814313035","512.0364928674115"
"","canvas-keyboard-response","186","223073","0.0-6.0-5.25","576","","","","","make choice","425","3","","","critical","d","t","c","154.6796","220.0396","164","240","240","164","spektor","0.14","h","164","240","240","164","154.6796","220.0396","39360","39360","34035.6388","dc","null","null","null","null","null","null","[1,3]","","",""
"","canvas-keyboard-response","187","223091","0.0-6.0-6.25","576","","","","","clear_screen","null","null","","","critical","d","t","c","154.6796","220.0396","164","240","240","164","spektor","0.14","h","164","240","240","164","154.6796","220.0396","39360","39360","34035.6388","dc","null","null","null","null","null","null","[1,3]","","",""
"","canvas-keyboard-response","188","223292","0.0-6.0-0.26","576","","","","","pre trial waiting period","null","null","","","catch","sw","l","sh","180","200","280","178","198","157","spektor","null","null","null","null","null","null","null","null","null","null","null","","180","200","260","200","36000","52000","[2,3]","496.8480114444909","213.3498041487652","517.2806680221948"
"","canvas-keyboard-response","189","223315","0.0-6.0-1.26","576","","","","","clear_screen","null","null","","","catch","sw","l","sh","180","200","280","178","198","157","spektor","null","null","null","null","null","null","null","null","null","null","null","","180","200","260","200","36000","52000","[2,3]","496.8480114444909","213.3498041487652","517.2806680221948"
"","canvas-keyboard-response","190","223822","0.0-6.0-2.26","576","","","","","rectangles no change","null","null","","","catch","sw","l","sh","180","200","280","178","198","157","spektor","null","null","null","null","null","null","null","null","null","null","null","","180","200","260","200","36000","52000","[2,3]","496.8480114444909","213.3498041487652","517.2806680221948"
"","canvas-keyboard-response","191","225161","0.0-6.0-3.26","576","","","","","rectangles with change","null","null","","","catch","sw","l","sh","180","200","280","178","198","157","spektor","null","null","null","null","null","null","null","null","null","null","null","","180","200","260","200","36000","52000","[2,3]","496.8480114444909","213.3498041487652","517.2806680221948"
"","canvas-keyboard-response","192","225183","0.0-6.0-4.26","576","","","","","clear_screen","null","null","","","catch","sw","l","sh","180","200","280","178","198","157","spektor","null","null","null","null","null","null","null","null","null","null","null","","180","200","260","200","36000","52000","[2,3]","496.8480114444909","213.3498041487652","517.2806680221948"
"","canvas-keyboard-response","193","225600","0.0-6.0-5.26","576","","","","","make choice","412","2","","","catch","sw","l","sh","180","200","280","178","198","157","spektor","null","null","null","null","null","null","null","null","null","null","null","","180","200","260","200","36000","52000","[2,3]","","",""
"","canvas-keyboard-response","194","225617","0.0-6.0-6.26","576","","","","","clear_screen","null","null","","","catch","sw","l","sh","180","200","280","178","198","157","spektor","null","null","null","null","null","null","null","null","null","null","null","","180","200","260","200","36000","52000","[2,3]","","",""
"","canvas-keyboard-response","195","225819","0.0-6.0-0.27","576","","","","","pre trial waiting period","null","null","","","catch","sw","sh","l","180","200","172","191","202","265","trueblood","null","null","null","null","null","null","null","null","null","null","null","","180","200","260","200","36000","52000","[2,3]","452.98140447750137","492.7268722762787","437.1479117016764"
"","canvas-keyboard-response","196","225839","0.0-6.0-1.27","576","","","","","clear_screen","null","null","","","catch","sw","sh","l","180","200","172","191","202","265","trueblood","null","null","null","null","null","null","null","null","null","null","null","","180","200","260","200","36000","52000","[2,3]","452.98140447750137","492.7268722762787","437.1479117016764"
"","canvas-keyboard-response","197","226343","0.0-6.0-2.27","576","","","","","rectangles no change","null","null","","","catch","sw","sh","l","180","200","172","191","202","265","trueblood","null","null","null","null","null","null","null","null","null","null","null","","180","200","260","200","36000","52000","[2,3]","452.98140447750137","492.7268722762787","437.1479117016764"
"","canvas-keyboard-response","198","227682","0.0-6.0-3.27","576","","","","","rectangles with change","null","null","","","catch","sw","sh","l","180","200","172","191","202","265","trueblood","null","null","null","null","null","null","null","null","null","null","null","","180","200","260","200","36000","52000","[2,3]","452.98140447750137","492.7268722762787","437.1479117016764"
"","canvas-keyboard-response","199","227704","0.0-6.0-4.27","576","","","","","clear_screen","null","null","","","catch","sw","sh","l","180","200","172","191","202","265","trueblood","null","null","null","null","null","null","null","null","null","null","null","","180","200","260","200","36000","52000","[2,3]","452.98140447750137","492.7268722762787","437.1479117016764"
"","canvas-keyboard-response","200","229361","0.0-6.0-5.27","576","","","","","make choice","1652","3","","","catch","sw","sh","l","180","200","172","191","202","265","trueblood","null","null","null","null","null","null","null","null","null","null","null","","180","200","260","200","36000","52000","[2,3]","","",""
"","canvas-keyboard-response","201","229382","0.0-6.0-6.27","576","","","","","clear_screen","null","null","","","catch","sw","sh","l","180","200","172","191","202","265","trueblood","null","null","null","null","null","null","null","null","null","null","null","","180","200","260","200","36000","52000","[2,3]","","",""
"","canvas-keyboard-response","202","229583","0.0-6.0-0.28","576","","","","","pre trial waiting period","null","null","","","critical","d","t","c","164","240","164","240","240","164","trueblood","0","h","164","240","240","164","164","240","39360","39360","39360","dc","null","null","null","null","null","null","[1,3]","448.9686580280211","461.05743961640854","488.7893063755957"
"","canvas-keyboard-response","203","229604","0.0-6.0-1.28","576","","","","","clear_screen","null","null","","","critical","d","t","c","164","240","164","240","240","164","trueblood","0","h","164","240","240","164","164","240","39360","39360","39360","dc","null","null","null","null","null","null","[1,3]","448.9686580280211","461.05743961640854","488.7893063755957"
"","canvas-keyboard-response","204","230107","0.0-6.0-2.28","576","","","","","rectangles no change","null","null","","","critical","d","t","c","164","240","164","240","240","164","trueblood","0","h","164","240","240","164","164","240","39360","39360","39360","dc","null","null","null","null","null","null","[1,3]","448.9686580280211","461.05743961640854","488.7893063755957"
"","canvas-keyboard-response","205","231446","0.0-6.0-3.28","576","","","","","rectangles with change","null","null","","","critical","d","t","c","164","240","164","240","240","164","trueblood","0","h","164","240","240","164","164","240","39360","39360","39360","dc","null","null","null","null","null","null","[1,3]","448.9686580280211","461.05743961640854","488.7893063755957"
"","canvas-keyboard-response","206","231465","0.0-6.0-4.28","576","","","","","clear_screen","null","null","","","critical","d","t","c","164","240","164","240","240","164","trueblood","0","h","164","240","240","164","164","240","39360","39360","39360","dc","null","null","null","null","null","null","[1,3]","448.9686580280211","461.05743961640854","488.7893063755957"
"","canvas-keyboard-response","207","232361","0.0-6.0-5.28","576","","","","","make choice","887","3","","","critical","d","t","c","164","240","164","240","240","164","trueblood","0","h","164","240","240","164","164","240","39360","39360","39360","dc","null","null","null","null","null","null","[1,3]","","",""
"","canvas-keyboard-response","208","232379","0.0-6.0-6.28","576","","","","","clear_screen","null","null","","","critical","d","t","c","164","240","164","240","240","164","trueblood","0","h","164","240","240","164","164","240","39360","39360","39360","dc","null","null","null","null","null","null","[1,3]","","",""
"","canvas-keyboard-response","209","232580","0.0-6.0-0.29","576","","","","","pre trial waiting period","null","null","","","critical","t","d","c","164","240","164","240","240","164","spektor","0","h","164","240","240","164","164","240","39360","39360","39360","tc","null","null","null","null","null","null","[1,3]","474.45893405201343","99.99791777625859","513.801867309921"
"","canvas-keyboard-response","210","232603","0.0-6.0-1.29","576","","","","","clear_screen","null","null","","","critical","t","d","c","164","240","164","240","240","164","spektor","0","h","164","240","240","164","164","240","39360","39360","39360","tc","null","null","null","null","null","null","[1,3]","474.45893405201343","99.99791777625859","513.801867309921"
"","canvas-keyboard-response","211","233112","0.0-6.0-2.29","576","","","","","rectangles no change","null","null","","","critical","t","d","c","164","240","164","240","240","164","spektor","0","h","164","240","240","164","164","240","39360","39360","39360","tc","null","null","null","null","null","null","[1,3]","474.45893405201343","99.99791777625859","513.801867309921"
"","canvas-keyboard-response","212","234450","0.0-6.0-3.29","576","","","","","rectangles with change","null","null","","","critical","t","d","c","164","240","164","240","240","164","spektor","0","h","164","240","240","164","164","240","39360","39360","39360","tc","null","null","null","null","null","null","[1,3]","474.45893405201343","99.99791777625859","513.801867309921"
"","canvas-keyboard-response","213","234470","0.0-6.0-4.29","576","","","","","clear_screen","null","null","","","critical","t","d","c","164","240","164","240","240","164","spektor","0","h","164","240","240","164","164","240","39360","39360","39360","tc","null","null","null","null","null","null","[1,3]","474.45893405201343","99.99791777625859","513.801867309921"
"","canvas-keyboard-response","214","235505","0.0-6.0-5.29","576","","","","","make choice","1028","3","","","critical","t","d","c","164","240","164","240","240","164","spektor","0","h","164","240","240","164","164","240","39360","39360","39360","tc","null","null","null","null","null","null","[1,3]","","",""
"","canvas-keyboard-response","215","235523","0.0-6.0-6.29","576","","","","","clear_screen","null","null","","","critical","t","d","c","164","240","164","240","240","164","spektor","0","h","164","240","240","164","164","240","39360","39360","39360","tc","null","null","null","null","null","null","[1,3]","","",""
"","canvas-keyboard-response","216","235725","0.0-6.0-0.30","576","","","","","pre trial waiting period","null","null","","","catch","sw","sh","l","180","200","231","189","232","239","spektor","null","null","null","null","null","null","null","null","null","null","null","","180","200","260","200","36000","52000","[1,3]","503.67707889130253","148.75706061833128","461.2626688777031"
"","canvas-keyboard-response","217","235745","0.0-6.0-1.30","576","","","","","clear_screen","null","null","","","catch","sw","sh","l","180","200","231","189","232","239","spektor","null","null","null","null","null","null","null","null","null","null","null","","180","200","260","200","36000","52000","[1,3]","503.67707889130253","148.75706061833128","461.2626688777031"
"","canvas-keyboard-response","218","236255","0.0-6.0-2.30","576","","","","","rectangles no change","null","null","","","catch","sw","sh","l","180","200","231","189","232","239","spektor","null","null","null","null","null","null","null","null","null","null","null","","180","200","260","200","36000","52000","[1,3]","503.67707889130253","148.75706061833128","461.2626688777031"
"","canvas-keyboard-response","219","237595","0.0-6.0-3.30","576","","","","","rectangles with change","null","null","","","catch","sw","sh","l","180","200","231","189","232","239","spektor","null","null","null","null","null","null","null","null","null","null","null","","180","200","260","200","36000","52000","[1,3]","503.67707889130253","148.75706061833128","461.2626688777031"
"","canvas-keyboard-response","220","237615","0.0-6.0-4.30","576","","","","","clear_screen","null","null","","","catch","sw","sh","l","180","200","231","189","232","239","spektor","null","null","null","null","null","null","null","null","null","null","null","","180","200","260","200","36000","52000","[1,3]","503.67707889130253","148.75706061833128","461.2626688777031"
"","canvas-keyboard-response","221","237968","0.0-6.0-5.30","576","","","","","make choice","345","3","","","catch","sw","sh","l","180","200","231","189","232","239","spektor","null","null","null","null","null","null","null","null","null","null","null","","180","200","260","200","36000","52000","[1,3]","","",""
"","canvas-keyboard-response","222","237989","0.0-6.0-6.30","576","","","","","clear_screen","null","null","","","catch","sw","sh","l","180","200","231","189","232","239","spektor","null","null","null","null","null","null","null","null","null","null","null","","180","200","260","200","36000","52000","[1,3]","","",""
"","canvas-keyboard-response","223","238190","0.0-6.0-0.31","576","","","","","pre trial waiting period","null","null","","","critical","c","d","t","240","164","164","240","164","240","spektor","0","h","164","240","240","164","164","240","39360","39360","39360","dc","null","null","null","null","null","null","[2,1]","494.19394560833655","93.2170710807525","477.6630074135439"
"","canvas-keyboard-response","224","238209","0.0-6.0-1.31","576","","","","","clear_screen","null","null","","","critical","c","d","t","240","164","164","240","164","240","spektor","0","h","164","240","240","164","164","240","39360","39360","39360","dc","null","null","null","null","null","null","[2,1]","494.19394560833655","93.2170710807525","477.6630074135439"
"","canvas-keyboard-response","225","238715","0.0-6.0-2.31","576","","","","","rectangles no change","null","null","","","critical","c","d","t","240","164","164","240","164","240","spektor","0","h","164","240","240","164","164","240","39360","39360","39360","dc","null","null","null","null","null","null","[2,1]","494.19394560833655","93.2170710807525","477.6630074135439"
"","canvas-keyboard-response","226","240050","0.0-6.0-3.31","576","","","","","rectangles with change","null","null","","","critical","c","d","t","240","164","164","240","164","240","spektor","0","h","164","240","240","164","164","240","39360","39360","39360","dc","null","null","null","null","null","null","[2,1]","494.19394560833655","93.2170710807525","477.6630074135439"
"","canvas-keyboard-response","227","240072","0.0-6.0-4.31","576","","","","","clear_screen","null","null","","","critical","c","d","t","240","164","164","240","164","240","spektor","0","h","164","240","240","164","164","240","39360","39360","39360","dc","null","null","null","null","null","null","[2,1]","494.19394560833655","93.2170710807525","477.6630074135439"
"","canvas-keyboard-response","228","240657","0.0-6.0-5.31","576","","","","","make choice","580","1","","","critical","c","d","t","240","164","164","240","164","240","spektor","0","h","164","240","240","164","164","240","39360","39360","39360","dc","null","null","null","null","null","null","[2,1]","","",""
"","canvas-keyboard-response","229","240677","0.0-6.0-6.31","576","","","","","clear_screen","null","null","","","critical","c","d","t","240","164","164","240","164","240","spektor","0","h","164","240","240","164","164","240","39360","39360","39360","dc","null","null","null","null","null","null","[2,1]","","",""
"","canvas-keyboard-response","230","240877","0.0-6.0-0.32","576","","","","","pre trial waiting period","null","null","","","catch","sw","sh","l","180","200","179","197","238","162","spektor","null","null","null","null","null","null","null","null","null","null","null","","180","200","260","200","36000","52000","[1,3]","478.2062583673082","177.30674132478686","522.4530641540806"
"","canvas-keyboard-response","231","240892","0.0-6.0-1.32","576","","","","","clear_screen","null","null","","","catch","sw","sh","l","180","200","179","197","238","162","spektor","null","null","null","null","null","null","null","null","null","null","null","","180","200","260","200","36000","52000","[1,3]","478.2062583673082","177.30674132478686","522.4530641540806"
"","canvas-keyboard-response","232","241404","0.0-6.0-2.32","576","","","","","rectangles no change","null","null","","","catch","sw","sh","l","180","200","179","197","238","162","spektor","null","null","null","null","null","null","null","null","null","null","null","","180","200","260","200","36000","52000","[1,3]","478.2062583673082","177.30674132478686","522.4530641540806"
"","canvas-keyboard-response","233","242738","0.0-6.0-3.32","576","","","","","rectangles with change","null","null","","","catch","sw","sh","l","180","200","179","197","238","162","spektor","null","null","null","null","null","null","null","null","null","null","null","","180","200","260","200","36000","52000","[1,3]","478.2062583673082","177.30674132478686","522.4530641540806"
"","canvas-keyboard-response","234","242755","0.0-6.0-4.32","576","","","","","clear_screen","null","null","","","catch","sw","sh","l","180","200","179","197","238","162","spektor","null","null","null","null","null","null","null","null","null","null","null","","180","200","260","200","36000","52000","[1,3]","478.2062583673082","177.30674132478686","522.4530641540806"
"","canvas-keyboard-response","235","244993","0.0-6.0-5.32","576","","","","","make choice","2233","3","","","catch","sw","sh","l","180","200","179","197","238","162","spektor","null","null","null","null","null","null","null","null","null","null","null","","180","200","260","200","36000","52000","[1,3]","","",""
"","canvas-keyboard-response","236","245012","0.0-6.0-6.32","576","","","","","clear_screen","null","null","","","catch","sw","sh","l","180","200","179","197","238","162","spektor","null","null","null","null","null","null","null","null","null","null","null","","180","200","260","200","36000","52000","[1,3]","","",""
"","canvas-keyboard-response","237","245213","0.0-6.0-0.33","576","","","","","pre trial waiting period","null","null","","","critical","c","d","t","164","240","232.8713","160.6713","240","164","trueblood","0.05","w","240","164","164","240","232.8713","160.6713","39360","39360","37415.7294","td","null","null","null","null","null","null","[3,2]","456.81862076766794","491.79670073211463","475.91883618852745"
"","canvas-keyboard-response","238","245232","0.0-6.0-1.33","576","","","","","clear_screen","null","null","","","critical","c","d","t","164","240","232.8713","160.6713","240","164","trueblood","0.05","w","240","164","164","240","232.8713","160.6713","39360","39360","37415.7294","td","null","null","null","null","null","null","[3,2]","456.81862076766794","491.79670073211463","475.91883618852745"
"","canvas-keyboard-response","239","245740","0.0-6.0-2.33","576","","","","","rectangles no change","null","null","","","critical","c","d","t","164","240","232.8713","160.6713","240","164","trueblood","0.05","w","240","164","164","240","232.8713","160.6713","39360","39360","37415.7294","td","null","null","null","null","null","null","[3,2]","456.81862076766794","491.79670073211463","475.91883618852745"
"","canvas-keyboard-response","240","247073","0.0-6.0-3.33","576","","","","","rectangles with change","null","null","","","critical","c","d","t","164","240","232.8713","160.6713","240","164","trueblood","0.05","w","240","164","164","240","232.8713","160.6713","39360","39360","37415.7294","td","null","null","null","null","null","null","[3,2]","456.81862076766794","491.79670073211463","475.91883618852745"
"","canvas-keyboard-response","241","247094","0.0-6.0-4.33","576","","","","","clear_screen","null","null","","","critical","c","d","t","164","240","232.8713","160.6713","240","164","trueblood","0.05","w","240","164","164","240","232.8713","160.6713","39360","39360","37415.7294","td","null","null","null","null","null","null","[3,2]","456.81862076766794","491.79670073211463","475.91883618852745"
"","canvas-keyboard-response","242","247919","0.0-6.0-5.33","576","","","","","make choice","821","2","","","critical","c","d","t","164","240","232.8713","160.6713","240","164","trueblood","0.05","w","240","164","164","240","232.8713","160.6713","39360","39360","37415.7294","td","null","null","null","null","null","null","[3,2]","","",""
"","canvas-keyboard-response","243","247938","0.0-6.0-6.33","576","","","","","clear_screen","null","null","","","critical","c","d","t","164","240","232.8713","160.6713","240","164","trueblood","0.05","w","240","164","164","240","232.8713","160.6713","39360","39360","37415.7294","td","null","null","null","null","null","null","[3,2]","","",""
"","canvas-keyboard-response","244","248140","0.0-6.0-0.34","576","","","","","pre trial waiting period","null","null","","","catch","sw","sh","l","180","200","197","187","277","223","spektor","null","null","null","null","null","null","null","null","null","null","null","","180","200","260","200","36000","52000","[1,3]","479.03430001391513","169.63606236841173","464.6929965971496"
"","canvas-keyboard-response","245","248160","0.0-6.0-1.34","576","","","","","clear_screen","null","null","","","catch","sw","sh","l","180","200","197","187","277","223","spektor","null","null","null","null","null","null","null","null","null","null","null","","180","200","260","200","36000","52000","[1,3]","479.03430001391513","169.63606236841173","464.6929965971496"
"","canvas-keyboard-response","246","248666","0.0-6.0-2.34","576","","","","","rectangles no change","null","null","","","catch","sw","sh","l","180","200","197","187","277","223","spektor","null","null","null","null","null","null","null","null","null","null","null","","180","200","260","200","36000","52000","[1,3]","479.03430001391513","169.63606236841173","464.6929965971496"
"","canvas-keyboard-response","247","250007","0.0-6.0-3.34","576","","","","","rectangles with change","null","null","","","catch","sw","sh","l","180","200","197","187","277","223","spektor","null","null","null","null","null","null","null","null","null","null","null","","180","200","260","200","36000","52000","[1,3]","479.03430001391513","169.63606236841173","464.6929965971496"
"","canvas-keyboard-response","248","250029","0.0-6.0-4.34","576","","","","","clear_screen","null","null","","","catch","sw","sh","l","180","200","197","187","277","223","spektor","null","null","null","null","null","null","null","null","null","null","null","","180","200","260","200","36000","52000","[1,3]","479.03430001391513","169.63606236841173","464.6929965971496"
"","canvas-keyboard-response","249","250879","0.0-6.0-5.34","576","","","","","make choice","847","3","","","catch","sw","sh","l","180","200","197","187","277","223","spektor","null","null","null","null","null","null","null","null","null","null","null","","180","200","260","200","36000","52000","[1,3]","","",""
"","canvas-keyboard-response","250","250897","0.0-6.0-6.34","576","","","","","clear_screen","null","null","","","catch","sw","sh","l","180","200","197","187","277","223","spektor","null","null","null","null","null","null","null","null","null","null","null","","180","200","260","200","36000","52000","[1,3]","","",""
"","canvas-keyboard-response","251","251098","0.0-6.0-0.35","576","","","","","pre trial waiting period","null","null","","","catch","sw","sh","l","180","200","190","184","160","232","trueblood","null","null","null","null","null","null","null","null","null","null","null","","180","200","260","200","36000","52000","[1,3]","449.45215525796533","493.7544908246521","437.12120784786515"
"","canvas-keyboard-response","252","251118","0.0-6.0-1.35","576","","","","","clear_screen","null","null","","","catch","sw","sh","l","180","200","190","184","160","232","trueblood","null","null","null","null","null","null","null","null","null","null","null","","180","200","260","200","36000","52000","[1,3]","449.45215525796533","493.7544908246521","437.12120784786515"
"","canvas-keyboard-response","253","251628","0.0-6.0-2.35","576","","","","","rectangles no change","null","null","","","catch","sw","sh","l","180","200","190","184","160","232","trueblood","null","null","null","null","null","null","null","null","null","null","null","","180","200","260","200","36000","52000","[1,3]","449.45215525796533","493.7544908246521","437.12120784786515"
"","canvas-keyboard-response","254","252966","0.0-6.0-3.35","576","","","","","rectangles with change","null","null","","","catch","sw","sh","l","180","200","190","184","160","232","trueblood","null","null","null","null","null","null","null","null","null","null","null","","180","200","260","200","36000","52000","[1,3]","449.45215525796533","493.7544908246521","437.12120784786515"
"","canvas-keyboard-response","255","252988","0.0-6.0-4.35","576","","","","","clear_screen","null","null","","","catch","sw","sh","l","180","200","190","184","160","232","trueblood","null","null","null","null","null","null","null","null","null","null","null","","180","200","260","200","36000","52000","[1,3]","449.45215525796533","493.7544908246521","437.12120784786515"
"","canvas-keyboard-response","256","256208","0.0-6.0-5.35","576","","","","","make choice","3213","1","","","catch","sw","sh","l","180","200","190","184","160","232","trueblood","null","null","null","null","null","null","null","null","null","null","null","","180","200","260","200","36000","52000","[1,3]","","",""
"","canvas-keyboard-response","257","256228","0.0-6.0-6.35","576","","","","","clear_screen","null","null","","","catch","sw","sh","l","180","200","190","184","160","232","trueblood","null","null","null","null","null","null","null","null","null","null","null","","180","200","260","200","36000","52000","[1,3]","","",""
"","canvas-keyboard-response","258","256429","0.0-6.0-0.36","576","","","","","pre trial waiting period","null","null","","","critical","t","c","d","240","164","164","240","227.1683","158.0083","spektor","0.09","w","240","164","164","240","227.1683","158.0083","39360","39360","35894.4834","tc","null","null","null","null","null","null","[1,2]","519.6217639741797","159.2404282081831","522.4433123792504"
"","canvas-keyboard-response","259","256448","0.0-6.0-1.36","576","","","","","clear_screen","null","null","","","critical","t","c","d","240","164","164","240","227.1683","158.0083","spektor","0.09","w","240","164","164","240","227.1683","158.0083","39360","39360","35894.4834","tc","null","null","null","null","null","null","[1,2]","519.6217639741797","159.2404282081831","522.4433123792504"
"","canvas-keyboard-response","260","256953","0.0-6.0-2.36","576","","","","","rectangles no change","null","null","","","critical","t","c","d","240","164","164","240","227.1683","158.0083","spektor","0.09","w","240","164","164","240","227.1683","158.0083","39360","39360","35894.4834","tc","null","null","null","null","null","null","[1,2]","519.6217639741797","159.2404282081831","522.4433123792504"
"","canvas-keyboard-response","261","258283","0.0-6.0-3.36","576","","","","","rectangles with change","null","null","","","critical","t","c","d","240","164","164","240","227.1683","158.0083","spektor","0.09","w","240","164","164","240","227.1683","158.0083","39360","39360","35894.4834","tc","null","null","null","null","null","null","[1,2]","519.6217639741797","159.2404282081831","522.4433123792504"
"","canvas-keyboard-response","262","258306","0.0-6.0-4.36","576","","","","","clear_screen","null","null","","","critical","t","c","d","240","164","164","240","227.1683","158.0083","spektor","0.09","w","240","164","164","240","227.1683","158.0083","39360","39360","35894.4834","tc","null","null","null","null","null","null","[1,2]","519.6217639741797","159.2404282081831","522.4433123792504"
"","canvas-keyboard-response","263","259193","0.0-6.0-5.36","576","","","","","make choice","881","1","","","critical","t","c","d","240","164","164","240","227.1683","158.0083","spektor","0.09","w","240","164","164","240","227.1683","158.0083","39360","39360","35894.4834","tc","null","null","null","null","null","null","[1,2]","","",""
"","canvas-keyboard-response","264","259210","0.0-6.0-6.36","576","","","","","clear_screen","null","null","","","critical","t","c","d","240","164","164","240","227.1683","158.0083","spektor","0.09","w","240","164","164","240","227.1683","158.0083","39360","39360","35894.4834","tc","null","null","null","null","null","null","[1,2]","","",""
"","canvas-keyboard-response","265","259412","0.0-6.0-0.37","576","","","","","pre trial waiting period","null","null","","","catch","sh","l","sw","216","191","227","222","199","235","trueblood","null","null","null","null","null","null","null","null","null","null","null","","180","200","260","200","36000","52000","[2,3]","460.0865281923034","461.3978475135992","460.1028684833861"
"","canvas-keyboard-response","266","259431","0.0-6.0-1.37","576","","","","","clear_screen","null","null","","","catch","sh","l","sw","216","191","227","222","199","235","trueblood","null","null","null","null","null","null","null","null","null","null","null","","180","200","260","200","36000","52000","[2,3]","460.0865281923034","461.3978475135992","460.1028684833861"
"","canvas-keyboard-response","267","259937","0.0-6.0-2.37","576","","","","","rectangles no change","null","null","","","catch","sh","l","sw","216","191","227","222","199","235","trueblood","null","null","null","null","null","null","null","null","null","null","null","","180","200","260","200","36000","52000","[2,3]","460.0865281923034","461.3978475135992","460.1028684833861"
"","canvas-keyboard-response","268","261273","0.0-6.0-3.37","576","","","","","rectangles with change","null","null","","","catch","sh","l","sw","216","191","227","222","199","235","trueblood","null","null","null","null","null","null","null","null","null","null","null","","180","200","260","200","36000","52000","[2,3]","460.0865281923034","461.3978475135992","460.1028684833861"
"","canvas-keyboard-response","269","261294","0.0-6.0-4.37","576","","","","","clear_screen","null","null","","","catch","sh","l","sw","216","191","227","222","199","235","trueblood","null","null","null","null","null","null","null","null","null","null","null","","180","200","260","200","36000","52000","[2,3]","460.0865281923034","461.3978475135992","460.1028684833861"
