"success","trial_type","trial_index","time_elapsed","internal_node_id","sub_n","timeout","failed_images","failed_audio","failed_video","screen_id","rt","response","stimulus","view_history","trial","r1","r2","r3","w1","h1","w2","h2","w3","h3","display","tdd","tdo","tw","th","cw","ch","dw","dh","ta","ca","da","probe","csls","csss","clls","clss","sa","la","probe_rects","r1yloc","r2yloc","r3yloc"
"true","fullscreen","0","5327","0.0-0.0","501","","","","","","","","","","","","","","","","","","","","","","","","","","","","","","","","","","","","","","","","","",""
"true","preload","1","5349","0.0-1.0","501","false","[]","[]","[]","img preload","","","","","","","","","","","","","","","","","","","","","","","","","","","","","","","","","","","","",""
"","survey-html-form","2","11566","0.0-2.0","501","","","","","enter-sub-number","6206","{""response"":""501""}","","","","","","","","","","","","","","","","","","","","","","","","","","","","","","","","","","",""
"","image-button-response","3","129743","0.0-3.0","501","","","","","","118030","0","consent.png","","","","","","","","","","","","","","","","","","","","","","","","","","","","","","","","","",""
"","html-button-response","4","142790","0.0-4.0","501","","","","","intro mssg","13043","0","<div style= ""font-size:25px;"" <p> <strong> Welcome! </strong><br> <p style=""color:#8B0000; font-size:25px;""><strong> Please do NOT exit full screen until you are done with the experiment. </strong> </p><p style=""font-size:25px;color:#8B0000;""> <strong> Your data will be lost <br> if you try to go back or refresh the page after the experiment starts. Feel free to click ""previous"" during the instructions, however.</strong> </p><br><p> <strong> Thanks in advance for your contribution to our research! </strong></p>","","","","","","","","","","","","","","","","","","","","","","","","","","","","","","","","","",""
"","instructions","5","204989","0.0-5.0","501","","","","","instructions","62196","","","[{""page_index"":0,""viewing_time"":8803},{""page_index"":1,""viewing_time"":8304},{""page_index"":2,""viewing_time"":2664},{""page_index"":3,""viewing_time"":23633},{""page_index"":4,""viewing_time"":8024},{""page_index"":5,""viewing_time"":4175},{""page_index"":6,""viewing_time"":3400},{""page_index"":7,""viewing_time"":3192}]","","","","","","","","","","","","","","","","","","","","","","","","","","","","","","","","",""
"","canvas-keyboard-response","6","205193","0.0-6.0-0.0","501","","","","","pre trial waiting period","null","null","","","catch","sh","sw","l","185","150","153","207","273","165","trueblood","null","null","null","null","null","null","null","null","null","null","null","","180","200","260","200","36000","52000","[1,3]","526.8188696213176","466.73121530200996","482.23132886119384"
"","canvas-keyboard-response","7","205218","0.0-6.0-1.0","501","","","","","clear_screen","null","null","","","catch","sh","sw","l","185","150","153","207","273","165","trueblood","null","null","null","null","null","null","null","null","null","null","null","","180","200","260","200","36000","52000","[1,3]","526.8188696213176","466.73121530200996","482.23132886119384"
"","canvas-keyboard-response","8","205734","0.0-6.0-2.0","501","","","","","rectangles no change","null","null","","","catch","sh","sw","l","185","150","153","207","273","165","trueblood","null","null","null","null","null","null","null","null","null","null","null","","180","200","260","200","36000","52000","[1,3]","526.8188696213176","466.73121530200996","482.23132886119384"
"","canvas-keyboard-response","9","207071","0.0-6.0-3.0","501","","","","","rectangles with change","null","null","","","catch","sh","sw","l","185","150","153","207","273","165","trueblood","null","null","null","null","null","null","null","null","null","null","null","","180","200","260","200","36000","52000","[1,3]","526.8188696213176","466.73121530200996","482.23132886119384"
"","canvas-keyboard-response","10","207093","0.0-6.0-4.0","501","","","","","clear_screen","null","null","","","catch","sh","sw","l","185","150","153","207","273","165","trueblood","null","null","null","null","null","null","null","null","null","null","null","","180","200","260","200","36000","52000","[1,3]","526.8188696213176","466.73121530200996","482.23132886119384"
"","canvas-keyboard-response","11","207443","0.0-6.0-5.0","501","","","","","make choice","341","3","","","catch","sh","sw","l","185","150","153","207","273","165","trueblood","null","null","null","null","null","null","null","null","null","null","null","","180","200","260","200","36000","52000","[1,3]","","",""
"","canvas-keyboard-response","12","207462","0.0-6.0-6.0","501","","","","","clear_screen","null","null","","","catch","sh","sw","l","185","150","153","207","273","165","trueblood","null","null","null","null","null","null","null","null","null","null","null","","180","200","260","200","36000","52000","[1,3]","","",""
"","canvas-keyboard-response","13","207663","0.0-6.0-0.1","501","","","","","pre trial waiting period","null","null","","","critical","d","t","c","162.6685","237.1485","164","240","240","164","trueblood","0.02","h","164","240","240","164","162.6685","237.1485","39360","39360","38576.5967","td","null","null","null","null","null","null","[2,1]","441.4316965710836","426.5927633131187","490.0577068013284"
"","canvas-keyboard-response","14","207683","0.0-6.0-1.1","501","","","","","clear_screen","null","null","","","critical","d","t","c","162.6685","237.1485","164","240","240","164","trueblood","0.02","h","164","240","240","164","162.6685","237.1485","39360","39360","38576.5967","td","null","null","null","null","null","null","[2,1]","441.4316965710836","426.5927633131187","490.0577068013284"
"","canvas-keyboard-response","15","208196","0.0-6.0-2.1","501","","","","","rectangles no change","null","null","","","critical","d","t","c","162.6685","237.1485","164","240","240","164","trueblood","0.02","h","164","240","240","164","162.6685","237.1485","39360","39360","38576.5967","td","null","null","null","null","null","null","[2,1]","441.4316965710836","426.5927633131187","490.0577068013284"
"","canvas-keyboard-response","16","209532","0.0-6.0-3.1","501","","","","","rectangles with change","null","null","","","critical","d","t","c","162.6685","237.1485","164","240","240","164","trueblood","0.02","h","164","240","240","164","162.6685","237.1485","39360","39360","38576.5967","td","null","null","null","null","null","null","[2,1]","441.4316965710836","426.5927633131187","490.0577068013284"
"","canvas-keyboard-response","17","209551","0.0-6.0-4.1","501","","","","","clear_screen","null","null","","","critical","d","t","c","162.6685","237.1485","164","240","240","164","trueblood","0.02","h","164","240","240","164","162.6685","237.1485","39360","39360","38576.5967","td","null","null","null","null","null","null","[2,1]","441.4316965710836","426.5927633131187","490.0577068013284"
"","canvas-keyboard-response","18","214299","0.0-6.0-5.1","501","","","","","make choice","4732","2","","","critical","d","t","c","162.6685","237.1485","164","240","240","164","trueblood","0.02","h","164","240","240","164","162.6685","237.1485","39360","39360","38576.5967","td","null","null","null","null","null","null","[2,1]","","",""
"","canvas-keyboard-response","19","214317","0.0-6.0-6.1","501","","","","","clear_screen","null","null","","","critical","d","t","c","162.6685","237.1485","164","240","240","164","trueblood","0.02","h","164","240","240","164","162.6685","237.1485","39360","39360","38576.5967","td","null","null","null","null","null","null","[2,1]","","",""
"","canvas-keyboard-response","20","214519","0.0-6.0-0.2","501","","","","","pre trial waiting period","null","null","","","critical","d","c","t","162.6685","237.1485","240","164","164","240","trueblood","0.02","h","164","240","240","164","162.6685","237.1485","39360","39360","38576.5967","dc","null","null","null","null","null","null","[1,2]","434.6921202272952","485.19052858996486","440.7078504205488"
"","canvas-keyboard-response","21","214539","0.0-6.0-1.2","501","","","","","clear_screen","null","null","","","critical","d","c","t","162.6685","237.1485","240","164","164","240","trueblood","0.02","h","164","240","240","164","162.6685","237.1485","39360","39360","38576.5967","dc","null","null","null","null","null","null","[1,2]","434.6921202272952","485.19052858996486","440.7078504205488"
"","canvas-keyboard-response","22","215052","0.0-6.0-2.2","501","","","","","rectangles no change","null","null","","","critical","d","c","t","162.6685","237.1485","240","164","164","240","trueblood","0.02","h","164","240","240","164","162.6685","237.1485","39360","39360","38576.5967","dc","null","null","null","null","null","null","[1,2]","434.6921202272952","485.19052858996486","440.7078504205488"
"","canvas-keyboard-response","23","216388","0.0-6.0-3.2","501","","","","","rectangles with change","null","null","","","critical","d","c","t","162.6685","237.1485","240","164","164","240","trueblood","0.02","h","164","240","240","164","162.6685","237.1485","39360","39360","38576.5967","dc","null","null","null","null","null","null","[1,2]","434.6921202272952","485.19052858996486","440.7078504205488"
"","canvas-keyboard-response","24","216409","0.0-6.0-4.2","501","","","","","clear_screen","null","null","","","critical","d","c","t","162.6685","237.1485","240","164","164","240","trueblood","0.02","h","164","240","240","164","162.6685","237.1485","39360","39360","38576.5967","dc","null","null","null","null","null","null","[1,2]","434.6921202272952","485.19052858996486","440.7078504205488"
"","canvas-keyboard-response","25","217571","0.0-6.0-5.2","501","","","","","make choice","1155","2","","","critical","d","c","t","162.6685","237.1485","240","164","164","240","trueblood","0.02","h","164","240","240","164","162.6685","237.1485","39360","39360","38576.5967","dc","null","null","null","null","null","null","[1,2]","","",""
"","canvas-keyboard-response","26","217589","0.0-6.0-6.2","501","","","","","clear_screen","null","null","","","critical","d","c","t","162.6685","237.1485","240","164","164","240","trueblood","0.02","h","164","240","240","164","162.6685","237.1485","39360","39360","38576.5967","dc","null","null","null","null","null","null","[1,2]","","",""
"","canvas-keyboard-response","27","217791","0.0-6.0-0.3","501","","","","","pre trial waiting period","null","null","","","catch","sw","l","sh","180","200","218","273","177","145","spektor","null","null","null","null","null","null","null","null","null","null","null","","180","200","260","200","36000","52000","[2,3]","520.6912486009159","75.3718488198117","521.8606185820555"
"","canvas-keyboard-response","28","217811","0.0-6.0-1.3","501","","","","","clear_screen","null","null","","","catch","sw","l","sh","180","200","218","273","177","145","spektor","null","null","null","null","null","null","null","null","null","null","null","","180","200","260","200","36000","52000","[2,3]","520.6912486009159","75.3718488198117","521.8606185820555"
"","canvas-keyboard-response","29","218325","0.0-6.0-2.3","501","","","","","rectangles no change","null","null","","","catch","sw","l","sh","180","200","218","273","177","145","spektor","null","null","null","null","null","null","null","null","null","null","null","","180","200","260","200","36000","52000","[2,3]","520.6912486009159","75.3718488198117","521.8606185820555"
"","canvas-keyboard-response","30","219661","0.0-6.0-3.3","501","","","","","rectangles with change","null","null","","","catch","sw","l","sh","180","200","218","273","177","145","spektor","null","null","null","null","null","null","null","null","null","null","null","","180","200","260","200","36000","52000","[2,3]","520.6912486009159","75.3718488198117","521.8606185820555"
"","canvas-keyboard-response","31","219681","0.0-6.0-4.3","501","","","","","clear_screen","null","null","","","catch","sw","l","sh","180","200","218","273","177","145","spektor","null","null","null","null","null","null","null","null","null","null","null","","180","200","260","200","36000","52000","[2,3]","520.6912486009159","75.3718488198117","521.8606185820555"
"","canvas-keyboard-response","32","220547","0.0-6.0-5.3","501","","","","","make choice","860","2","","","catch","sw","l","sh","180","200","218","273","177","145","spektor","null","null","null","null","null","null","null","null","null","null","null","","180","200","260","200","36000","52000","[2,3]","","",""
"","canvas-keyboard-response","33","220565","0.0-6.0-6.3","501","","","","","clear_screen","null","null","","","catch","sw","l","sh","180","200","218","273","177","145","spektor","null","null","null","null","null","null","null","null","null","null","null","","180","200","260","200","36000","52000","[2,3]","","",""
"","canvas-keyboard-response","34","220766","0.0-6.0-0.4","501","","","","","pre trial waiting period","null","null","","","critical","d","c","t","240","164","164","240","240","164","spektor","0","w","240","164","164","240","240","164","39360","39360","39360","tc","null","null","null","null","null","null","[3,2]","534.0715447126626","138.82064974358372","534.2383357697001"
"","canvas-keyboard-response","35","220786","0.0-6.0-1.4","501","","","","","clear_screen","null","null","","","critical","d","c","t","240","164","164","240","240","164","spektor","0","w","240","164","164","240","240","164","39360","39360","39360","tc","null","null","null","null","null","null","[3,2]","534.0715447126626","138.82064974358372","534.2383357697001"
"","canvas-keyboard-response","36","221299","0.0-6.0-2.4","501","","","","","rectangles no change","null","null","","","critical","d","c","t","240","164","164","240","240","164","spektor","0","w","240","164","164","240","240","164","39360","39360","39360","tc","null","null","null","null","null","null","[3,2]","534.0715447126626","138.82064974358372","534.2383357697001"
"","canvas-keyboard-response","37","222635","0.0-6.0-3.4","501","","","","","rectangles with change","null","null","","","critical","d","c","t","240","164","164","240","240","164","spektor","0","w","240","164","164","240","240","164","39360","39360","39360","tc","null","null","null","null","null","null","[3,2]","534.0715447126626","138.82064974358372","534.2383357697001"
"","canvas-keyboard-response","38","222654","0.0-6.0-4.4","501","","","","","clear_screen","null","null","","","critical","d","c","t","240","164","164","240","240","164","spektor","0","w","240","164","164","240","240","164","39360","39360","39360","tc","null","null","null","null","null","null","[3,2]","534.0715447126626","138.82064974358372","534.2383357697001"
"","canvas-keyboard-response","39","223187","0.0-6.0-5.4","501","","","","","make choice","525","3","","","critical","d","c","t","240","164","164","240","240","164","spektor","0","w","240","164","164","240","240","164","39360","39360","39360","tc","null","null","null","null","null","null","[3,2]","","",""
"","canvas-keyboard-response","40","223206","0.0-6.0-6.4","501","","","","","clear_screen","null","null","","","critical","d","c","t","240","164","164","240","240","164","spektor","0","w","240","164","164","240","240","164","39360","39360","39360","tc","null","null","null","null","null","null","[3,2]","","",""
"","canvas-keyboard-response","41","223410","0.0-6.0-0.5","501","","","","","pre trial waiting period","null","null","","","catch","l","sw","sh","287","170","176","210","227","206","spektor","null","null","null","null","null","null","null","null","null","null","null","","180","200","260","200","36000","52000","[1,3]","515.1127456626464","174.20873342278605","477.06949524275393"
"","canvas-keyboard-response","42","223433","0.0-6.0-1.5","501","","","","","clear_screen","null","null","","","catch","l","sw","sh","287","170","176","210","227","206","spektor","null","null","null","null","null","null","null","null","null","null","null","","180","200","260","200","36000","52000","[1,3]","515.1127456626464","174.20873342278605","477.06949524275393"
"","canvas-keyboard-response","43","223946","0.0-6.0-2.5","501","","","","","rectangles no change","null","null","","","catch","l","sw","sh","287","170","176","210","227","206","spektor","null","null","null","null","null","null","null","null","null","null","null","","180","200","260","200","36000","52000","[1,3]","515.1127456626464","174.20873342278605","477.06949524275393"
"","canvas-keyboard-response","44","225283","0.0-6.0-3.5","501","","","","","rectangles with change","null","null","","","catch","l","sw","sh","287","170","176","210","227","206","spektor","null","null","null","null","null","null","null","null","null","null","null","","180","200","260","200","36000","52000","[1,3]","515.1127456626464","174.20873342278605","477.06949524275393"
"","canvas-keyboard-response","45","225302","0.0-6.0-4.5","501","","","","","clear_screen","null","null","","","catch","l","sw","sh","287","170","176","210","227","206","spektor","null","null","null","null","null","null","null","null","null","null","null","","180","200","260","200","36000","52000","[1,3]","515.1127456626464","174.20873342278605","477.06949524275393"
"","canvas-keyboard-response","46","226180","0.0-6.0-5.5","501","","","","","make choice","870","1","","","catch","l","sw","sh","287","170","176","210","227","206","spektor","null","null","null","null","null","null","null","null","null","null","null","","180","200","260","200","36000","52000","[1,3]","","",""
"","canvas-keyboard-response","47","226199","0.0-6.0-6.5","501","","","","","clear_screen","null","null","","","catch","l","sw","sh","287","170","176","210","227","206","spektor","null","null","null","null","null","null","null","null","null","null","null","","180","200","260","200","36000","52000","[1,3]","","",""
"","canvas-keyboard-response","48","226401","0.0-6.0-0.6","501","","","","","pre trial waiting period","null","null","","","critical","t","c","d","164","240","240","164","162.6685","237.1485","trueblood","0.02","h","164","240","240","164","162.6685","237.1485","39360","39360","38576.5967","tc","null","null","null","null","null","null","[1,2]","436.51073732693493","473.9065618542808","450.8250357528939"
"","canvas-keyboard-response","49","226421","0.0-6.0-1.6","501","","","","","clear_screen","null","null","","","critical","t","c","d","164","240","240","164","162.6685","237.1485","trueblood","0.02","h","164","240","240","164","162.6685","237.1485","39360","39360","38576.5967","tc","null","null","null","null","null","null","[1,2]","436.51073732693493","473.9065618542808","450.8250357528939"
"","canvas-keyboard-response","50","226932","0.0-6.0-2.6","501","","","","","rectangles no change","null","null","","","critical","t","c","d","164","240","240","164","162.6685","237.1485","trueblood","0.02","h","164","240","240","164","162.6685","237.1485","39360","39360","38576.5967","tc","null","null","null","null","null","null","[1,2]","436.51073732693493","473.9065618542808","450.8250357528939"
"","canvas-keyboard-response","51","228267","0.0-6.0-3.6","501","","","","","rectangles with change","null","null","","","critical","t","c","d","164","240","240","164","162.6685","237.1485","trueblood","0.02","h","164","240","240","164","162.6685","237.1485","39360","39360","38576.5967","tc","null","null","null","null","null","null","[1,2]","436.51073732693493","473.9065618542808","450.8250357528939"
"","canvas-keyboard-response","52","228288","0.0-6.0-4.6","501","","","","","clear_screen","null","null","","","critical","t","c","d","164","240","240","164","162.6685","237.1485","trueblood","0.02","h","164","240","240","164","162.6685","237.1485","39360","39360","38576.5967","tc","null","null","null","null","null","null","[1,2]","436.51073732693493","473.9065618542808","450.8250357528939"
"","canvas-keyboard-response","53","229027","0.0-6.0-5.6","501","","","","","make choice","727","2","","","critical","t","c","d","164","240","240","164","162.6685","237.1485","trueblood","0.02","h","164","240","240","164","162.6685","237.1485","39360","39360","38576.5967","tc","null","null","null","null","null","null","[1,2]","","",""
"","canvas-keyboard-response","54","229046","0.0-6.0-6.6","501","","","","","clear_screen","null","null","","","critical","t","c","d","164","240","240","164","162.6685","237.1485","trueblood","0.02","h","164","240","240","164","162.6685","237.1485","39360","39360","38576.5967","tc","null","null","null","null","null","null","[1,2]","","",""
"","canvas-keyboard-response","55","229247","0.0-6.0-0.7","501","","","","","pre trial waiting period","null","null","","","catch","sh","l","sw","172","194","206","229","210","170","trueblood","null","null","null","null","null","null","null","null","null","null","null","","180","200","260","200","36000","52000","[1,2]","453.50689590900924","442.4028639337708","497.91279127225346"
"","canvas-keyboard-response","56","229268","0.0-6.0-1.7","501","","","","","clear_screen","null","null","","","catch","sh","l","sw","172","194","206","229","210","170","trueblood","null","null","null","null","null","null","null","null","null","null","null","","180","200","260","200","36000","52000","[1,2]","453.50689590900924","442.4028639337708","497.91279127225346"
"","canvas-keyboard-response","57","229779","0.0-6.0-2.7","501","","","","","rectangles no change","null","null","","","catch","sh","l","sw","172","194","206","229","210","170","trueblood","null","null","null","null","null","null","null","null","null","null","null","","180","200","260","200","36000","52000","[1,2]","453.50689590900924","442.4028639337708","497.91279127225346"
"","canvas-keyboard-response","58","231115","0.0-6.0-3.7","501","","","","","rectangles with change","null","null","","","catch","sh","l","sw","172","194","206","229","210","170","trueblood","null","null","null","null","null","null","null","null","null","null","null","","180","200","260","200","36000","52000","[1,2]","453.50689590900924","442.4028639337708","497.91279127225346"
"","canvas-keyboard-response","59","231134","0.0-6.0-4.7","501","","","","","clear_screen","null","null","","","catch","sh","l","sw","172","194","206","229","210","170","trueblood","null","null","null","null","null","null","null","null","null","null","null","","180","200","260","200","36000","52000","[1,2]","453.50689590900924","442.4028639337708","497.91279127225346"
"","canvas-keyboard-response","60","231899","0.0-6.0-5.7","501","","","","","make choice","757","2","","","catch","sh","l","sw","172","194","206","229","210","170","trueblood","null","null","null","null","null","null","null","null","null","null","null","","180","200","260","200","36000","52000","[1,2]","","",""
"","canvas-keyboard-response","61","231918","0.0-6.0-6.7","501","","","","","clear_screen","null","null","","","catch","sh","l","sw","172","194","206","229","210","170","trueblood","null","null","null","null","null","null","null","null","null","null","null","","180","200","260","200","36000","52000","[1,2]","","",""
"","canvas-keyboard-response","62","232120","0.0-6.0-0.8","501","","","","","pre trial waiting period","null","null","","","catch","l","sw","sh","232","294","147","190","160","162","spektor","null","null","null","null","null","null","null","null","null","null","null","","180","200","260","200","36000","52000","[1,3]","453.16415042789623","148.6291768894104","525.3304881690003"
"","canvas-keyboard-response","63","232139","0.0-6.0-1.8","501","","","","","clear_screen","null","null","","","catch","l","sw","sh","232","294","147","190","160","162","spektor","null","null","null","null","null","null","null","null","null","null","null","","180","200","260","200","36000","52000","[1,3]","453.16415042789623","148.6291768894104","525.3304881690003"
"","canvas-keyboard-response","64","232653","0.0-6.0-2.8","501","","","","","rectangles no change","null","null","","","catch","l","sw","sh","232","294","147","190","160","162","spektor","null","null","null","null","null","null","null","null","null","null","null","","180","200","260","200","36000","52000","[1,3]","453.16415042789623","148.6291768894104","525.3304881690003"
"","canvas-keyboard-response","65","233988","0.0-6.0-3.8","501","","","","","rectangles with change","null","null","","","catch","l","sw","sh","232","294","147","190","160","162","spektor","null","null","null","null","null","null","null","null","null","null","null","","180","200","260","200","36000","52000","[1,3]","453.16415042789623","148.6291768894104","525.3304881690003"
"","canvas-keyboard-response","66","234008","0.0-6.0-4.8","501","","","","","clear_screen","null","null","","","catch","l","sw","sh","232","294","147","190","160","162","spektor","null","null","null","null","null","null","null","null","null","null","null","","180","200","260","200","36000","52000","[1,3]","453.16415042789623","148.6291768894104","525.3304881690003"
"","canvas-keyboard-response","67","235027","0.0-6.0-5.8","501","","","","","make choice","1011","1","","","catch","l","sw","sh","232","294","147","190","160","162","spektor","null","null","null","null","null","null","null","null","null","null","null","","180","200","260","200","36000","52000","[1,3]","","",""
"","canvas-keyboard-response","68","235046","0.0-6.0-6.8","501","","","","","clear_screen","null","null","","","catch","l","sw","sh","232","294","147","190","160","162","spektor","null","null","null","null","null","null","null","null","null","null","null","","180","200","260","200","36000","52000","[1,3]","","",""
"","canvas-keyboard-response","69","235247","0.0-6.0-0.9","501","","","","","pre trial waiting period","null","null","","","critical","c","d","t","164","240","232.8713","160.6713","240","164","spektor","0.05","w","240","164","164","240","232.8713","160.6713","39360","39360","37415.7294","td","null","null","null","null","null","null","[3,2]","493.9027529839915","208.19896331932955","502.2742727499238"
"","canvas-keyboard-response","70","235267","0.0-6.0-1.9","501","","","","","clear_screen","null","null","","","critical","c","d","t","164","240","232.8713","160.6713","240","164","spektor","0.05","w","240","164","164","240","232.8713","160.6713","39360","39360","37415.7294","td","null","null","null","null","null","null","[3,2]","493.9027529839915","208.19896331932955","502.2742727499238"
"","canvas-keyboard-response","71","235778","0.0-6.0-2.9","501","","","","","rectangles no change","null","null","","","critical","c","d","t","164","240","232.8713","160.6713","240","164","spektor","0.05","w","240","164","164","240","232.8713","160.6713","39360","39360","37415.7294","td","null","null","null","null","null","null","[3,2]","493.9027529839915","208.19896331932955","502.2742727499238"
"","canvas-keyboard-response","72","237114","0.0-6.0-3.9","501","","","","","rectangles with change","null","null","","","critical","c","d","t","164","240","232.8713","160.6713","240","164","spektor","0.05","w","240","164","164","240","232.8713","160.6713","39360","39360","37415.7294","td","null","null","null","null","null","null","[3,2]","493.9027529839915","208.19896331932955","502.2742727499238"
"","canvas-keyboard-response","73","237132","0.0-6.0-4.9","501","","","","","clear_screen","null","null","","","critical","c","d","t","164","240","232.8713","160.6713","240","164","spektor","0.05","w","240","164","164","240","232.8713","160.6713","39360","39360","37415.7294","td","null","null","null","null","null","null","[3,2]","493.9027529839915","208.19896331932955","502.2742727499238"
"","canvas-keyboard-response","74","237203","0.0-6.0-5.9","501","","","","","make choice","61","3","","","critical","c","d","t","164","240","232.8713","160.6713","240","164","spektor","0.05","w","240","164","164","240","232.8713","160.6713","39360","39360","37415.7294","td","null","null","null","null","null","null","[3,2]","","",""
"","canvas-keyboard-response","75","237222","0.0-6.0-6.9","501","","","","","clear_screen","null","null","","","critical","c","d","t","164","240","232.8713","160.6713","240","164","spektor","0.05","w","240","164","164","240","232.8713","160.6713","39360","39360","37415.7294","td","null","null","null","null","null","null","[3,2]","","",""
"","canvas-keyboard-response","76","237422","0.0-6.0-0.10","501","","","","","pre trial waiting period","null","null","","","critical","t","d","c","240","164","237.1485","162.6685","164","240","trueblood","0.02","w","240","164","164","240","237.1485","162.6685","39360","39360","38576.5967","dc","null","null","null","null","null","null","[2,3]","470.1440953093491","513.9431400479141","427.96937961669994"
"","canvas-keyboard-response","77","237444","0.0-6.0-1.10","501","","","","","clear_screen","null","null","","","critical","t","d","c","240","164","237.1485","162.6685","164","240","trueblood","0.02","w","240","164","164","240","237.1485","162.6685","39360","39360","38576.5967","dc","null","null","null","null","null","null","[2,3]","470.1440953093491","513.9431400479141","427.96937961669994"
"","canvas-keyboard-response","78","237960","0.0-6.0-2.10","501","","","","","rectangles no change","null","null","","","critical","t","d","c","240","164","237.1485","162.6685","164","240","trueblood","0.02","w","240","164","164","240","237.1485","162.6685","39360","39360","38576.5967","dc","null","null","null","null","null","null","[2,3]","470.1440953093491","513.9431400479141","427.96937961669994"
"","canvas-keyboard-response","79","239296","0.0-6.0-3.10","501","","","","","rectangles with change","null","null","","","critical","t","d","c","240","164","237.1485","162.6685","164","240","trueblood","0.02","w","240","164","164","240","237.1485","162.6685","39360","39360","38576.5967","dc","null","null","null","null","null","null","[2,3]","470.1440953093491","513.9431400479141","427.96937961669994"
"","canvas-keyboard-response","80","239315","0.0-6.0-4.10","501","","","","","clear_screen","null","null","","","critical","t","d","c","240","164","237.1485","162.6685","164","240","trueblood","0.02","w","240","164","164","240","237.1485","162.6685","39360","39360","38576.5967","dc","null","null","null","null","null","null","[2,3]","470.1440953093491","513.9431400479141","427.96937961669994"
"","canvas-keyboard-response","81","240427","0.0-6.0-5.10","501","","","","","make choice","1105","2","","","critical","t","d","c","240","164","237.1485","162.6685","164","240","trueblood","0.02","w","240","164","164","240","237.1485","162.6685","39360","39360","38576.5967","dc","null","null","null","null","null","null","[2,3]","","",""
"","canvas-keyboard-response","82","240444","0.0-6.0-6.10","501","","","","","clear_screen","null","null","","","critical","t","d","c","240","164","237.1485","162.6685","164","240","trueblood","0.02","w","240","164","164","240","237.1485","162.6685","39360","39360","38576.5967","dc","null","null","null","null","null","null","[2,3]","","",""
"","canvas-keyboard-response","83","240646","0.0-6.0-0.11","501","","","","","pre trial waiting period","null","null","","","critical","c","t","d","164","240","240","164","220.0396","154.6796","spektor","0.14","w","240","164","164","240","220.0396","154.6796","39360","39360","34035.6388","tc","null","null","null","null","null","null","[2,1]","467.69589992474965","200.48666819637558","541.0246915928117"
"","canvas-keyboard-response","84","240665","0.0-6.0-1.11","501","","","","","clear_screen","null","null","","","critical","c","t","d","164","240","240","164","220.0396","154.6796","spektor","0.14","w","240","164","164","240","220.0396","154.6796","39360","39360","34035.6388","tc","null","null","null","null","null","null","[2,1]","467.69589992474965","200.48666819637558","541.0246915928117"
"","canvas-keyboard-response","85","241177","0.0-6.0-2.11","501","","","","","rectangles no change","null","null","","","critical","c","t","d","164","240","240","164","220.0396","154.6796","spektor","0.14","w","240","164","164","240","220.0396","154.6796","39360","39360","34035.6388","tc","null","null","null","null","null","null","[2,1]","467.69589992474965","200.48666819637558","541.0246915928117"
"","canvas-keyboard-response","86","242512","0.0-6.0-3.11","501","","","","","rectangles with change","null","null","","","critical","c","t","d","164","240","240","164","220.0396","154.6796","spektor","0.14","w","240","164","164","240","220.0396","154.6796","39360","39360","34035.6388","tc","null","null","null","null","null","null","[2,1]","467.69589992474965","200.48666819637558","541.0246915928117"
"","canvas-keyboard-response","87","242532","0.0-6.0-4.11","501","","","","","clear_screen","null","null","","","critical","c","t","d","164","240","240","164","220.0396","154.6796","spektor","0.14","w","240","164","164","240","220.0396","154.6796","39360","39360","34035.6388","tc","null","null","null","null","null","null","[2,1]","467.69589992474965","200.48666819637558","541.0246915928117"
"","canvas-keyboard-response","88","243707","0.0-6.0-5.11","501","","","","","make choice","1168","2","","","critical","c","t","d","164","240","240","164","220.0396","154.6796","spektor","0.14","w","240","164","164","240","220.0396","154.6796","39360","39360","34035.6388","tc","null","null","null","null","null","null","[2,1]","","",""
"","canvas-keyboard-response","89","243724","0.0-6.0-6.11","501","","","","","clear_screen","null","null","","","critical","c","t","d","164","240","240","164","220.0396","154.6796","spektor","0.14","w","240","164","164","240","220.0396","154.6796","39360","39360","34035.6388","tc","null","null","null","null","null","null","[2,1]","","",""
"","canvas-keyboard-response","90","243926","0.0-6.0-0.12","501","","","","","pre trial waiting period","null","null","","","critical","t","c","d","164","240","240","164","158.0083","227.1683","trueblood","0.09","h","164","240","240","164","158.0083","227.1683","39360","39360","35894.4834","tc","null","null","null","null","null","null","[1,2]","445.14157553089717","514.7788401201516","461.36638118531766"
"","canvas-keyboard-response","91","243945","0.0-6.0-1.12","501","","","","","clear_screen","null","null","","","critical","t","c","d","164","240","240","164","158.0083","227.1683","trueblood","0.09","h","164","240","240","164","158.0083","227.1683","39360","39360","35894.4834","tc","null","null","null","null","null","null","[1,2]","445.14157553089717","514.7788401201516","461.36638118531766"
"","canvas-keyboard-response","92","244456","0.0-6.0-2.12","501","","","","","rectangles no change","null","null","","","critical","t","c","d","164","240","240","164","158.0083","227.1683","trueblood","0.09","h","164","240","240","164","158.0083","227.1683","39360","39360","35894.4834","tc","null","null","null","null","null","null","[1,2]","445.14157553089717","514.7788401201516","461.36638118531766"
"","canvas-keyboard-response","93","245791","0.0-6.0-3.12","501","","","","","rectangles with change","null","null","","","critical","t","c","d","164","240","240","164","158.0083","227.1683","trueblood","0.09","h","164","240","240","164","158.0083","227.1683","39360","39360","35894.4834","tc","null","null","null","null","null","null","[1,2]","445.14157553089717","514.7788401201516","461.36638118531766"
"","canvas-keyboard-response","94","245809","0.0-6.0-4.12","501","","","","","clear_screen","null","null","","","critical","t","c","d","164","240","240","164","158.0083","227.1683","trueblood","0.09","h","164","240","240","164","158.0083","227.1683","39360","39360","35894.4834","tc","null","null","null","null","null","null","[1,2]","445.14157553089717","514.7788401201516","461.36638118531766"
"","canvas-keyboard-response","95","246363","0.0-6.0-5.12","501","","","","","make choice","546","2","","","critical","t","c","d","164","240","240","164","158.0083","227.1683","trueblood","0.09","h","164","240","240","164","158.0083","227.1683","39360","39360","35894.4834","tc","null","null","null","null","null","null","[1,2]","","",""
"","canvas-keyboard-response","96","246381","0.0-6.0-6.12","501","","","","","clear_screen","null","null","","","critical","t","c","d","164","240","240","164","158.0083","227.1683","trueblood","0.09","h","164","240","240","164","158.0083","227.1683","39360","39360","35894.4834","tc","null","null","null","null","null","null","[1,2]","","",""
"","canvas-keyboard-response","97","246582","0.0-6.0-0.13","501","","","","","pre trial waiting period","null","null","","","catch","l","sh","sw","213","245","219","191","161","198","spektor","null","null","null","null","null","null","null","null","null","null","null","","180","200","260","200","36000","52000","[1,3]","490.6768949567638","165.9646827411312","523.3983388253547"
"","canvas-keyboard-response","98","246601","0.0-6.0-1.13","501","","","","","clear_screen","null","null","","","catch","l","sh","sw","213","245","219","191","161","198","spektor","null","null","null","null","null","null","null","null","null","null","null","","180","200","260","200","36000","52000","[1,3]","490.6768949567638","165.9646827411312","523.3983388253547"
"","canvas-keyboard-response","99","247113","0.0-6.0-2.13","501","","","","","rectangles no change","null","null","","","catch","l","sh","sw","213","245","219","191","161","198","spektor","null","null","null","null","null","null","null","null","null","null","null","","180","200","260","200","36000","52000","[1,3]","490.6768949567638","165.9646827411312","523.3983388253547"
"","canvas-keyboard-response","100","248447","0.0-6.0-3.13","501","","","","","rectangles with change","null","null","","","catch","l","sh","sw","213","245","219","191","161","198","spektor","null","null","null","null","null","null","null","null","null","null","null","","180","200","260","200","36000","52000","[1,3]","490.6768949567638","165.9646827411312","523.3983388253547"
"","canvas-keyboard-response","101","248460","0.0-6.0-4.13","501","","","","","clear_screen","1","1","","","catch","l","sh","sw","213","245","219","191","161","198","spektor","null","null","null","null","null","null","null","null","null","null","null","","180","200","260","200","36000","52000","[1,3]","490.6768949567638","165.9646827411312","523.3983388253547"
"","canvas-keyboard-response","102","250290","0.0-6.0-5.13","501","","","","","make choice","1826","1","","","catch","l","sh","sw","213","245","219","191","161","198","spektor","null","null","null","null","null","null","null","null","null","null","null","","180","200","260","200","36000","52000","[1,3]","","",""
"","canvas-keyboard-response","103","250309","0.0-6.0-6.13","501","","","","","clear_screen","null","null","","","catch","l","sh","sw","213","245","219","191","161","198","spektor","null","null","null","null","null","null","null","null","null","null","null","","180","200","260","200","36000","52000","[1,3]","","",""
"","canvas-keyboard-response","104","250510","0.0-6.0-0.14","501","","","","","pre trial waiting period","null","null","","","catch","sw","sh","l","180","200","231","148","228","295","spektor","null","null","null","null","null","null","null","null","null","null","null","","180","200","260","200","36000","52000","[2,3]","497.6777513956863","209.0459933854067","429.4393360192697"
"","canvas-keyboard-response","105","250529","0.0-6.0-1.14","501","","","","","clear_screen","null","null","","","catch","sw","sh","l","180","200","231","148","228","295","spektor","null","null","null","null","null","null","null","null","null","null","null","","180","200","260","200","36000","52000","[2,3]","497.6777513956863","209.0459933854067","429.4393360192697"
"","canvas-keyboard-response","106","251043","0.0-6.0-2.14","501","","","","","rectangles no change","null","null","","","catch","sw","sh","l","180","200","231","148","228","295","spektor","null","null","null","null","null","null","null","null","null","null","null","","180","200","260","200","36000","52000","[2,3]","497.6777513956863","209.0459933854067","429.4393360192697"
"","canvas-keyboard-response","107","252377","0.0-6.0-3.14","501","","","","","rectangles with change","null","null","","","catch","sw","sh","l","180","200","231","148","228","295","spektor","null","null","null","null","null","null","null","null","null","null","null","","180","200","260","200","36000","52000","[2,3]","497.6777513956863","209.0459933854067","429.4393360192697"
"","canvas-keyboard-response","108","252396","0.0-6.0-4.14","501","","","","","clear_screen","null","null","","","catch","sw","sh","l","180","200","231","148","228","295","spektor","null","null","null","null","null","null","null","null","null","null","null","","180","200","260","200","36000","52000","[2,3]","497.6777513956863","209.0459933854067","429.4393360192697"
"","canvas-keyboard-response","109","252971","0.0-6.0-5.14","501","","","","","make choice","567","3","","","catch","sw","sh","l","180","200","231","148","228","295","spektor","null","null","null","null","null","null","null","null","null","null","null","","180","200","260","200","36000","52000","[2,3]","","",""
"","canvas-keyboard-response","110","252989","0.0-6.0-6.14","501","","","","","clear_screen","null","null","","","catch","sw","sh","l","180","200","231","148","228","295","spektor","null","null","null","null","null","null","null","null","null","null","null","","180","200","260","200","36000","52000","[2,3]","","",""
"","canvas-keyboard-response","111","253190","0.0-6.0-0.15","501","","","","","pre trial waiting period","null","null","","","critical","c","t","d","240","164","164","240","164","240","spektor","0","h","164","240","240","164","164","240","39360","39360","39360","dc","null","null","null","null","null","null","[3,1]","536.1773983232657","109.85613570309978","458.8592687060079"
"","canvas-keyboard-response","112","253208","0.0-6.0-1.15","501","","","","","clear_screen","null","null","","","critical","c","t","d","240","164","164","240","164","240","spektor","0","h","164","240","240","164","164","240","39360","39360","39360","dc","null","null","null","null","null","null","[3,1]","536.1773983232657","109.85613570309978","458.8592687060079"
"","canvas-keyboard-response","113","253720","0.0-6.0-2.15","501","","","","","rectangles no change","null","null","","","critical","c","t","d","240","164","164","240","164","240","spektor","0","h","164","240","240","164","164","240","39360","39360","39360","dc","null","null","null","null","null","null","[3,1]","536.1773983232657","109.85613570309978","458.8592687060079"
"","canvas-keyboard-response","114","255056","0.0-6.0-3.15","501","","","","","rectangles with change","null","null","","","critical","c","t","d","240","164","164","240","164","240","spektor","0","h","164","240","240","164","164","240","39360","39360","39360","dc","null","null","null","null","null","null","[3,1]","536.1773983232657","109.85613570309978","458.8592687060079"
"","canvas-keyboard-response","115","255079","0.0-6.0-4.15","501","","","","","clear_screen","null","null","","","critical","c","t","d","240","164","164","240","164","240","spektor","0","h","164","240","240","164","164","240","39360","39360","39360","dc","null","null","null","null","null","null","[3,1]","536.1773983232657","109.85613570309978","458.8592687060079"
"","canvas-keyboard-response","116","256419","0.0-6.0-5.15","501","","","","","make choice","1333","1","","","critical","c","t","d","240","164","164","240","164","240","spektor","0","h","164","240","240","164","164","240","39360","39360","39360","dc","null","null","null","null","null","null","[3,1]","","",""
"","canvas-keyboard-response","117","256439","0.0-6.0-6.15","501","","","","","clear_screen","null","null","","","critical","c","t","d","240","164","164","240","164","240","spektor","0","h","164","240","240","164","164","240","39360","39360","39360","dc","null","null","null","null","null","null","[3,1]","","",""
"","canvas-keyboard-response","118","256642","0.0-6.0-0.16","501","","","","","pre trial waiting period","null","null","","","critical","d","c","t","160.6713","232.8713","240","164","164","240","spektor","0.05","h","164","240","240","164","160.6713","232.8713","39360","39360","37415.7294","td","null","null","null","null","null","null","[3,1]","479.3442942099911","190.14311917147913","493.77934401919515"
"","canvas-keyboard-response","119","256661","0.0-6.0-1.16","501","","","","","clear_screen","null","null","","","critical","d","c","t","160.6713","232.8713","240","164","164","240","spektor","0.05","h","164","240","240","164","160.6713","232.8713","39360","39360","37415.7294","td","null","null","null","null","null","null","[3,1]","479.3442942099911","190.14311917147913","493.77934401919515"
"","canvas-keyboard-response","120","257174","0.0-6.0-2.16","501","","","","","rectangles no change","null","null","","","critical","d","c","t","160.6713","232.8713","240","164","164","240","spektor","0.05","h","164","240","240","164","160.6713","232.8713","39360","39360","37415.7294","td","null","null","null","null","null","null","[3,1]","479.3442942099911","190.14311917147913","493.77934401919515"
"","canvas-keyboard-response","121","258510","0.0-6.0-3.16","501","","","","","rectangles with change","null","null","","","critical","d","c","t","160.6713","232.8713","240","164","164","240","spektor","0.05","h","164","240","240","164","160.6713","232.8713","39360","39360","37415.7294","td","null","null","null","null","null","null","[3,1]","479.3442942099911","190.14311917147913","493.77934401919515"
"","canvas-keyboard-response","122","258529","0.0-6.0-4.16","501","","","","","clear_screen","null","null","","","critical","d","c","t","160.6713","232.8713","240","164","164","240","spektor","0.05","h","164","240","240","164","160.6713","232.8713","39360","39360","37415.7294","td","null","null","null","null","null","null","[3,1]","479.3442942099911","190.14311917147913","493.77934401919515"
"","canvas-keyboard-response","123","262227","0.0-6.0-5.16","501","","","","","make choice","3691","1","","","critical","d","c","t","160.6713","232.8713","240","164","164","240","spektor","0.05","h","164","240","240","164","160.6713","232.8713","39360","39360","37415.7294","td","null","null","null","null","null","null","[3,1]","","",""
"","canvas-keyboard-response","124","262246","0.0-6.0-6.16","501","","","","","clear_screen","null","null","","","critical","d","c","t","160.6713","232.8713","240","164","164","240","spektor","0.05","h","164","240","240","164","160.6713","232.8713","39360","39360","37415.7294","td","null","null","null","null","null","null","[3,1]","","",""
"","canvas-keyboard-response","125","262447","0.0-6.0-0.17","501","","","","","pre trial waiting period","null","null","","","critical","c","t","d","240","164","164","240","164","240","trueblood","0","h","164","240","240","164","164","240","39360","39360","39360","tc","null","null","null","null","null","null","[2,1]","508.4862234245375","425.1549750033509","449.85505520812706"
"","canvas-keyboard-response","126","262468","0.0-6.0-1.17","501","","","","","clear_screen","null","null","","","critical","c","t","d","240","164","164","240","164","240","trueblood","0","h","164","240","240","164","164","240","39360","39360","39360","tc","null","null","null","null","null","null","[2,1]","508.4862234245375","425.1549750033509","449.85505520812706"
"","canvas-keyboard-response","127","262983","0.0-6.0-2.17","501","","","","","rectangles no change","null","null","","","critical","c","t","d","240","164","164","240","164","240","trueblood","0","h","164","240","240","164","164","240","39360","39360","39360","tc","null","null","null","null","null","null","[2,1]","508.4862234245375","425.1549750033509","449.85505520812706"
"","canvas-keyboard-response","128","264318","0.0-6.0-3.17","501","","","","","rectangles with change","null","null","","","critical","c","t","d","240","164","164","240","164","240","trueblood","0","h","164","240","240","164","164","240","39360","39360","39360","tc","null","null","null","null","null","null","[2,1]","508.4862234245375","425.1549750033509","449.85505520812706"
"","canvas-keyboard-response","129","264337","0.0-6.0-4.17","501","","","","","clear_screen","null","null","","","critical","c","t","d","240","164","164","240","164","240","trueblood","0","h","164","240","240","164","164","240","39360","39360","39360","tc","null","null","null","null","null","null","[2,1]","508.4862234245375","425.1549750033509","449.85505520812706"
"","canvas-keyboard-response","130","265154","0.0-6.0-5.17","501","","","","","make choice","810","1","","","critical","c","t","d","240","164","164","240","164","240","trueblood","0","h","164","240","240","164","164","240","39360","39360","39360","tc","null","null","null","null","null","null","[2,1]","","",""
"","canvas-keyboard-response","131","265174","0.0-6.0-6.17","501","","","","","clear_screen","null","null","","","critical","c","t","d","240","164","164","240","164","240","trueblood","0","h","164","240","240","164","164","240","39360","39360","39360","tc","null","null","null","null","null","null","[2,1]","","",""
"","canvas-keyboard-response","132","265375","0.0-6.0-0.18","501","","","","","pre trial waiting period","null","null","","","critical","d","c","t","158.0083","227.1683","240","164","164","240","spektor","0.09","h","164","240","240","164","158.0083","227.1683","39360","39360","35894.4834","td","null","null","null","null","null","null","[3,1]","502.72868583432734","165.95967580149858","455.2075175712058"
"","canvas-keyboard-response","133","265395","0.0-6.0-1.18","501","","","","","clear_screen","null","null","","","critical","d","c","t","158.0083","227.1683","240","164","164","240","spektor","0.09","h","164","240","240","164","158.0083","227.1683","39360","39360","35894.4834","td","null","null","null","null","null","null","[3,1]","502.72868583432734","165.95967580149858","455.2075175712058"
"","canvas-keyboard-response","134","265905","0.0-6.0-2.18","501","","","","","rectangles no change","null","null","","","critical","d","c","t","158.0083","227.1683","240","164","164","240","spektor","0.09","h","164","240","240","164","158.0083","227.1683","39360","39360","35894.4834","td","null","null","null","null","null","null","[3,1]","502.72868583432734","165.95967580149858","455.2075175712058"
"","canvas-keyboard-response","135","267243","0.0-6.0-3.18","501","","","","","rectangles with change","null","null","","","critical","d","c","t","158.0083","227.1683","240","164","164","240","spektor","0.09","h","164","240","240","164","158.0083","227.1683","39360","39360","35894.4834","td","null","null","null","null","null","null","[3,1]","502.72868583432734","165.95967580149858","455.2075175712058"
"","canvas-keyboard-response","136","267261","0.0-6.0-4.18","501","","","","","clear_screen","null","null","","","critical","d","c","t","158.0083","227.1683","240","164","164","240","spektor","0.09","h","164","240","240","164","158.0083","227.1683","39360","39360","35894.4834","td","null","null","null","null","null","null","[3,1]","502.72868583432734","165.95967580149858","455.2075175712058"
"","canvas-keyboard-response","137","268619","0.0-6.0-5.18","501","","","","","make choice","1352","3","","","critical","d","c","t","158.0083","227.1683","240","164","164","240","spektor","0.09","h","164","240","240","164","158.0083","227.1683","39360","39360","35894.4834","td","null","null","null","null","null","null","[3,1]","","",""
"","canvas-keyboard-response","138","268638","0.0-6.0-6.18","501","","","","","clear_screen","null","null","","","critical","d","c","t","158.0083","227.1683","240","164","164","240","spektor","0.09","h","164","240","240","164","158.0083","227.1683","39360","39360","35894.4834","td","null","null","null","null","null","null","[3,1]","","",""
"","canvas-keyboard-response","139","268840","0.0-6.0-0.19","501","","","","","pre trial waiting period","null","null","","","critical","c","t","d","240","164","164","240","154.6796","220.0396","spektor","0.14","h","164","240","240","164","154.6796","220.0396","39360","39360","34035.6388","td","null","null","null","null","null","null","[2,3]","515.3655978071406","98.3223123861575","468.72197270500556"
"","canvas-keyboard-response","140","268861","0.0-6.0-1.19","501","","","","","clear_screen","null","null","","","critical","c","t","d","240","164","164","240","154.6796","220.0396","spektor","0.14","h","164","240","240","164","154.6796","220.0396","39360","39360","34035.6388","td","null","null","null","null","null","null","[2,3]","515.3655978071406","98.3223123861575","468.72197270500556"
"","canvas-keyboard-response","141","269372","0.0-6.0-2.19","501","","","","","rectangles no change","null","null","","","critical","c","t","d","240","164","164","240","154.6796","220.0396","spektor","0.14","h","164","240","240","164","154.6796","220.0396","39360","39360","34035.6388","td","null","null","null","null","null","null","[2,3]","515.3655978071406","98.3223123861575","468.72197270500556"
"","canvas-keyboard-response","142","270707","0.0-6.0-3.19","501","","","","","rectangles with change","null","null","","","critical","c","t","d","240","164","164","240","154.6796","220.0396","spektor","0.14","h","164","240","240","164","154.6796","220.0396","39360","39360","34035.6388","td","null","null","null","null","null","null","[2,3]","515.3655978071406","98.3223123861575","468.72197270500556"
"","canvas-keyboard-response","143","270726","0.0-6.0-4.19","501","","","","","clear_screen","null","null","","","critical","c","t","d","240","164","164","240","154.6796","220.0396","spektor","0.14","h","164","240","240","164","154.6796","220.0396","39360","39360","34035.6388","td","null","null","null","null","null","null","[2,3]","515.3655978071406","98.3223123861575","468.72197270500556"
"","canvas-keyboard-response","144","272035","0.0-6.0-5.19","501","","","","","make choice","1300","3","","","critical","c","t","d","240","164","164","240","154.6796","220.0396","spektor","0.14","h","164","240","240","164","154.6796","220.0396","39360","39360","34035.6388","td","null","null","null","null","null","null","[2,3]","","",""
"","canvas-keyboard-response","145","272053","0.0-6.0-6.19","501","","","","","clear_screen","null","null","","","critical","c","t","d","240","164","164","240","154.6796","220.0396","spektor","0.14","h","164","240","240","164","154.6796","220.0396","39360","39360","34035.6388","td","null","null","null","null","null","null","[2,3]","","",""
"","canvas-keyboard-response","146","272254","0.0-6.0-0.20","501","","","","","pre trial waiting period","null","null","","","catch","sh","sw","l","196","145","140","196","251","238","spektor","null","null","null","null","null","null","null","null","null","null","null","","180","200","260","200","36000","52000","[1,3]","550.0723638869031","170.72095548704982","500.1036455559382"
"","canvas-keyboard-response","147","272276","0.0-6.0-1.20","501","","","","","clear_screen","null","null","","","catch","sh","sw","l","196","145","140","196","251","238","spektor","null","null","null","null","null","null","null","null","null","null","null","","180","200","260","200","36000","52000","[1,3]","550.0723638869031","170.72095548704982","500.1036455559382"
"","canvas-keyboard-response","148","272787","0.0-6.0-2.20","501","","","","","rectangles no change","null","null","","","catch","sh","sw","l","196","145","140","196","251","238","spektor","null","null","null","null","null","null","null","null","null","null","null","","180","200","260","200","36000","52000","[1,3]","550.0723638869031","170.72095548704982","500.1036455559382"
"","canvas-keyboard-response","149","274123","0.0-6.0-3.20","501","","","","","rectangles with change","null","null","","","catch","sh","sw","l","196","145","140","196","251","238","spektor","null","null","null","null","null","null","null","null","null","null","null","","180","200","260","200","36000","52000","[1,3]","550.0723638869031","170.72095548704982","500.1036455559382"
"","canvas-keyboard-response","150","274144","0.0-6.0-4.20","501","","","","","clear_screen","null","null","","","catch","sh","sw","l","196","145","140","196","251","238","spektor","null","null","null","null","null","null","null","null","null","null","null","","180","200","260","200","36000","52000","[1,3]","550.0723638869031","170.72095548704982","500.1036455559382"
"","canvas-keyboard-response","151","275187","0.0-6.0-5.20","501","","","","","make choice","1036","1","","","catch","sh","sw","l","196","145","140","196","251","238","spektor","null","null","null","null","null","null","null","null","null","null","null","","180","200","260","200","36000","52000","[1,3]","","",""
"","canvas-keyboard-response","152","275206","0.0-6.0-6.20","501","","","","","clear_screen","null","null","","","catch","sh","sw","l","196","145","140","196","251","238","spektor","null","null","null","null","null","null","null","null","null","null","null","","180","200","260","200","36000","52000","[1,3]","","",""
"","canvas-keyboard-response","153","275406","0.0-6.0-0.21","501","","","","","pre trial waiting period","null","null","","","catch","sh","sw","l","209","178","143","170","240","195","trueblood","null","null","null","null","null","null","null","null","null","null","null","","180","200","260","200","36000","52000","[1,3]","509.0345852903744","470.70264353482935","463.7606139939191"
"","canvas-keyboard-response","154","275426","0.0-6.0-1.21","501","","","","","clear_screen","null","null","","","catch","sh","sw","l","209","178","143","170","240","195","trueblood","null","null","null","null","null","null","null","null","null","null","null","","180","200","260","200","36000","52000","[1,3]","509.0345852903744","470.70264353482935","463.7606139939191"
"","canvas-keyboard-response","155","275936","0.0-6.0-2.21","501","","","","","rectangles no change","null","null","","","catch","sh","sw","l","209","178","143","170","240","195","trueblood","null","null","null","null","null","null","null","null","null","null","null","","180","200","260","200","36000","52000","[1,3]","509.0345852903744","470.70264353482935","463.7606139939191"
"","canvas-keyboard-response","156","277272","0.0-6.0-3.21","501","","","","","rectangles with change","null","null","","","catch","sh","sw","l","209","178","143","170","240","195","trueblood","null","null","null","null","null","null","null","null","null","null","null","","180","200","260","200","36000","52000","[1,3]","509.0345852903744","470.70264353482935","463.7606139939191"
"","canvas-keyboard-response","157","277291","0.0-6.0-4.21","501","","","","","clear_screen","null","null","","","catch","sh","sw","l","209","178","143","170","240","195","trueblood","null","null","null","null","null","null","null","null","null","null","null","","180","200","260","200","36000","52000","[1,3]","509.0345852903744","470.70264353482935","463.7606139939191"
"","canvas-keyboard-response","158","279618","0.0-6.0-5.21","501","","","","","make choice","2319","3","","","catch","sh","sw","l","209","178","143","170","240","195","trueblood","null","null","null","null","null","null","null","null","null","null","null","","180","200","260","200","36000","52000","[1,3]","","",""
"","canvas-keyboard-response","159","279637","0.0-6.0-6.21","501","","","","","clear_screen","null","null","","","catch","sh","sw","l","209","178","143","170","240","195","trueblood","null","null","null","null","null","null","null","null","null","null","null","","180","200","260","200","36000","52000","[1,3]","","",""
"","canvas-keyboard-response","160","279840","0.0-6.0-0.22","501","","","","","pre trial waiting period","null","null","","","catch","l","sw","sh","176","299","178","171","223","173","trueblood","null","null","null","null","null","null","null","null","null","null","null","","180","200","260","200","36000","52000","[1,2]","411.7021097512947","477.39766314603906","473.9364010933815"
"","canvas-keyboard-response","161","279858","0.0-6.0-1.22","501","","","","","clear_screen","null","null","","","catch","l","sw","sh","176","299","178","171","223","173","trueblood","null","null","null","null","null","null","null","null","null","null","null","","180","200","260","200","36000","52000","[1,2]","411.7021097512947","477.39766314603906","473.9364010933815"
"","canvas-keyboard-response","162","280370","0.0-6.0-2.22","501","","","","","rectangles no change","null","null","","","catch","l","sw","sh","176","299","178","171","223","173","trueblood","null","null","null","null","null","null","null","null","null","null","null","","180","200","260","200","36000","52000","[1,2]","411.7021097512947","477.39766314603906","473.9364010933815"
"","canvas-keyboard-response","163","281705","0.0-6.0-3.22","501","","","","","rectangles with change","null","null","","","catch","l","sw","sh","176","299","178","171","223","173","trueblood","null","null","null","null","null","null","null","null","null","null","null","","180","200","260","200","36000","52000","[1,2]","411.7021097512947","477.39766314603906","473.9364010933815"
"","canvas-keyboard-response","164","281724","0.0-6.0-4.22","501","","","","","clear_screen","null","null","","","catch","l","sw","sh","176","299","178","171","223","173","trueblood","null","null","null","null","null","null","null","null","null","null","null","","180","200","260","200","36000","52000","[1,2]","411.7021097512947","477.39766314603906","473.9364010933815"
"","canvas-keyboard-response","165","283115","0.0-6.0-5.22","501","","","","","make choice","1382","1","","","catch","l","sw","sh","176","299","178","171","223","173","trueblood","null","null","null","null","null","null","null","null","null","null","null","","180","200","260","200","36000","52000","[1,2]","","",""
"","canvas-keyboard-response","166","283133","0.0-6.0-6.22","501","","","","","clear_screen","null","null","","","catch","l","sw","sh","176","299","178","171","223","173","trueblood","null","null","null","null","null","null","null","null","null","null","null","","180","200","260","200","36000","52000","[1,2]","","",""
"","canvas-keyboard-response","167","283334","0.0-6.0-0.23","501","","","","","pre trial waiting period","null","null","","","critical","c","d","t","240","164","158.0083","227.1683","164","240","spektor","0.09","h","164","240","240","164","158.0083","227.1683","39360","39360","35894.4834","dc","null","null","null","null","null","null","[2,1]","539.4451062451114","111.35720059280234","478.3363092824345"
"","canvas-keyboard-response","168","283354","0.0-6.0-1.23","501","","","","","clear_screen","null","null","","","critical","c","d","t","240","164","158.0083","227.1683","164","240","spektor","0.09","h","164","240","240","164","158.0083","227.1683","39360","39360","35894.4834","dc","null","null","null","null","null","null","[2,1]","539.4451062451114","111.35720059280234","478.3363092824345"
"","canvas-keyboard-response","169","283877","0.0-6.0-2.23","501","","","","","rectangles no change","null","null","","","critical","c","d","t","240","164","158.0083","227.1683","164","240","spektor","0.09","h","164","240","240","164","158.0083","227.1683","39360","39360","35894.4834","dc","null","null","null","null","null","null","[2,1]","539.4451062451114","111.35720059280234","478.3363092824345"
"","canvas-keyboard-response","170","285212","0.0-6.0-3.23","501","","","","","rectangles with change","null","null","","","critical","c","d","t","240","164","158.0083","227.1683","164","240","spektor","0.09","h","164","240","240","164","158.0083","227.1683","39360","39360","35894.4834","dc","null","null","null","null","null","null","[2,1]","539.4451062451114","111.35720059280234","478.3363092824345"
"","canvas-keyboard-response","171","285231","0.0-6.0-4.23","501","","","","","clear_screen","null","null","","","critical","c","d","t","240","164","158.0083","227.1683","164","240","spektor","0.09","h","164","240","240","164","158.0083","227.1683","39360","39360","35894.4834","dc","null","null","null","null","null","null","[2,1]","539.4451062451114","111.35720059280234","478.3363092824345"
"","canvas-keyboard-response","172","286234","0.0-6.0-5.23","501","","","","","make choice","996","2","","","critical","c","d","t","240","164","158.0083","227.1683","164","240","spektor","0.09","h","164","240","240","164","158.0083","227.1683","39360","39360","35894.4834","dc","null","null","null","null","null","null","[2,1]","","",""
"","canvas-keyboard-response","173","286252","0.0-6.0-6.23","501","","","","","clear_screen","null","null","","","critical","c","d","t","240","164","158.0083","227.1683","164","240","spektor","0.09","h","164","240","240","164","158.0083","227.1683","39360","39360","35894.4834","dc","null","null","null","null","null","null","[2,1]","","",""
"","canvas-keyboard-response","174","286453","0.0-6.0-0.24","501","","","","","pre trial waiting period","null","null","","","critical","d","t","c","237.1485","162.6685","240","164","164","240","spektor","0.02","w","240","164","164","240","237.1485","162.6685","39360","39360","38576.5967","dc","null","null","null","null","null","null","[1,3]","515.9909018384297","211.42791653236773","485.5462235018847"
"","canvas-keyboard-response","175","286471","0.0-6.0-1.24","501","","","","","clear_screen","null","null","","","critical","d","t","c","237.1485","162.6685","240","164","164","240","spektor","0.02","w","240","164","164","240","237.1485","162.6685","39360","39360","38576.5967","dc","null","null","null","null","null","null","[1,3]","515.9909018384297","211.42791653236773","485.5462235018847"
"","canvas-keyboard-response","176","286985","0.0-6.0-2.24","501","","","","","rectangles no change","null","null","","","critical","d","t","c","237.1485","162.6685","240","164","164","240","spektor","0.02","w","240","164","164","240","237.1485","162.6685","39360","39360","38576.5967","dc","null","null","null","null","null","null","[1,3]","515.9909018384297","211.42791653236773","485.5462235018847"
"","canvas-keyboard-response","177","288321","0.0-6.0-3.24","501","","","","","rectangles with change","null","null","","","critical","d","t","c","237.1485","162.6685","240","164","164","240","spektor","0.02","w","240","164","164","240","237.1485","162.6685","39360","39360","38576.5967","dc","null","null","null","null","null","null","[1,3]","515.9909018384297","211.42791653236773","485.5462235018847"
"","canvas-keyboard-response","178","288340","0.0-6.0-4.24","501","","","","","clear_screen","null","null","","","critical","d","t","c","237.1485","162.6685","240","164","164","240","spektor","0.02","w","240","164","164","240","237.1485","162.6685","39360","39360","38576.5967","dc","null","null","null","null","null","null","[1,3]","515.9909018384297","211.42791653236773","485.5462235018847"
"","canvas-keyboard-response","179","289506","0.0-6.0-5.24","501","","","","","make choice","1158","3","","","critical","d","t","c","237.1485","162.6685","240","164","164","240","spektor","0.02","w","240","164","164","240","237.1485","162.6685","39360","39360","38576.5967","dc","null","null","null","null","null","null","[1,3]","","",""
"","canvas-keyboard-response","180","289524","0.0-6.0-6.24","501","","","","","clear_screen","null","null","","","critical","d","t","c","237.1485","162.6685","240","164","164","240","spektor","0.02","w","240","164","164","240","237.1485","162.6685","39360","39360","38576.5967","dc","null","null","null","null","null","null","[1,3]","","",""
"","canvas-keyboard-response","181","289726","0.0-6.0-0.25","501","","","","","pre trial waiting period","null","null","","","critical","t","c","d","164","240","240","164","160.6713","232.8713","trueblood","0.05","h","164","240","240","164","160.6713","232.8713","39360","39360","37415.7294","dc","null","null","null","null","null","null","[3,2]","435.9854885208291","469.98504063974843","435.74942794229116"
"","canvas-keyboard-response","182","289745","0.0-6.0-1.25","501","","","","","clear_screen","null","null","","","critical","t","c","d","164","240","240","164","160.6713","232.8713","trueblood","0.05","h","164","240","240","164","160.6713","232.8713","39360","39360","37415.7294","dc","null","null","null","null","null","null","[3,2]","435.9854885208291","469.98504063974843","435.74942794229116"
"","canvas-keyboard-response","183","290256","0.0-6.0-2.25","501","","","","","rectangles no change","null","null","","","critical","t","c","d","164","240","240","164","160.6713","232.8713","trueblood","0.05","h","164","240","240","164","160.6713","232.8713","39360","39360","37415.7294","dc","null","null","null","null","null","null","[3,2]","435.9854885208291","469.98504063974843","435.74942794229116"
"","canvas-keyboard-response","184","291590","0.0-6.0-3.25","501","","","","","rectangles with change","null","null","","","critical","t","c","d","164","240","240","164","160.6713","232.8713","trueblood","0.05","h","164","240","240","164","160.6713","232.8713","39360","39360","37415.7294","dc","null","null","null","null","null","null","[3,2]","435.9854885208291","469.98504063974843","435.74942794229116"
"","canvas-keyboard-response","185","291609","0.0-6.0-4.25","501","","","","","clear_screen","null","null","","","critical","t","c","d","164","240","240","164","160.6713","232.8713","trueblood","0.05","h","164","240","240","164","160.6713","232.8713","39360","39360","37415.7294","dc","null","null","null","null","null","null","[3,2]","435.9854885208291","469.98504063974843","435.74942794229116"
"","canvas-keyboard-response","186","292531","0.0-6.0-5.25","501","","","","","make choice","913","2","","","critical","t","c","d","164","240","240","164","160.6713","232.8713","trueblood","0.05","h","164","240","240","164","160.6713","232.8713","39360","39360","37415.7294","dc","null","null","null","null","null","null","[3,2]","","",""
"","canvas-keyboard-response","187","292549","0.0-6.0-6.25","501","","","","","clear_screen","null","null","","","critical","t","c","d","164","240","240","164","160.6713","232.8713","trueblood","0.05","h","164","240","240","164","160.6713","232.8713","39360","39360","37415.7294","dc","null","null","null","null","null","null","[3,2]","","",""
"","canvas-keyboard-response","188","292750","0.0-6.0-0.26","501","","","","","pre trial waiting period","null","null","","","critical","c","t","d","164","240","240","164","232.8713","160.6713","trueblood","0.05","w","240","164","164","240","232.8713","160.6713","39360","39360","37415.7294","td","null","null","null","null","null","null","[2,3]","449.16229585425106","514.9681971599329","516.0284900056663"
"","canvas-keyboard-response","189","292769","0.0-6.0-1.26","501","","","","","clear_screen","null","null","","","critical","c","t","d","164","240","240","164","232.8713","160.6713","trueblood","0.05","w","240","164","164","240","232.8713","160.6713","39360","39360","37415.7294","td","null","null","null","null","null","null","[2,3]","449.16229585425106","514.9681971599329","516.0284900056663"
"","canvas-keyboard-response","190","293279","0.0-6.0-2.26","501","","","","","rectangles no change","null","null","","","critical","c","t","d","164","240","240","164","232.8713","160.6713","trueblood","0.05","w","240","164","164","240","232.8713","160.6713","39360","39360","37415.7294","td","null","null","null","null","null","null","[2,3]","449.16229585425106","514.9681971599329","516.0284900056663"
"","canvas-keyboard-response","191","294615","0.0-6.0-3.26","501","","","","","rectangles with change","null","null","","","critical","c","t","d","164","240","240","164","232.8713","160.6713","trueblood","0.05","w","240","164","164","240","232.8713","160.6713","39360","39360","37415.7294","td","null","null","null","null","null","null","[2,3]","449.16229585425106","514.9681971599329","516.0284900056663"
"","canvas-keyboard-response","192","294635","0.0-6.0-4.26","501","","","","","clear_screen","null","null","","","critical","c","t","d","164","240","240","164","232.8713","160.6713","trueblood","0.05","w","240","164","164","240","232.8713","160.6713","39360","39360","37415.7294","td","null","null","null","null","null","null","[2,3]","449.16229585425106","514.9681971599329","516.0284900056663"
"","canvas-keyboard-response","193","295667","0.0-6.0-5.26","501","","","","","make choice","1019","2","","","critical","c","t","d","164","240","240","164","232.8713","160.6713","trueblood","0.05","w","240","164","164","240","232.8713","160.6713","39360","39360","37415.7294","td","null","null","null","null","null","null","[2,3]","","",""
"","canvas-keyboard-response","194","295687","0.0-6.0-6.26","501","","","","","clear_screen","null","null","","","critical","c","t","d","164","240","240","164","232.8713","160.6713","trueblood","0.05","w","240","164","164","240","232.8713","160.6713","39360","39360","37415.7294","td","null","null","null","null","null","null","[2,3]","","",""
"","canvas-keyboard-response","195","295891","0.0-6.0-0.27","501","","","","","pre trial waiting period","null","null","","","critical","t","d","c","164","240","162.6685","237.1485","240","164","spektor","0.02","h","164","240","240","164","162.6685","237.1485","39360","39360","38576.5967","tc","null","null","null","null","null","null","[1,3]","492.16270367543547","111.53280928075648","508.56984438031947"
"","canvas-keyboard-response","196","295912","0.0-6.0-1.27","501","","","","","clear_screen","null","null","","","critical","t","d","c","164","240","162.6685","237.1485","240","164","spektor","0.02","h","164","240","240","164","162.6685","237.1485","39360","39360","38576.5967","tc","null","null","null","null","null","null","[1,3]","492.16270367543547","111.53280928075648","508.56984438031947"
"","canvas-keyboard-response","197","296423","0.0-6.0-2.27","501","","","","","rectangles no change","null","null","","","critical","t","d","c","164","240","162.6685","237.1485","240","164","spektor","0.02","h","164","240","240","164","162.6685","237.1485","39360","39360","38576.5967","tc","null","null","null","null","null","null","[1,3]","492.16270367543547","111.53280928075648","508.56984438031947"
"","canvas-keyboard-response","198","297759","0.0-6.0-3.27","501","","","","","rectangles with change","null","null","","","critical","t","d","c","164","240","162.6685","237.1485","240","164","spektor","0.02","h","164","240","240","164","162.6685","237.1485","39360","39360","38576.5967","tc","null","null","null","null","null","null","[1,3]","492.16270367543547","111.53280928075648","508.56984438031947"
"","canvas-keyboard-response","199","297778","0.0-6.0-4.27","501","","","","","clear_screen","null","null","","","critical","t","d","c","164","240","162.6685","237.1485","240","164","spektor","0.02","h","164","240","240","164","162.6685","237.1485","39360","39360","38576.5967","tc","null","null","null","null","null","null","[1,3]","492.16270367543547","111.53280928075648","508.56984438031947"
"","canvas-keyboard-response","200","298683","0.0-6.0-5.27","501","","","","","make choice","897","3","","","critical","t","d","c","164","240","162.6685","237.1485","240","164","spektor","0.02","h","164","240","240","164","162.6685","237.1485","39360","39360","38576.5967","tc","null","null","null","null","null","null","[1,3]","","",""
"","canvas-keyboard-response","201","298704","0.0-6.0-6.27","501","","","","","clear_screen","null","null","","","critical","t","d","c","164","240","162.6685","237.1485","240","164","spektor","0.02","h","164","240","240","164","162.6685","237.1485","39360","39360","38576.5967","tc","null","null","null","null","null","null","[1,3]","","",""
"","canvas-keyboard-response","202","298905","0.0-6.0-0.28","501","","","","","pre trial waiting period","null","null","","","critical","c","d","t","240","164","160.6713","232.8713","164","240","trueblood","0.05","h","164","240","240","164","160.6713","232.8713","39360","39360","37415.7294","td","null","null","null","null","null","null","[3,2]","475.39412880509417","447.7103836383108","463.3353631422915"
"","canvas-keyboard-response","203","298926","0.0-6.0-1.28","501","","","","","clear_screen","null","null","","","critical","c","d","t","240","164","160.6713","232.8713","164","240","trueblood","0.05","h","164","240","240","164","160.6713","232.8713","39360","39360","37415.7294","td","null","null","null","null","null","null","[3,2]","475.39412880509417","447.7103836383108","463.3353631422915"
"","canvas-keyboard-response","204","299438","0.0-6.0-2.28","501","","","","","rectangles no change","null","null","","","critical","c","d","t","240","164","160.6713","232.8713","164","240","trueblood","0.05","h","164","240","240","164","160.6713","232.8713","39360","39360","37415.7294","td","null","null","null","null","null","null","[3,2]","475.39412880509417","447.7103836383108","463.3353631422915"
"","canvas-keyboard-response","205","300775","0.0-6.0-3.28","501","","","","","rectangles with change","null","null","","","critical","c","d","t","240","164","160.6713","232.8713","164","240","trueblood","0.05","h","164","240","240","164","160.6713","232.8713","39360","39360","37415.7294","td","null","null","null","null","null","null","[3,2]","475.39412880509417","447.7103836383108","463.3353631422915"
"","canvas-keyboard-response","206","300794","0.0-6.0-4.28","501","","","","","clear_screen","null","null","","","critical","c","d","t","240","164","160.6713","232.8713","164","240","trueblood","0.05","h","164","240","240","164","160.6713","232.8713","39360","39360","37415.7294","td","null","null","null","null","null","null","[3,2]","475.39412880509417","447.7103836383108","463.3353631422915"
"","canvas-keyboard-response","207","302115","0.0-6.0-5.28","501","","","","","make choice","1313","2","","","critical","c","d","t","240","164","160.6713","232.8713","164","240","trueblood","0.05","h","164","240","240","164","160.6713","232.8713","39360","39360","37415.7294","td","null","null","null","null","null","null","[3,2]","","",""
"","canvas-keyboard-response","208","302133","0.0-6.0-6.28","501","","","","","clear_screen","null","null","","","critical","c","d","t","240","164","160.6713","232.8713","164","240","trueblood","0.05","h","164","240","240","164","160.6713","232.8713","39360","39360","37415.7294","td","null","null","null","null","null","null","[3,2]","","",""
"","canvas-keyboard-response","209","302333","0.0-6.0-0.29","501","","","","","pre trial waiting period","null","null","","","catch","l","sh","sw","198","276","219","177","143","170","trueblood","null","null","null","null","null","null","null","null","null","null","null","","180","200","260","200","36000","52000","[1,2]","406.6954756382679","487.34538583233666","483.7179802172061"
"","canvas-keyboard-response","210","302354","0.0-6.0-1.29","501","","","","","clear_screen","null","null","","","catch","l","sh","sw","198","276","219","177","143","170","trueblood","null","null","null","null","null","null","null","null","null","null","null","","180","200","260","200","36000","52000","[1,2]","406.6954756382679","487.34538583233666","483.7179802172061"
"","canvas-keyboard-response","211","302866","0.0-6.0-2.29","501","","","","","rectangles no change","null","null","","","catch","l","sh","sw","198","276","219","177","143","170","trueblood","null","null","null","null","null","null","null","null","null","null","null","","180","200","260","200","36000","52000","[1,2]","406.6954756382679","487.34538583233666","483.7179802172061"
"","canvas-keyboard-response","212","304201","0.0-6.0-3.29","501","","","","","rectangles with change","null","null","","","catch","l","sh","sw","198","276","219","177","143","170","trueblood","null","null","null","null","null","null","null","null","null","null","null","","180","200","260","200","36000","52000","[1,2]","406.6954756382679","487.34538583233666","483.7179802172061"
"","canvas-keyboard-response","213","304220","0.0-6.0-4.29","501","","","","","clear_screen","null","null","","","catch","l","sh","sw","198","276","219","177","143","170","trueblood","null","null","null","null","null","null","null","null","null","null","null","","180","200","260","200","36000","52000","[1,2]","406.6954756382679","487.34538583233666","483.7179802172061"
"","canvas-keyboard-response","214","305003","0.0-6.0-5.29","501","","","","","make choice","773","1","","","catch","l","sh","sw","198","276","219","177","143","170","trueblood","null","null","null","null","null","null","null","null","null","null","null","","180","200","260","200","36000","52000","[1,2]","","",""
"","canvas-keyboard-response","215","305022","0.0-6.0-6.29","501","","","","","clear_screen","null","null","","","catch","l","sh","sw","198","276","219","177","143","170","trueblood","null","null","null","null","null","null","null","null","null","null","null","","180","200","260","200","36000","52000","[1,2]","","",""
"","canvas-keyboard-response","216","305223","0.0-6.0-0.30","501","","","","","pre trial waiting period","null","null","","","catch","sw","sh","l","180","200","229","192","199","247","trueblood","null","null","null","null","null","null","null","null","null","null","null","","180","200","260","200","36000","52000","[1,3]","471.324081152352","474.1183824134867","429.11154006700644"
"","canvas-keyboard-response","217","305243","0.0-6.0-1.30","501","","","","","clear_screen","null","null","","","catch","sw","sh","l","180","200","229","192","199","247","trueblood","null","null","null","null","null","null","null","null","null","null","null","","180","200","260","200","36000","52000","[1,3]","471.324081152352","474.1183824134867","429.11154006700644"
"","canvas-keyboard-response","218","305755","0.0-6.0-2.30","501","","","","","rectangles no change","null","null","","","catch","sw","sh","l","180","200","229","192","199","247","trueblood","null","null","null","null","null","null","null","null","null","null","null","","180","200","260","200","36000","52000","[1,3]","471.324081152352","474.1183824134867","429.11154006700644"
"","canvas-keyboard-response","219","307091","0.0-6.0-3.30","501","","","","","rectangles with change","null","null","","","catch","sw","sh","l","180","200","229","192","199","247","trueblood","null","null","null","null","null","null","null","null","null","null","null","","180","200","260","200","36000","52000","[1,3]","471.324081152352","474.1183824134867","429.11154006700644"
"","canvas-keyboard-response","220","307110","0.0-6.0-4.30","501","","","","","clear_screen","null","null","","","catch","sw","sh","l","180","200","229","192","199","247","trueblood","null","null","null","null","null","null","null","null","null","null","null","","180","200","260","200","36000","52000","[1,3]","471.324081152352","474.1183824134867","429.11154006700644"
"","canvas-keyboard-response","221","307866","0.0-6.0-5.30","501","","","","","make choice","748","3","","","catch","sw","sh","l","180","200","229","192","199","247","trueblood","null","null","null","null","null","null","null","null","null","null","null","","180","200","260","200","36000","52000","[1,3]","","",""
"","canvas-keyboard-response","222","307885","0.0-6.0-6.30","501","","","","","clear_screen","null","null","","","catch","sw","sh","l","180","200","229","192","199","247","trueblood","null","null","null","null","null","null","null","null","null","null","null","","180","200","260","200","36000","52000","[1,3]","","",""
"","canvas-keyboard-response","223","308086","0.0-6.0-0.31","501","","","","","pre trial waiting period","null","null","","","critical","t","c","d","240","164","164","240","220.0396","154.6796","spektor","0.14","w","240","164","164","240","220.0396","154.6796","39360","39360","34035.6388","td","null","null","null","null","null","null","[1,3]","525.0232885437081","158.56230140400802","534.128862941748"
"","canvas-keyboard-response","224","308105","0.0-6.0-1.31","501","","","","","clear_screen","null","null","","","critical","t","c","d","240","164","164","240","220.0396","154.6796","spektor","0.14","w","240","164","164","240","220.0396","154.6796","39360","39360","34035.6388","td","null","null","null","null","null","null","[1,3]","525.0232885437081","158.56230140400802","534.128862941748"
"","canvas-keyboard-response","225","308619","0.0-6.0-2.31","501","","","","","rectangles no change","null","null","","","critical","t","c","d","240","164","164","240","220.0396","154.6796","spektor","0.14","w","240","164","164","240","220.0396","154.6796","39360","39360","34035.6388","td","null","null","null","null","null","null","[1,3]","525.0232885437081","158.56230140400802","534.128862941748"
"","canvas-keyboard-response","226","309954","0.0-6.0-3.31","501","","","","","rectangles with change","null","null","","","critical","t","c","d","240","164","164","240","220.0396","154.6796","spektor","0.14","w","240","164","164","240","220.0396","154.6796","39360","39360","34035.6388","td","null","null","null","null","null","null","[1,3]","525.0232885437081","158.56230140400802","534.128862941748"
"","canvas-keyboard-response","227","309973","0.0-6.0-4.31","501","","","","","clear_screen","null","null","","","critical","t","c","d","240","164","164","240","220.0396","154.6796","spektor","0.14","w","240","164","164","240","220.0396","154.6796","39360","39360","34035.6388","td","null","null","null","null","null","null","[1,3]","525.0232885437081","158.56230140400802","534.128862941748"
"","canvas-keyboard-response","228","311234","0.0-6.0-5.31","501","","","","","make choice","1252","1","","","critical","t","c","d","240","164","164","240","220.0396","154.6796","spektor","0.14","w","240","164","164","240","220.0396","154.6796","39360","39360","34035.6388","td","null","null","null","null","null","null","[1,3]","","",""
"","canvas-keyboard-response","229","311253","0.0-6.0-6.31","501","","","","","clear_screen","null","null","","","critical","t","c","d","240","164","164","240","220.0396","154.6796","spektor","0.14","w","240","164","164","240","220.0396","154.6796","39360","39360","34035.6388","td","null","null","null","null","null","null","[1,3]","","",""
"","canvas-keyboard-response","230","311454","0.0-6.0-0.32","501","","","","","pre trial waiting period","null","null","","","critical","d","t","c","240","164","240","164","164","240","trueblood","0","w","240","164","164","240","240","164","39360","39360","39360","tc","null","null","null","null","null","null","[2,3]","489.2323161630269","504.9558457772467","451.27497254752245"
"","canvas-keyboard-response","231","311476","0.0-6.0-1.32","501","","","","","clear_screen","null","null","","","critical","d","t","c","240","164","240","164","164","240","trueblood","0","w","240","164","164","240","240","164","39360","39360","39360","tc","null","null","null","null","null","null","[2,3]","489.2323161630269","504.9558457772467","451.27497254752245"
"","canvas-keyboard-response","232","311990","0.0-6.0-2.32","501","","","","","rectangles no change","null","null","","","critical","d","t","c","240","164","240","164","164","240","trueblood","0","w","240","164","164","240","240","164","39360","39360","39360","tc","null","null","null","null","null","null","[2,3]","489.2323161630269","504.9558457772467","451.27497254752245"
"","canvas-keyboard-response","233","313324","0.0-6.0-3.32","501","","","","","rectangles with change","null","null","","","critical","d","t","c","240","164","240","164","164","240","trueblood","0","w","240","164","164","240","240","164","39360","39360","39360","tc","null","null","null","null","null","null","[2,3]","489.2323161630269","504.9558457772467","451.27497254752245"
"","canvas-keyboard-response","234","313343","0.0-6.0-4.32","501","","","","","clear_screen","null","null","","","critical","d","t","c","240","164","240","164","164","240","trueblood","0","w","240","164","164","240","240","164","39360","39360","39360","tc","null","null","null","null","null","null","[2,3]","489.2323161630269","504.9558457772467","451.27497254752245"
"","canvas-keyboard-response","235","313835","0.0-6.0-5.32","501","","","","","make choice","484","2","","","critical","d","t","c","240","164","240","164","164","240","trueblood","0","w","240","164","164","240","240","164","39360","39360","39360","tc","null","null","null","null","null","null","[2,3]","","",""
"","canvas-keyboard-response","236","313852","0.0-6.0-6.32","501","","","","","clear_screen","null","null","","","critical","d","t","c","240","164","240","164","164","240","trueblood","0","w","240","164","164","240","240","164","39360","39360","39360","tc","null","null","null","null","null","null","[2,3]","","",""
"","canvas-keyboard-response","237","314054","0.0-6.0-0.33","501","","","","","pre trial waiting period","null","null","","","catch","sh","sw","l","236","183","147","222","295","232","spektor","null","null","null","null","null","null","null","null","null","null","null","","180","200","260","200","36000","52000","[2,3]","532.3548930139827","140.80721723060367","501.50674092898254"
"","canvas-keyboard-response","238","314075","0.0-6.0-1.33","501","","","","","clear_screen","null","null","","","catch","sh","sw","l","236","183","147","222","295","232","spektor","null","null","null","null","null","null","null","null","null","null","null","","180","200","260","200","36000","52000","[2,3]","532.3548930139827","140.80721723060367","501.50674092898254"
"","canvas-keyboard-response","239","314586","0.0-6.0-2.33","501","","","","","rectangles no change","null","null","","","catch","sh","sw","l","236","183","147","222","295","232","spektor","null","null","null","null","null","null","null","null","null","null","null","","180","200","260","200","36000","52000","[2,3]","532.3548930139827","140.80721723060367","501.50674092898254"
"","canvas-keyboard-response","240","315922","0.0-6.0-3.33","501","","","","","rectangles with change","null","null","","","catch","sh","sw","l","236","183","147","222","295","232","spektor","null","null","null","null","null","null","null","null","null","null","null","","180","200","260","200","36000","52000","[2,3]","532.3548930139827","140.80721723060367","501.50674092898254"
"","canvas-keyboard-response","241","315941","0.0-6.0-4.33","501","","","","","clear_screen","null","null","","","catch","sh","sw","l","236","183","147","222","295","232","spektor","null","null","null","null","null","null","null","null","null","null","null","","180","200","260","200","36000","52000","[2,3]","532.3548930139827","140.80721723060367","501.50674092898254"
"","canvas-keyboard-response","242","317058","0.0-6.0-5.33","501","","","","","make choice","1108","3","","","catch","sh","sw","l","236","183","147","222","295","232","spektor","null","null","null","null","null","null","null","null","null","null","null","","180","200","260","200","36000","52000","[2,3]","","",""
"","canvas-keyboard-response","243","317077","0.0-6.0-6.33","501","","","","","clear_screen","null","null","","","catch","sh","sw","l","236","183","147","222","295","232","spektor","null","null","null","null","null","null","null","null","null","null","null","","180","200","260","200","36000","52000","[2,3]","","",""
"","canvas-keyboard-response","244","317278","0.0-6.0-0.34","501","","","","","pre trial waiting period","null","null","","","critical","d","t","c","220.0396","154.6796","240","164","164","240","spektor","0.14","w","240","164","164","240","220.0396","154.6796","39360","39360","34035.6388","dc","null","null","null","null","null","null","[1,3]","521.644463343085","173.49359193289573","500.3912537837697"
"","canvas-keyboard-response","245","317297","0.0-6.0-1.34","501","","","","","clear_screen","null","null","","","critical","d","t","c","220.0396","154.6796","240","164","164","240","spektor","0.14","w","240","164","164","240","220.0396","154.6796","39360","39360","34035.6388","dc","null","null","null","null","null","null","[1,3]","521.644463343085","173.49359193289573","500.3912537837697"
"","canvas-keyboard-response","246","317808","0.0-6.0-2.34","501","","","","","rectangles no change","null","null","","","critical","d","t","c","220.0396","154.6796","240","164","164","240","spektor","0.14","w","240","164","164","240","220.0396","154.6796","39360","39360","34035.6388","dc","null","null","null","null","null","null","[1,3]","521.644463343085","173.49359193289573","500.3912537837697"
"","canvas-keyboard-response","247","319144","0.0-6.0-3.34","501","","","","","rectangles with change","null","null","","","critical","d","t","c","220.0396","154.6796","240","164","164","240","spektor","0.14","w","240","164","164","240","220.0396","154.6796","39360","39360","34035.6388","dc","null","null","null","null","null","null","[1,3]","521.644463343085","173.49359193289573","500.3912537837697"
"","canvas-keyboard-response","248","319162","0.0-6.0-4.34","501","","","","","clear_screen","null","null","","","critical","d","t","c","220.0396","154.6796","240","164","164","240","spektor","0.14","w","240","164","164","240","220.0396","154.6796","39360","39360","34035.6388","dc","null","null","null","null","null","null","[1,3]","521.644463343085","173.49359193289573","500.3912537837697"
"","canvas-keyboard-response","249","321843","0.0-6.0-5.34","501","","","","","make choice","2674","3","","","critical","d","t","c","220.0396","154.6796","240","164","164","240","spektor","0.14","w","240","164","164","240","220.0396","154.6796","39360","39360","34035.6388","dc","null","null","null","null","null","null","[1,3]","","",""
"","canvas-keyboard-response","250","321861","0.0-6.0-6.34","501","","","","","clear_screen","null","null","","","critical","d","t","c","220.0396","154.6796","240","164","164","240","spektor","0.14","w","240","164","164","240","220.0396","154.6796","39360","39360","34035.6388","dc","null","null","null","null","null","null","[1,3]","","",""
"","canvas-keyboard-response","251","322061","0.0-6.0-0.35","501","","","","","pre trial waiting period","null","null","","","catch","sh","l","sw","168","204","230","177","200","165","spektor","null","null","null","null","null","null","null","null","null","null","null","","180","200","260","200","36000","52000","[1,2]","498.14814041181853","204.42533351946358","535.3964453378649"
"","canvas-keyboard-response","252","322081","0.0-6.0-1.35","501","","","","","clear_screen","null","null","","","catch","sh","l","sw","168","204","230","177","200","165","spektor","null","null","null","null","null","null","null","null","null","null","null","","180","200","260","200","36000","52000","[1,2]","498.14814041181853","204.42533351946358","535.3964453378649"
"","canvas-keyboard-response","253","322593","0.0-6.0-2.35","501","","","","","rectangles no change","null","null","","","catch","sh","l","sw","168","204","230","177","200","165","spektor","null","null","null","null","null","null","null","null","null","null","null","","180","200","260","200","36000","52000","[1,2]","498.14814041181853","204.42533351946358","535.3964453378649"
"","canvas-keyboard-response","254","323928","0.0-6.0-3.35","501","","","","","rectangles with change","null","null","","","catch","sh","l","sw","168","204","230","177","200","165","spektor","null","null","null","null","null","null","null","null","null","null","null","","180","200","260","200","36000","52000","[1,2]","498.14814041181853","204.42533351946358","535.3964453378649"
"","canvas-keyboard-response","255","323950","0.0-6.0-4.35","501","","","","","clear_screen","null","null","","","catch","sh","l","sw","168","204","230","177","200","165","spektor","null","null","null","null","null","null","null","null","null","null","null","","180","200","260","200","36000","52000","[1,2]","498.14814041181853","204.42533351946358","535.3964453378649"
"","canvas-keyboard-response","256","324946","0.0-6.0-5.35","501","","","","","make choice","988","2","","","catch","sh","l","sw","168","204","230","177","200","165","spektor","null","null","null","null","null","null","null","null","null","null","null","","180","200","260","200","36000","52000","[1,2]","","",""
"","canvas-keyboard-response","257","324965","0.0-6.0-6.35","501","","","","","clear_screen","null","null","","","catch","sh","l","sw","168","204","230","177","200","165","spektor","null","null","null","null","null","null","null","null","null","null","null","","180","200","260","200","36000","52000","[1,2]","","",""
"","canvas-keyboard-response","258","325166","0.0-6.0-0.36","501","","","","","pre trial waiting period","null","null","","","critical","t","c","d","240","164","164","240","232.8713","160.6713","spektor","0.05","w","240","164","164","240","232.8713","160.6713","39360","39360","37415.7294","dc","null","null","null","null","null","null","[3,2]","531.6770751905696","148.6725622354237","508.4822063630142"
"","canvas-keyboard-response","259","325186","0.0-6.0-1.36","501","","","","","clear_screen","null","null","","","critical","t","c","d","240","164","164","240","232.8713","160.6713","spektor","0.05","w","240","164","164","240","232.8713","160.6713","39360","39360","37415.7294","dc","null","null","null","null","null","null","[3,2]","531.6770751905696","148.6725622354237","508.4822063630142"
"","canvas-keyboard-response","260","325697","0.0-6.0-2.36","501","","","","","rectangles no change","null","null","","","critical","t","c","d","240","164","164","240","232.8713","160.6713","spektor","0.05","w","240","164","164","240","232.8713","160.6713","39360","39360","37415.7294","dc","null","null","null","null","null","null","[3,2]","531.6770751905696","148.6725622354237","508.4822063630142"
"","canvas-keyboard-response","261","327033","0.0-6.0-3.36","501","","","","","rectangles with change","null","null","","","critical","t","c","d","240","164","164","240","232.8713","160.6713","spektor","0.05","w","240","164","164","240","232.8713","160.6713","39360","39360","37415.7294","dc","null","null","null","null","null","null","[3,2]","531.6770751905696","148.6725622354237","508.4822063630142"
"","canvas-keyboard-response","262","327051","0.0-6.0-4.36","501","","","","","clear_screen","null","null","","","critical","t","c","d","240","164","164","240","232.8713","160.6713","spektor","0.05","w","240","164","164","240","232.8713","160.6713","39360","39360","37415.7294","dc","null","null","null","null","null","null","[3,2]","531.6770751905696","148.6725622354237","508.4822063630142"
"","canvas-keyboard-response","263","328554","0.0-6.0-5.36","501","","","","","make choice","1494","2","","","critical","t","c","d","240","164","164","240","232.8713","160.6713","spektor","0.05","w","240","164","164","240","232.8713","160.6713","39360","39360","37415.7294","dc","null","null","null","null","null","null","[3,2]","","",""
"","canvas-keyboard-response","264","328572","0.0-6.0-6.36","501","","","","","clear_screen","null","null","","","critical","t","c","d","240","164","164","240","232.8713","160.6713","spektor","0.05","w","240","164","164","240","232.8713","160.6713","39360","39360","37415.7294","dc","null","null","null","null","null","null","[3,2]","","",""
"","canvas-keyboard-response","265","328774","0.0-6.0-0.37","501","","","","","pre trial waiting period","null","null","","","critical","c","t","d","240","164","164","240","158.0083","227.1683","trueblood","0.09","h","164","240","240","164","158.0083","227.1683","39360","39360","35894.4834","dc","null","null","null","null","null","null","[3,1]","483.18539810416553","446.33205719906636","468.80481480790155"
"","canvas-keyboard-response","266","328794","0.0-6.0-1.37","501","","","","","clear_screen","null","null","","","critical","c","t","d","240","164","164","240","158.0083","227.1683","trueblood","0.09","h","164","240","240","164","158.0083","227.1683","39360","39360","35894.4834","dc","null","null","null","null","null","null","[3,1]","483.18539810416553","446.33205719906636","468.80481480790155"
"","canvas-keyboard-response","267","329305","0.0-6.0-2.37","501","","","","","rectangles no change","null","null","","","critical","c","t","d","240","164","164","240","158.0083","227.1683","trueblood","0.09","h","164","240","240","164","158.0083","227.1683","39360","39360","35894.4834","dc","null","null","null","null","null","null","[3,1]","483.18539810416553","446.33205719906636","468.80481480790155"
