"success","trial_type","trial_index","time_elapsed","internal_node_id","sub_n","timeout","failed_images","failed_audio","failed_video","screen_id","rt","response","stimulus","view_history","trial","r1","r2","r3","w1","h1","w2","h2","w3","h3","display","tdd","tdo","tw","th","cw","ch","dw","dh","ta","ca","da","probe","csls","csss","clls","clss","sa","la","probe_rects","r1yloc","r2yloc","r3yloc"
"true","fullscreen","0","2723","0.0-0.0","508","","","","","","","","","","","","","","","","","","","","","","","","","","","","","","","","","","","","","","","","","",""
"true","preload","1","2767","0.0-1.0","508","false","[]","[]","[]","img preload","","","","","","","","","","","","","","","","","","","","","","","","","","","","","","","","","","","","",""
"","survey-html-form","2","15613","0.0-2.0","508","","","","","enter-sub-number","12821","{""response"":""508""}","","","","","","","","","","","","","","","","","","","","","","","","","","","","","","","","","","",""
"","image-button-response","3","36984","0.0-3.0","508","","","","","","21266","0","consent.png","","","","","","","","","","","","","","","","","","","","","","","","","","","","","","","","","",""
"","html-button-response","4","43424","0.0-4.0","508","","","","","intro mssg","6436","0","<div style= ""font-size:25px;"" <p> <strong> Welcome! </strong><br> <p style=""color:#8B0000; font-size:25px;""><strong> Please do NOT exit full screen until you are done with the experiment. </strong> </p><p style=""font-size:25px;color:#8B0000;""> <strong> Your data will be lost <br> if you try to go back or refresh the page after the experiment starts. Feel free to click ""previous"" during the instructions, however.</strong> </p><br><p> <strong> Thanks in advance for your contribution to our research! </strong></p>","","","","","","","","","","","","","","","","","","","","","","","","","","","","","","","","","",""
"","instructions","5","73648","0.0-5.0","508","","","","","instructions","30220","","","[{""page_index"":0,""viewing_time"":4643},{""page_index"":1,""viewing_time"":4360},{""page_index"":2,""viewing_time"":2552},{""page_index"":3,""viewing_time"":8687},{""page_index"":4,""viewing_time"":4641},{""page_index"":5,""viewing_time"":2191},{""page_index"":6,""viewing_time"":2009},{""page_index"":7,""viewing_time"":1136}]","","","","","","","","","","","","","","","","","","","","","","","","","","","","","","","","",""
"","canvas-keyboard-response","6","73853","0.0-6.0-0.0","508","","","","","pre trial waiting period","null","null","","","critical","d","t","c","154.6796","220.0396","164","240","240","164","trueblood","0.14","h","164","240","240","164","154.6796","220.0396","39360","39360","34035.6388","tc","null","null","null","null","null","null","[2,3]","457.5871171023048","453.69551302243195","475.0376964583841"
"","canvas-keyboard-response","7","73877","0.0-6.0-1.0","508","","","","","clear_screen","null","null","","","critical","d","t","c","154.6796","220.0396","164","240","240","164","trueblood","0.14","h","164","240","240","164","154.6796","220.0396","39360","39360","34035.6388","tc","null","null","null","null","null","null","[2,3]","457.5871171023048","453.69551302243195","475.0376964583841"
"","canvas-keyboard-response","8","74392","0.0-6.0-2.0","508","","","","","rectangles no change","null","null","","","critical","d","t","c","154.6796","220.0396","164","240","240","164","trueblood","0.14","h","164","240","240","164","154.6796","220.0396","39360","39360","34035.6388","tc","null","null","null","null","null","null","[2,3]","457.5871171023048","453.69551302243195","475.0376964583841"
"","canvas-keyboard-response","9","75729","0.0-6.0-3.0","508","","","","","rectangles with change","null","null","","","critical","d","t","c","154.6796","220.0396","164","240","240","164","trueblood","0.14","h","164","240","240","164","154.6796","220.0396","39360","39360","34035.6388","tc","null","null","null","null","null","null","[2,3]","457.5871171023048","453.69551302243195","475.0376964583841"
"","canvas-keyboard-response","10","75747","0.0-6.0-4.0","508","","","","","clear_screen","null","null","","","critical","d","t","c","154.6796","220.0396","164","240","240","164","trueblood","0.14","h","164","240","240","164","154.6796","220.0396","39360","39360","34035.6388","tc","null","null","null","null","null","null","[2,3]","457.5871171023048","453.69551302243195","475.0376964583841"
"","canvas-keyboard-response","11","79868","0.0-6.0-5.0","508","","","","","make choice","4110","3","","","critical","d","t","c","154.6796","220.0396","164","240","240","164","trueblood","0.14","h","164","240","240","164","154.6796","220.0396","39360","39360","34035.6388","tc","null","null","null","null","null","null","[2,3]","","",""
"","canvas-keyboard-response","12","79887","0.0-6.0-6.0","508","","","","","clear_screen","null","null","","","critical","d","t","c","154.6796","220.0396","164","240","240","164","trueblood","0.14","h","164","240","240","164","154.6796","220.0396","39360","39360","34035.6388","tc","null","null","null","null","null","null","[2,3]","","",""
"","canvas-keyboard-response","13","80089","0.0-6.0-0.1","508","","","","","pre trial waiting period","null","null","","","catch","sh","l","sw","201","166","228","221","206","181","trueblood","null","null","null","null","null","null","null","null","null","null","null","","180","200","260","200","36000","52000","[1,2]","490.9752543607324","450.70936018410515","500.80164182083996"
"","canvas-keyboard-response","14","80108","0.0-6.0-1.1","508","","","","","clear_screen","null","null","","","catch","sh","l","sw","201","166","228","221","206","181","trueblood","null","null","null","null","null","null","null","null","null","null","null","","180","200","260","200","36000","52000","[1,2]","490.9752543607324","450.70936018410515","500.80164182083996"
"","canvas-keyboard-response","15","80618","0.0-6.0-2.1","508","","","","","rectangles no change","null","null","","","catch","sh","l","sw","201","166","228","221","206","181","trueblood","null","null","null","null","null","null","null","null","null","null","null","","180","200","260","200","36000","52000","[1,2]","490.9752543607324","450.70936018410515","500.80164182083996"
"","canvas-keyboard-response","16","81954","0.0-6.0-3.1","508","","","","","rectangles with change","null","null","","","catch","sh","l","sw","201","166","228","221","206","181","trueblood","null","null","null","null","null","null","null","null","null","null","null","","180","200","260","200","36000","52000","[1,2]","490.9752543607324","450.70936018410515","500.80164182083996"
"","canvas-keyboard-response","17","81976","0.0-6.0-4.1","508","","","","","clear_screen","null","null","","","catch","sh","l","sw","201","166","228","221","206","181","trueblood","null","null","null","null","null","null","null","null","null","null","null","","180","200","260","200","36000","52000","[1,2]","490.9752543607324","450.70936018410515","500.80164182083996"
"","canvas-keyboard-response","18","83067","0.0-6.0-5.1","508","","","","","make choice","1083","2","","","catch","sh","l","sw","201","166","228","221","206","181","trueblood","null","null","null","null","null","null","null","null","null","null","null","","180","200","260","200","36000","52000","[1,2]","","",""
"","canvas-keyboard-response","19","83085","0.0-6.0-6.1","508","","","","","clear_screen","null","null","","","catch","sh","l","sw","201","166","228","221","206","181","trueblood","null","null","null","null","null","null","null","null","null","null","null","","180","200","260","200","36000","52000","[1,2]","","",""
"","canvas-keyboard-response","20","83286","0.0-6.0-0.2","508","","","","","pre trial waiting period","null","null","","","catch","sw","sh","l","180","200","184","154","174","224","spektor","null","null","null","null","null","null","null","null","null","null","null","","180","200","260","200","36000","52000","[2,3]","498.29166433623345","180.04094118142166","498.514156482209"
"","canvas-keyboard-response","21","83305","0.0-6.0-1.2","508","","","","","clear_screen","null","null","","","catch","sw","sh","l","180","200","184","154","174","224","spektor","null","null","null","null","null","null","null","null","null","null","null","","180","200","260","200","36000","52000","[2,3]","498.29166433623345","180.04094118142166","498.514156482209"
"","canvas-keyboard-response","22","83816","0.0-6.0-2.2","508","","","","","rectangles no change","null","null","","","catch","sw","sh","l","180","200","184","154","174","224","spektor","null","null","null","null","null","null","null","null","null","null","null","","180","200","260","200","36000","52000","[2,3]","498.29166433623345","180.04094118142166","498.514156482209"
"","canvas-keyboard-response","23","85151","0.0-6.0-3.2","508","","","","","rectangles with change","null","null","","","catch","sw","sh","l","180","200","184","154","174","224","spektor","null","null","null","null","null","null","null","null","null","null","null","","180","200","260","200","36000","52000","[2,3]","498.29166433623345","180.04094118142166","498.514156482209"
"","canvas-keyboard-response","24","85170","0.0-6.0-4.2","508","","","","","clear_screen","null","null","","","catch","sw","sh","l","180","200","184","154","174","224","spektor","null","null","null","null","null","null","null","null","null","null","null","","180","200","260","200","36000","52000","[2,3]","498.29166433623345","180.04094118142166","498.514156482209"
"","canvas-keyboard-response","25","86507","0.0-6.0-5.2","508","","","","","make choice","1332","3","","","catch","sw","sh","l","180","200","184","154","174","224","spektor","null","null","null","null","null","null","null","null","null","null","null","","180","200","260","200","36000","52000","[2,3]","","",""
"","canvas-keyboard-response","26","86525","0.0-6.0-6.2","508","","","","","clear_screen","null","null","","","catch","sw","sh","l","180","200","184","154","174","224","spektor","null","null","null","null","null","null","null","null","null","null","null","","180","200","260","200","36000","52000","[2,3]","","",""
"","canvas-keyboard-response","27","86727","0.0-6.0-0.3","508","","","","","pre trial waiting period","null","null","","","critical","d","t","c","232.8713","160.6713","240","164","164","240","trueblood","0.05","w","240","164","164","240","232.8713","160.6713","39360","39360","37415.7294","td","null","null","null","null","null","null","[2,1]","507.80749873691656","511.5493441209741","423.5663403846443"
"","canvas-keyboard-response","28","86746","0.0-6.0-1.3","508","","","","","clear_screen","null","null","","","critical","d","t","c","232.8713","160.6713","240","164","164","240","trueblood","0.05","w","240","164","164","240","232.8713","160.6713","39360","39360","37415.7294","td","null","null","null","null","null","null","[2,1]","507.80749873691656","511.5493441209741","423.5663403846443"
"","canvas-keyboard-response","29","87257","0.0-6.0-2.3","508","","","","","rectangles no change","null","null","","","critical","d","t","c","232.8713","160.6713","240","164","164","240","trueblood","0.05","w","240","164","164","240","232.8713","160.6713","39360","39360","37415.7294","td","null","null","null","null","null","null","[2,1]","507.80749873691656","511.5493441209741","423.5663403846443"
"","canvas-keyboard-response","30","88592","0.0-6.0-3.3","508","","","","","rectangles with change","null","null","","","critical","d","t","c","232.8713","160.6713","240","164","164","240","trueblood","0.05","w","240","164","164","240","232.8713","160.6713","39360","39360","37415.7294","td","null","null","null","null","null","null","[2,1]","507.80749873691656","511.5493441209741","423.5663403846443"
"","canvas-keyboard-response","31","88612","0.0-6.0-4.3","508","","","","","clear_screen","null","null","","","critical","d","t","c","232.8713","160.6713","240","164","164","240","trueblood","0.05","w","240","164","164","240","232.8713","160.6713","39360","39360","37415.7294","td","null","null","null","null","null","null","[2,1]","507.80749873691656","511.5493441209741","423.5663403846443"
"","canvas-keyboard-response","32","89668","0.0-6.0-5.3","508","","","","","make choice","1048","2","","","critical","d","t","c","232.8713","160.6713","240","164","164","240","trueblood","0.05","w","240","164","164","240","232.8713","160.6713","39360","39360","37415.7294","td","null","null","null","null","null","null","[2,1]","","",""
"","canvas-keyboard-response","33","89685","0.0-6.0-6.3","508","","","","","clear_screen","null","null","","","critical","d","t","c","232.8713","160.6713","240","164","164","240","trueblood","0.05","w","240","164","164","240","232.8713","160.6713","39360","39360","37415.7294","td","null","null","null","null","null","null","[2,1]","","",""
"","canvas-keyboard-response","34","89887","0.0-6.0-0.4","508","","","","","pre trial waiting period","null","null","","","catch","sw","sh","l","180","200","185","152","297","204","spektor","null","null","null","null","null","null","null","null","null","null","null","","180","200","260","200","36000","52000","[1,3]","512.5466722825901","185.7498472636051","492.67498962315426"
"","canvas-keyboard-response","35","89905","0.0-6.0-1.4","508","","","","","clear_screen","null","null","","","catch","sw","sh","l","180","200","185","152","297","204","spektor","null","null","null","null","null","null","null","null","null","null","null","","180","200","260","200","36000","52000","[1,3]","512.5466722825901","185.7498472636051","492.67498962315426"
"","canvas-keyboard-response","36","90415","0.0-6.0-2.4","508","","","","","rectangles no change","null","null","","","catch","sw","sh","l","180","200","185","152","297","204","spektor","null","null","null","null","null","null","null","null","null","null","null","","180","200","260","200","36000","52000","[1,3]","512.5466722825901","185.7498472636051","492.67498962315426"
"","canvas-keyboard-response","37","91750","0.0-6.0-3.4","508","","","","","rectangles with change","null","null","","","catch","sw","sh","l","180","200","185","152","297","204","spektor","null","null","null","null","null","null","null","null","null","null","null","","180","200","260","200","36000","52000","[1,3]","512.5466722825901","185.7498472636051","492.67498962315426"
"","canvas-keyboard-response","38","91768","0.0-6.0-4.4","508","","","","","clear_screen","null","null","","","catch","sw","sh","l","180","200","185","152","297","204","spektor","null","null","null","null","null","null","null","null","null","null","null","","180","200","260","200","36000","52000","[1,3]","512.5466722825901","185.7498472636051","492.67498962315426"
"","canvas-keyboard-response","39","93164","0.0-6.0-5.4","508","","","","","make choice","1389","3","","","catch","sw","sh","l","180","200","185","152","297","204","spektor","null","null","null","null","null","null","null","null","null","null","null","","180","200","260","200","36000","52000","[1,3]","","",""
"","canvas-keyboard-response","40","93182","0.0-6.0-6.4","508","","","","","clear_screen","null","null","","","catch","sw","sh","l","180","200","185","152","297","204","spektor","null","null","null","null","null","null","null","null","null","null","null","","180","200","260","200","36000","52000","[1,3]","","",""
"","canvas-keyboard-response","41","93384","0.0-6.0-0.5","508","","","","","pre trial waiting period","null","null","","","critical","d","c","t","240","164","164","240","240","164","spektor","0","w","240","164","164","240","240","164","39360","39360","39360","td","null","null","null","null","null","null","[3,1]","536.4938100695706","122.7302749271907","530.78379523208"
"","canvas-keyboard-response","42","93405","0.0-6.0-1.5","508","","","","","clear_screen","null","null","","","critical","d","c","t","240","164","164","240","240","164","spektor","0","w","240","164","164","240","240","164","39360","39360","39360","td","null","null","null","null","null","null","[3,1]","536.4938100695706","122.7302749271907","530.78379523208"
"","canvas-keyboard-response","43","93914","0.0-6.0-2.5","508","","","","","rectangles no change","null","null","","","critical","d","c","t","240","164","164","240","240","164","spektor","0","w","240","164","164","240","240","164","39360","39360","39360","td","null","null","null","null","null","null","[3,1]","536.4938100695706","122.7302749271907","530.78379523208"
"","canvas-keyboard-response","44","95250","0.0-6.0-3.5","508","","","","","rectangles with change","null","null","","","critical","d","c","t","240","164","164","240","240","164","spektor","0","w","240","164","164","240","240","164","39360","39360","39360","td","null","null","null","null","null","null","[3,1]","536.4938100695706","122.7302749271907","530.78379523208"
"","canvas-keyboard-response","45","95267","0.0-6.0-4.5","508","","","","","clear_screen","null","null","","","critical","d","c","t","240","164","164","240","240","164","spektor","0","w","240","164","164","240","240","164","39360","39360","39360","td","null","null","null","null","null","null","[3,1]","536.4938100695706","122.7302749271907","530.78379523208"
"","canvas-keyboard-response","46","97571","0.0-6.0-5.5","508","","","","","make choice","2298","3","","","critical","d","c","t","240","164","164","240","240","164","spektor","0","w","240","164","164","240","240","164","39360","39360","39360","td","null","null","null","null","null","null","[3,1]","","",""
"","canvas-keyboard-response","47","97588","0.0-6.0-6.5","508","","","","","clear_screen","null","null","","","critical","d","c","t","240","164","164","240","240","164","spektor","0","w","240","164","164","240","240","164","39360","39360","39360","td","null","null","null","null","null","null","[3,1]","","",""
"","canvas-keyboard-response","48","97790","0.0-6.0-0.6","508","","","","","pre trial waiting period","null","null","","","critical","t","c","d","240","164","164","240","237.1485","162.6685","trueblood","0.02","w","240","164","164","240","237.1485","162.6685","39360","39360","38576.5967","td","null","null","null","null","null","null","[1,3]","503.38164189119976","439.9093478090367","511.15973919967973"
"","canvas-keyboard-response","49","97808","0.0-6.0-1.6","508","","","","","clear_screen","null","null","","","critical","t","c","d","240","164","164","240","237.1485","162.6685","trueblood","0.02","w","240","164","164","240","237.1485","162.6685","39360","39360","38576.5967","td","null","null","null","null","null","null","[1,3]","503.38164189119976","439.9093478090367","511.15973919967973"
"","canvas-keyboard-response","50","98317","0.0-6.0-2.6","508","","","","","rectangles no change","null","null","","","critical","t","c","d","240","164","164","240","237.1485","162.6685","trueblood","0.02","w","240","164","164","240","237.1485","162.6685","39360","39360","38576.5967","td","null","null","null","null","null","null","[1,3]","503.38164189119976","439.9093478090367","511.15973919967973"
"","canvas-keyboard-response","51","99652","0.0-6.0-3.6","508","","","","","rectangles with change","null","null","","","critical","t","c","d","240","164","164","240","237.1485","162.6685","trueblood","0.02","w","240","164","164","240","237.1485","162.6685","39360","39360","38576.5967","td","null","null","null","null","null","null","[1,3]","503.38164189119976","439.9093478090367","511.15973919967973"
"","canvas-keyboard-response","52","99669","0.0-6.0-4.6","508","","","","","clear_screen","null","null","","","critical","t","c","d","240","164","164","240","237.1485","162.6685","trueblood","0.02","w","240","164","164","240","237.1485","162.6685","39360","39360","38576.5967","td","null","null","null","null","null","null","[1,3]","503.38164189119976","439.9093478090367","511.15973919967973"
"","canvas-keyboard-response","53","100708","0.0-6.0-5.6","508","","","","","make choice","1031","1","","","critical","t","c","d","240","164","164","240","237.1485","162.6685","trueblood","0.02","w","240","164","164","240","237.1485","162.6685","39360","39360","38576.5967","td","null","null","null","null","null","null","[1,3]","","",""
"","canvas-keyboard-response","54","100725","0.0-6.0-6.6","508","","","","","clear_screen","null","null","","","critical","t","c","d","240","164","164","240","237.1485","162.6685","trueblood","0.02","w","240","164","164","240","237.1485","162.6685","39360","39360","38576.5967","td","null","null","null","null","null","null","[1,3]","","",""
"","canvas-keyboard-response","55","100927","0.0-6.0-0.7","508","","","","","pre trial waiting period","null","null","","","catch","sw","sh","l","180","200","217","214","204","221","spektor","null","null","null","null","null","null","null","null","null","null","null","","180","200","260","200","36000","52000","[1,3]","494.00270589656145","155.1521701700752","503.95416981874513"
"","canvas-keyboard-response","56","100946","0.0-6.0-1.7","508","","","","","clear_screen","null","null","","","catch","sw","sh","l","180","200","217","214","204","221","spektor","null","null","null","null","null","null","null","null","null","null","null","","180","200","260","200","36000","52000","[1,3]","494.00270589656145","155.1521701700752","503.95416981874513"
"","canvas-keyboard-response","57","101457","0.0-6.0-2.7","508","","","","","rectangles no change","null","null","","","catch","sw","sh","l","180","200","217","214","204","221","spektor","null","null","null","null","null","null","null","null","null","null","null","","180","200","260","200","36000","52000","[1,3]","494.00270589656145","155.1521701700752","503.95416981874513"
"","canvas-keyboard-response","58","102792","0.0-6.0-3.7","508","","","","","rectangles with change","null","null","","","catch","sw","sh","l","180","200","217","214","204","221","spektor","null","null","null","null","null","null","null","null","null","null","null","","180","200","260","200","36000","52000","[1,3]","494.00270589656145","155.1521701700752","503.95416981874513"
"","canvas-keyboard-response","59","102809","0.0-6.0-4.7","508","","","","","clear_screen","null","null","","","catch","sw","sh","l","180","200","217","214","204","221","spektor","null","null","null","null","null","null","null","null","null","null","null","","180","200","260","200","36000","52000","[1,3]","494.00270589656145","155.1521701700752","503.95416981874513"
"","canvas-keyboard-response","60","104340","0.0-6.0-5.7","508","","","","","make choice","1521","3","","","catch","sw","sh","l","180","200","217","214","204","221","spektor","null","null","null","null","null","null","null","null","null","null","null","","180","200","260","200","36000","52000","[1,3]","","",""
"","canvas-keyboard-response","61","104357","0.0-6.0-6.7","508","","","","","clear_screen","null","null","","","catch","sw","sh","l","180","200","217","214","204","221","spektor","null","null","null","null","null","null","null","null","null","null","null","","180","200","260","200","36000","52000","[1,3]","","",""
"","canvas-keyboard-response","62","104558","0.0-6.0-0.8","508","","","","","pre trial waiting period","null","null","","","critical","c","d","t","240","164","164","240","164","240","trueblood","0","h","164","240","240","164","164","240","39360","39360","39360","td","null","null","null","null","null","null","[3,2]","479.9933441451335","459.70326492472316","467.4503494285896"
"","canvas-keyboard-response","63","104577","0.0-6.0-1.8","508","","","","","clear_screen","null","null","","","critical","c","d","t","240","164","164","240","164","240","trueblood","0","h","164","240","240","164","164","240","39360","39360","39360","td","null","null","null","null","null","null","[3,2]","479.9933441451335","459.70326492472316","467.4503494285896"
"","canvas-keyboard-response","64","105086","0.0-6.0-2.8","508","","","","","rectangles no change","null","null","","","critical","c","d","t","240","164","164","240","164","240","trueblood","0","h","164","240","240","164","164","240","39360","39360","39360","td","null","null","null","null","null","null","[3,2]","479.9933441451335","459.70326492472316","467.4503494285896"
"","canvas-keyboard-response","65","106421","0.0-6.0-3.8","508","","","","","rectangles with change","null","null","","","critical","c","d","t","240","164","164","240","164","240","trueblood","0","h","164","240","240","164","164","240","39360","39360","39360","td","null","null","null","null","null","null","[3,2]","479.9933441451335","459.70326492472316","467.4503494285896"
"","canvas-keyboard-response","66","106441","0.0-6.0-4.8","508","","","","","clear_screen","null","null","","","critical","c","d","t","240","164","164","240","164","240","trueblood","0","h","164","240","240","164","164","240","39360","39360","39360","td","null","null","null","null","null","null","[3,2]","479.9933441451335","459.70326492472316","467.4503494285896"
"","canvas-keyboard-response","67","107683","0.0-6.0-5.8","508","","","","","make choice","1236","2","","","critical","c","d","t","240","164","164","240","164","240","trueblood","0","h","164","240","240","164","164","240","39360","39360","39360","td","null","null","null","null","null","null","[3,2]","","",""
"","canvas-keyboard-response","68","107701","0.0-6.0-6.8","508","","","","","clear_screen","null","null","","","critical","c","d","t","240","164","164","240","164","240","trueblood","0","h","164","240","240","164","164","240","39360","39360","39360","td","null","null","null","null","null","null","[3,2]","","",""
"","canvas-keyboard-response","69","107903","0.0-6.0-0.9","508","","","","","pre trial waiting period","null","null","","","critical","c","d","t","164","240","220.0396","154.6796","240","164","spektor","0.14","w","240","164","164","240","220.0396","154.6796","39360","39360","34035.6388","tc","null","null","null","null","null","null","[3,1]","477.64600897727377","220.4909885129792","529.1672457891126"
"","canvas-keyboard-response","70","107922","0.0-6.0-1.9","508","","","","","clear_screen","null","null","","","critical","c","d","t","164","240","220.0396","154.6796","240","164","spektor","0.14","w","240","164","164","240","220.0396","154.6796","39360","39360","34035.6388","tc","null","null","null","null","null","null","[3,1]","477.64600897727377","220.4909885129792","529.1672457891126"
"","canvas-keyboard-response","71","108433","0.0-6.0-2.9","508","","","","","rectangles no change","null","null","","","critical","c","d","t","164","240","220.0396","154.6796","240","164","spektor","0.14","w","240","164","164","240","220.0396","154.6796","39360","39360","34035.6388","tc","null","null","null","null","null","null","[3,1]","477.64600897727377","220.4909885129792","529.1672457891126"
"","canvas-keyboard-response","72","109768","0.0-6.0-3.9","508","","","","","rectangles with change","null","null","","","critical","c","d","t","164","240","220.0396","154.6796","240","164","spektor","0.14","w","240","164","164","240","220.0396","154.6796","39360","39360","34035.6388","tc","null","null","null","null","null","null","[3,1]","477.64600897727377","220.4909885129792","529.1672457891126"
"","canvas-keyboard-response","73","109786","0.0-6.0-4.9","508","","","","","clear_screen","null","null","","","critical","c","d","t","164","240","220.0396","154.6796","240","164","spektor","0.14","w","240","164","164","240","220.0396","154.6796","39360","39360","34035.6388","tc","null","null","null","null","null","null","[3,1]","477.64600897727377","220.4909885129792","529.1672457891126"
"","canvas-keyboard-response","74","111011","0.0-6.0-5.9","508","","","","","make choice","1219","3","","","critical","c","d","t","164","240","220.0396","154.6796","240","164","spektor","0.14","w","240","164","164","240","220.0396","154.6796","39360","39360","34035.6388","tc","null","null","null","null","null","null","[3,1]","","",""
"","canvas-keyboard-response","75","111034","0.0-6.0-6.9","508","","","","","clear_screen","null","null","","","critical","c","d","t","164","240","220.0396","154.6796","240","164","spektor","0.14","w","240","164","164","240","220.0396","154.6796","39360","39360","34035.6388","tc","null","null","null","null","null","null","[3,1]","","",""
"","canvas-keyboard-response","76","111236","0.0-6.0-0.10","508","","","","","pre trial waiting period","null","null","","","critical","c","d","t","240","164","154.6796","220.0396","164","240","trueblood","0.14","h","164","240","240","164","154.6796","220.0396","39360","39360","34035.6388","dc","null","null","null","null","null","null","[2,1]","470.813551926556","479.6234260398487","441.7019550352603"
"","canvas-keyboard-response","77","111255","0.0-6.0-1.10","508","","","","","clear_screen","null","null","","","critical","c","d","t","240","164","154.6796","220.0396","164","240","trueblood","0.14","h","164","240","240","164","154.6796","220.0396","39360","39360","34035.6388","dc","null","null","null","null","null","null","[2,1]","470.813551926556","479.6234260398487","441.7019550352603"
"","canvas-keyboard-response","78","111765","0.0-6.0-2.10","508","","","","","rectangles no change","null","null","","","critical","c","d","t","240","164","154.6796","220.0396","164","240","trueblood","0.14","h","164","240","240","164","154.6796","220.0396","39360","39360","34035.6388","dc","null","null","null","null","null","null","[2,1]","470.813551926556","479.6234260398487","441.7019550352603"
"","canvas-keyboard-response","79","113102","0.0-6.0-3.10","508","","","","","rectangles with change","null","null","","","critical","c","d","t","240","164","154.6796","220.0396","164","240","trueblood","0.14","h","164","240","240","164","154.6796","220.0396","39360","39360","34035.6388","dc","null","null","null","null","null","null","[2,1]","470.813551926556","479.6234260398487","441.7019550352603"
"","canvas-keyboard-response","80","113123","0.0-6.0-4.10","508","","","","","clear_screen","null","null","","","critical","c","d","t","240","164","154.6796","220.0396","164","240","trueblood","0.14","h","164","240","240","164","154.6796","220.0396","39360","39360","34035.6388","dc","null","null","null","null","null","null","[2,1]","470.813551926556","479.6234260398487","441.7019550352603"
"","canvas-keyboard-response","81","114148","0.0-6.0-5.10","508","","","","","make choice","1015","1","","","critical","c","d","t","240","164","154.6796","220.0396","164","240","trueblood","0.14","h","164","240","240","164","154.6796","220.0396","39360","39360","34035.6388","dc","null","null","null","null","null","null","[2,1]","","",""
"","canvas-keyboard-response","82","114166","0.0-6.0-6.10","508","","","","","clear_screen","null","null","","","critical","c","d","t","240","164","154.6796","220.0396","164","240","trueblood","0.14","h","164","240","240","164","154.6796","220.0396","39360","39360","34035.6388","dc","null","null","null","null","null","null","[2,1]","","",""
"","canvas-keyboard-response","83","114368","0.0-6.0-0.11","508","","","","","pre trial waiting period","null","null","","","catch","l","sw","sh","172","289","173","206","172","157","trueblood","null","null","null","null","null","null","null","null","null","null","null","","180","200","260","200","36000","52000","[1,2]","422.2458068885142","468.5014156476882","489.87028951035865"
"","canvas-keyboard-response","84","114388","0.0-6.0-1.11","508","","","","","clear_screen","null","null","","","catch","l","sw","sh","172","289","173","206","172","157","trueblood","null","null","null","null","null","null","null","null","null","null","null","","180","200","260","200","36000","52000","[1,2]","422.2458068885142","468.5014156476882","489.87028951035865"
"","canvas-keyboard-response","85","114899","0.0-6.0-2.11","508","","","","","rectangles no change","null","null","","","catch","l","sw","sh","172","289","173","206","172","157","trueblood","null","null","null","null","null","null","null","null","null","null","null","","180","200","260","200","36000","52000","[1,2]","422.2458068885142","468.5014156476882","489.87028951035865"
"","canvas-keyboard-response","86","116234","0.0-6.0-3.11","508","","","","","rectangles with change","null","null","","","catch","l","sw","sh","172","289","173","206","172","157","trueblood","null","null","null","null","null","null","null","null","null","null","null","","180","200","260","200","36000","52000","[1,2]","422.2458068885142","468.5014156476882","489.87028951035865"
"","canvas-keyboard-response","87","116253","0.0-6.0-4.11","508","","","","","clear_screen","null","null","","","catch","l","sw","sh","172","289","173","206","172","157","trueblood","null","null","null","null","null","null","null","null","null","null","null","","180","200","260","200","36000","52000","[1,2]","422.2458068885142","468.5014156476882","489.87028951035865"
"","canvas-keyboard-response","88","117259","0.0-6.0-5.11","508","","","","","make choice","999","1","","","catch","l","sw","sh","172","289","173","206","172","157","trueblood","null","null","null","null","null","null","null","null","null","null","null","","180","200","260","200","36000","52000","[1,2]","","",""
"","canvas-keyboard-response","89","117278","0.0-6.0-6.11","508","","","","","clear_screen","null","null","","","catch","l","sw","sh","172","289","173","206","172","157","trueblood","null","null","null","null","null","null","null","null","null","null","null","","180","200","260","200","36000","52000","[1,2]","","",""
"","canvas-keyboard-response","90","117480","0.0-6.0-0.12","508","","","","","pre trial waiting period","null","null","","","critical","c","d","t","164","240","232.8713","160.6713","240","164","trueblood","0.05","w","240","164","164","240","232.8713","160.6713","39360","39360","37415.7294","dc","null","null","null","null","null","null","[2,1]","462.8640171978849","505.0764629534317","497.9435907588246"
"","canvas-keyboard-response","91","117499","0.0-6.0-1.12","508","","","","","clear_screen","null","null","","","critical","c","d","t","164","240","232.8713","160.6713","240","164","trueblood","0.05","w","240","164","164","240","232.8713","160.6713","39360","39360","37415.7294","dc","null","null","null","null","null","null","[2,1]","462.8640171978849","505.0764629534317","497.9435907588246"
"","canvas-keyboard-response","92","118010","0.0-6.0-2.12","508","","","","","rectangles no change","null","null","","","critical","c","d","t","164","240","232.8713","160.6713","240","164","trueblood","0.05","w","240","164","164","240","232.8713","160.6713","39360","39360","37415.7294","dc","null","null","null","null","null","null","[2,1]","462.8640171978849","505.0764629534317","497.9435907588246"
"","canvas-keyboard-response","93","119345","0.0-6.0-3.12","508","","","","","rectangles with change","null","null","","","critical","c","d","t","164","240","232.8713","160.6713","240","164","trueblood","0.05","w","240","164","164","240","232.8713","160.6713","39360","39360","37415.7294","dc","null","null","null","null","null","null","[2,1]","462.8640171978849","505.0764629534317","497.9435907588246"
"","canvas-keyboard-response","94","119362","0.0-6.0-4.12","508","","","","","clear_screen","null","null","","","critical","c","d","t","164","240","232.8713","160.6713","240","164","trueblood","0.05","w","240","164","164","240","232.8713","160.6713","39360","39360","37415.7294","dc","null","null","null","null","null","null","[2,1]","462.8640171978849","505.0764629534317","497.9435907588246"
"","canvas-keyboard-response","95","120347","0.0-6.0-5.12","508","","","","","make choice","977","2","","","critical","c","d","t","164","240","232.8713","160.6713","240","164","trueblood","0.05","w","240","164","164","240","232.8713","160.6713","39360","39360","37415.7294","dc","null","null","null","null","null","null","[2,1]","","",""
"","canvas-keyboard-response","96","120365","0.0-6.0-6.12","508","","","","","clear_screen","null","null","","","critical","c","d","t","164","240","232.8713","160.6713","240","164","trueblood","0.05","w","240","164","164","240","232.8713","160.6713","39360","39360","37415.7294","dc","null","null","null","null","null","null","[2,1]","","",""
"","canvas-keyboard-response","97","120567","0.0-6.0-0.13","508","","","","","pre trial waiting period","null","null","","","catch","sw","l","sh","180","200","222","180","185","148","spektor","null","null","null","null","null","null","null","null","null","null","null","","180","200","260","200","36000","52000","[2,3]","480.10228354797414","165.63033154863433","544.578328562036"
"","canvas-keyboard-response","98","120586","0.0-6.0-1.13","508","","","","","clear_screen","null","null","","","catch","sw","l","sh","180","200","222","180","185","148","spektor","null","null","null","null","null","null","null","null","null","null","null","","180","200","260","200","36000","52000","[2,3]","480.10228354797414","165.63033154863433","544.578328562036"
"","canvas-keyboard-response","99","121098","0.0-6.0-2.13","508","","","","","rectangles no change","null","null","","","catch","sw","l","sh","180","200","222","180","185","148","spektor","null","null","null","null","null","null","null","null","null","null","null","","180","200","260","200","36000","52000","[2,3]","480.10228354797414","165.63033154863433","544.578328562036"
"","canvas-keyboard-response","100","122434","0.0-6.0-3.13","508","","","","","rectangles with change","null","null","","","catch","sw","l","sh","180","200","222","180","185","148","spektor","null","null","null","null","null","null","null","null","null","null","null","","180","200","260","200","36000","52000","[2,3]","480.10228354797414","165.63033154863433","544.578328562036"
"","canvas-keyboard-response","101","122452","0.0-6.0-4.13","508","","","","","clear_screen","null","null","","","catch","sw","l","sh","180","200","222","180","185","148","spektor","null","null","null","null","null","null","null","null","null","null","null","","180","200","260","200","36000","52000","[2,3]","480.10228354797414","165.63033154863433","544.578328562036"
"","canvas-keyboard-response","102","123595","0.0-6.0-5.13","508","","","","","make choice","1137","2","","","catch","sw","l","sh","180","200","222","180","185","148","spektor","null","null","null","null","null","null","null","null","null","null","null","","180","200","260","200","36000","52000","[2,3]","","",""
"","canvas-keyboard-response","103","123613","0.0-6.0-6.13","508","","","","","clear_screen","null","null","","","catch","sw","l","sh","180","200","222","180","185","148","spektor","null","null","null","null","null","null","null","null","null","null","null","","180","200","260","200","36000","52000","[2,3]","","",""
"","canvas-keyboard-response","104","123815","0.0-6.0-0.14","508","","","","","pre trial waiting period","null","null","","","critical","c","t","d","240","164","164","240","162.6685","237.1485","spektor","0.02","h","164","240","240","164","162.6685","237.1485","39360","39360","38576.5967","dc","null","null","null","null","null","null","[3,1]","500.0786654672064","113.53233081849655","460.29516124638127"
"","canvas-keyboard-response","105","123834","0.0-6.0-1.14","508","","","","","clear_screen","null","null","","","critical","c","t","d","240","164","164","240","162.6685","237.1485","spektor","0.02","h","164","240","240","164","162.6685","237.1485","39360","39360","38576.5967","dc","null","null","null","null","null","null","[3,1]","500.0786654672064","113.53233081849655","460.29516124638127"
"","canvas-keyboard-response","106","124348","0.0-6.0-2.14","508","","","","","rectangles no change","null","null","","","critical","c","t","d","240","164","164","240","162.6685","237.1485","spektor","0.02","h","164","240","240","164","162.6685","237.1485","39360","39360","38576.5967","dc","null","null","null","null","null","null","[3,1]","500.0786654672064","113.53233081849655","460.29516124638127"
"","canvas-keyboard-response","107","125684","0.0-6.0-3.14","508","","","","","rectangles with change","null","null","","","critical","c","t","d","240","164","164","240","162.6685","237.1485","spektor","0.02","h","164","240","240","164","162.6685","237.1485","39360","39360","38576.5967","dc","null","null","null","null","null","null","[3,1]","500.0786654672064","113.53233081849655","460.29516124638127"
"","canvas-keyboard-response","108","125701","0.0-6.0-4.14","508","","","","","clear_screen","null","null","","","critical","c","t","d","240","164","164","240","162.6685","237.1485","spektor","0.02","h","164","240","240","164","162.6685","237.1485","39360","39360","38576.5967","dc","null","null","null","null","null","null","[3,1]","500.0786654672064","113.53233081849655","460.29516124638127"
"","canvas-keyboard-response","109","126779","0.0-6.0-5.14","508","","","","","make choice","1071","1","","","critical","c","t","d","240","164","164","240","162.6685","237.1485","spektor","0.02","h","164","240","240","164","162.6685","237.1485","39360","39360","38576.5967","dc","null","null","null","null","null","null","[3,1]","","",""
"","canvas-keyboard-response","110","126797","0.0-6.0-6.14","508","","","","","clear_screen","null","null","","","critical","c","t","d","240","164","164","240","162.6685","237.1485","spektor","0.02","h","164","240","240","164","162.6685","237.1485","39360","39360","38576.5967","dc","null","null","null","null","null","null","[3,1]","","",""
"","canvas-keyboard-response","111","126998","0.0-6.0-0.15","508","","","","","pre trial waiting period","null","null","","","critical","t","d","c","240","164","227.1683","158.0083","164","240","spektor","0.09","w","240","164","164","240","227.1683","158.0083","39360","39360","35894.4834","dc","null","null","null","null","null","null","[2,3]","522.7165431575755","183.99200893821998","489.5942035592924"
"","canvas-keyboard-response","112","127017","0.0-6.0-1.15","508","","","","","clear_screen","null","null","","","critical","t","d","c","240","164","227.1683","158.0083","164","240","spektor","0.09","w","240","164","164","240","227.1683","158.0083","39360","39360","35894.4834","dc","null","null","null","null","null","null","[2,3]","522.7165431575755","183.99200893821998","489.5942035592924"
"","canvas-keyboard-response","113","127527","0.0-6.0-2.15","508","","","","","rectangles no change","null","null","","","critical","t","d","c","240","164","227.1683","158.0083","164","240","spektor","0.09","w","240","164","164","240","227.1683","158.0083","39360","39360","35894.4834","dc","null","null","null","null","null","null","[2,3]","522.7165431575755","183.99200893821998","489.5942035592924"
"","canvas-keyboard-response","114","128863","0.0-6.0-3.15","508","","","","","rectangles with change","null","null","","","critical","t","d","c","240","164","227.1683","158.0083","164","240","spektor","0.09","w","240","164","164","240","227.1683","158.0083","39360","39360","35894.4834","dc","null","null","null","null","null","null","[2,3]","522.7165431575755","183.99200893821998","489.5942035592924"
"","canvas-keyboard-response","115","128881","0.0-6.0-4.15","508","","","","","clear_screen","null","null","","","critical","t","d","c","240","164","227.1683","158.0083","164","240","spektor","0.09","w","240","164","164","240","227.1683","158.0083","39360","39360","35894.4834","dc","null","null","null","null","null","null","[2,3]","522.7165431575755","183.99200893821998","489.5942035592924"
"","canvas-keyboard-response","116","129900","0.0-6.0-5.15","508","","","","","make choice","1010","3","","","critical","t","d","c","240","164","227.1683","158.0083","164","240","spektor","0.09","w","240","164","164","240","227.1683","158.0083","39360","39360","35894.4834","dc","null","null","null","null","null","null","[2,3]","","",""
"","canvas-keyboard-response","117","129917","0.0-6.0-6.15","508","","","","","clear_screen","null","null","","","critical","t","d","c","240","164","227.1683","158.0083","164","240","spektor","0.09","w","240","164","164","240","227.1683","158.0083","39360","39360","35894.4834","dc","null","null","null","null","null","null","[2,3]","","",""
"","canvas-keyboard-response","118","130118","0.0-6.0-0.16","508","","","","","pre trial waiting period","null","null","","","critical","d","c","t","227.1683","158.0083","164","240","240","164","trueblood","0.09","w","240","164","164","240","227.1683","158.0083","39360","39360","35894.4834","tc","null","null","null","null","null","null","[3,2]","480.96317725527325","432.14014319978696","495.3151148452144"
"","canvas-keyboard-response","119","130137","0.0-6.0-1.16","508","","","","","clear_screen","null","null","","","critical","d","c","t","227.1683","158.0083","164","240","240","164","trueblood","0.09","w","240","164","164","240","227.1683","158.0083","39360","39360","35894.4834","tc","null","null","null","null","null","null","[3,2]","480.96317725527325","432.14014319978696","495.3151148452144"
"","canvas-keyboard-response","120","130647","0.0-6.0-2.16","508","","","","","rectangles no change","null","null","","","critical","d","c","t","227.1683","158.0083","164","240","240","164","trueblood","0.09","w","240","164","164","240","227.1683","158.0083","39360","39360","35894.4834","tc","null","null","null","null","null","null","[3,2]","480.96317725527325","432.14014319978696","495.3151148452144"
"","canvas-keyboard-response","121","131982","0.0-6.0-3.16","508","","","","","rectangles with change","null","null","","","critical","d","c","t","227.1683","158.0083","164","240","240","164","trueblood","0.09","w","240","164","164","240","227.1683","158.0083","39360","39360","35894.4834","tc","null","null","null","null","null","null","[3,2]","480.96317725527325","432.14014319978696","495.3151148452144"
"","canvas-keyboard-response","122","131999","0.0-6.0-4.16","508","","","","","clear_screen","null","null","","","critical","d","c","t","227.1683","158.0083","164","240","240","164","trueblood","0.09","w","240","164","164","240","227.1683","158.0083","39360","39360","35894.4834","tc","null","null","null","null","null","null","[3,2]","480.96317725527325","432.14014319978696","495.3151148452144"
"","canvas-keyboard-response","123","133002","0.0-6.0-5.16","508","","","","","make choice","997","3","","","critical","d","c","t","227.1683","158.0083","164","240","240","164","trueblood","0.09","w","240","164","164","240","227.1683","158.0083","39360","39360","35894.4834","tc","null","null","null","null","null","null","[3,2]","","",""
"","canvas-keyboard-response","124","133021","0.0-6.0-6.16","508","","","","","clear_screen","null","null","","","critical","d","c","t","227.1683","158.0083","164","240","240","164","trueblood","0.09","w","240","164","164","240","227.1683","158.0083","39360","39360","35894.4834","tc","null","null","null","null","null","null","[3,2]","","",""
"","canvas-keyboard-response","125","133221","0.0-6.0-0.17","508","","","","","pre trial waiting period","null","null","","","critical","t","c","d","240","164","164","240","220.0396","154.6796","trueblood","0.14","w","240","164","164","240","220.0396","154.6796","39360","39360","34035.6388","tc","null","null","null","null","null","null","[1,2]","514.2738111418589","431.7435386941051","485.16636082328586"
"","canvas-keyboard-response","126","133240","0.0-6.0-1.17","508","","","","","clear_screen","null","null","","","critical","t","c","d","240","164","164","240","220.0396","154.6796","trueblood","0.14","w","240","164","164","240","220.0396","154.6796","39360","39360","34035.6388","tc","null","null","null","null","null","null","[1,2]","514.2738111418589","431.7435386941051","485.16636082328586"
"","canvas-keyboard-response","127","133749","0.0-6.0-2.17","508","","","","","rectangles no change","null","null","","","critical","t","c","d","240","164","164","240","220.0396","154.6796","trueblood","0.14","w","240","164","164","240","220.0396","154.6796","39360","39360","34035.6388","tc","null","null","null","null","null","null","[1,2]","514.2738111418589","431.7435386941051","485.16636082328586"
"","canvas-keyboard-response","128","135084","0.0-6.0-3.17","508","","","","","rectangles with change","null","null","","","critical","t","c","d","240","164","164","240","220.0396","154.6796","trueblood","0.14","w","240","164","164","240","220.0396","154.6796","39360","39360","34035.6388","tc","null","null","null","null","null","null","[1,2]","514.2738111418589","431.7435386941051","485.16636082328586"
"","canvas-keyboard-response","129","135103","0.0-6.0-4.17","508","","","","","clear_screen","null","null","","","critical","t","c","d","240","164","164","240","220.0396","154.6796","trueblood","0.14","w","240","164","164","240","220.0396","154.6796","39360","39360","34035.6388","tc","null","null","null","null","null","null","[1,2]","514.2738111418589","431.7435386941051","485.16636082328586"
"","canvas-keyboard-response","130","136139","0.0-6.0-5.17","508","","","","","make choice","1026","1","","","critical","t","c","d","240","164","164","240","220.0396","154.6796","trueblood","0.14","w","240","164","164","240","220.0396","154.6796","39360","39360","34035.6388","tc","null","null","null","null","null","null","[1,2]","","",""
"","canvas-keyboard-response","131","136156","0.0-6.0-6.17","508","","","","","clear_screen","null","null","","","critical","t","c","d","240","164","164","240","220.0396","154.6796","trueblood","0.14","w","240","164","164","240","220.0396","154.6796","39360","39360","34035.6388","tc","null","null","null","null","null","null","[1,2]","","",""
"","canvas-keyboard-response","132","136357","0.0-6.0-0.18","508","","","","","pre trial waiting period","null","null","","","critical","c","d","t","240","164","162.6685","237.1485","164","240","trueblood","0.02","h","164","240","240","164","162.6685","237.1485","39360","39360","38576.5967","td","null","null","null","null","null","null","[3,2]","478.53193515805765","454.4328259542853","461.74704498795654"
"","canvas-keyboard-response","133","136376","0.0-6.0-1.18","508","","","","","clear_screen","null","null","","","critical","c","d","t","240","164","162.6685","237.1485","164","240","trueblood","0.02","h","164","240","240","164","162.6685","237.1485","39360","39360","38576.5967","td","null","null","null","null","null","null","[3,2]","478.53193515805765","454.4328259542853","461.74704498795654"
"","canvas-keyboard-response","134","136889","0.0-6.0-2.18","508","","","","","rectangles no change","null","null","","","critical","c","d","t","240","164","162.6685","237.1485","164","240","trueblood","0.02","h","164","240","240","164","162.6685","237.1485","39360","39360","38576.5967","td","null","null","null","null","null","null","[3,2]","478.53193515805765","454.4328259542853","461.74704498795654"
"","canvas-keyboard-response","135","138222","0.0-6.0-3.18","508","","","","","rectangles with change","null","null","","","critical","c","d","t","240","164","162.6685","237.1485","164","240","trueblood","0.02","h","164","240","240","164","162.6685","237.1485","39360","39360","38576.5967","td","null","null","null","null","null","null","[3,2]","478.53193515805765","454.4328259542853","461.74704498795654"
"","canvas-keyboard-response","136","138240","0.0-6.0-4.18","508","","","","","clear_screen","null","null","","","critical","c","d","t","240","164","162.6685","237.1485","164","240","trueblood","0.02","h","164","240","240","164","162.6685","237.1485","39360","39360","38576.5967","td","null","null","null","null","null","null","[3,2]","478.53193515805765","454.4328259542853","461.74704498795654"
"","canvas-keyboard-response","137","140690","0.0-6.0-5.18","508","","","","","make choice","2443","2","","","critical","c","d","t","240","164","162.6685","237.1485","164","240","trueblood","0.02","h","164","240","240","164","162.6685","237.1485","39360","39360","38576.5967","td","null","null","null","null","null","null","[3,2]","","",""
"","canvas-keyboard-response","138","140709","0.0-6.0-6.18","508","","","","","clear_screen","null","null","","","critical","c","d","t","240","164","162.6685","237.1485","164","240","trueblood","0.02","h","164","240","240","164","162.6685","237.1485","39360","39360","38576.5967","td","null","null","null","null","null","null","[3,2]","","",""
"","canvas-keyboard-response","139","140909","0.0-6.0-0.19","508","","","","","pre trial waiting period","null","null","","","critical","t","c","d","164","240","240","164","162.6685","237.1485","spektor","0.02","h","164","240","240","164","162.6685","237.1485","39360","39360","38576.5967","td","null","null","null","null","null","null","[1,3]","498.5766456756494","153.8254857646691","460.4624657526918"
"","canvas-keyboard-response","140","140931","0.0-6.0-1.19","508","","","","","clear_screen","null","null","","","critical","t","c","d","164","240","240","164","162.6685","237.1485","spektor","0.02","h","164","240","240","164","162.6685","237.1485","39360","39360","38576.5967","td","null","null","null","null","null","null","[1,3]","498.5766456756494","153.8254857646691","460.4624657526918"
"","canvas-keyboard-response","141","141441","0.0-6.0-2.19","508","","","","","rectangles no change","null","null","","","critical","t","c","d","164","240","240","164","162.6685","237.1485","spektor","0.02","h","164","240","240","164","162.6685","237.1485","39360","39360","38576.5967","td","null","null","null","null","null","null","[1,3]","498.5766456756494","153.8254857646691","460.4624657526918"
"","canvas-keyboard-response","142","142777","0.0-6.0-3.19","508","","","","","rectangles with change","null","null","","","critical","t","c","d","164","240","240","164","162.6685","237.1485","spektor","0.02","h","164","240","240","164","162.6685","237.1485","39360","39360","38576.5967","td","null","null","null","null","null","null","[1,3]","498.5766456756494","153.8254857646691","460.4624657526918"
"","canvas-keyboard-response","143","142798","0.0-6.0-4.19","508","","","","","clear_screen","null","null","","","critical","t","c","d","164","240","240","164","162.6685","237.1485","spektor","0.02","h","164","240","240","164","162.6685","237.1485","39360","39360","38576.5967","td","null","null","null","null","null","null","[1,3]","498.5766456756494","153.8254857646691","460.4624657526918"
"","canvas-keyboard-response","144","143627","0.0-6.0-5.19","508","","","","","make choice","819","1","","","critical","t","c","d","164","240","240","164","162.6685","237.1485","spektor","0.02","h","164","240","240","164","162.6685","237.1485","39360","39360","38576.5967","td","null","null","null","null","null","null","[1,3]","","",""
"","canvas-keyboard-response","145","143646","0.0-6.0-6.19","508","","","","","clear_screen","null","null","","","critical","t","c","d","164","240","240","164","162.6685","237.1485","spektor","0.02","h","164","240","240","164","162.6685","237.1485","39360","39360","38576.5967","td","null","null","null","null","null","null","[1,3]","","",""
"","canvas-keyboard-response","146","143848","0.0-6.0-0.20","508","","","","","pre trial waiting period","null","null","","","critical","c","d","t","240","164","164","240","164","240","spektor","0","h","164","240","240","164","164","240","39360","39360","39360","tc","null","null","null","null","null","null","[3,1]","514.081035196403","113.40999967646361","484.32874726283586"
"","canvas-keyboard-response","147","143869","0.0-6.0-1.20","508","","","","","clear_screen","null","null","","","critical","c","d","t","240","164","164","240","164","240","spektor","0","h","164","240","240","164","164","240","39360","39360","39360","tc","null","null","null","null","null","null","[3,1]","514.081035196403","113.40999967646361","484.32874726283586"
"","canvas-keyboard-response","148","144377","0.0-6.0-2.20","508","","","","","rectangles no change","null","null","","","critical","c","d","t","240","164","164","240","164","240","spektor","0","h","164","240","240","164","164","240","39360","39360","39360","tc","null","null","null","null","null","null","[3,1]","514.081035196403","113.40999967646361","484.32874726283586"
"","canvas-keyboard-response","149","145714","0.0-6.0-3.20","508","","","","","rectangles with change","null","null","","","critical","c","d","t","240","164","164","240","164","240","spektor","0","h","164","240","240","164","164","240","39360","39360","39360","tc","null","null","null","null","null","null","[3,1]","514.081035196403","113.40999967646361","484.32874726283586"
"","canvas-keyboard-response","150","145732","0.0-6.0-4.20","508","","","","","clear_screen","null","null","","","critical","c","d","t","240","164","164","240","164","240","spektor","0","h","164","240","240","164","164","240","39360","39360","39360","tc","null","null","null","null","null","null","[3,1]","514.081035196403","113.40999967646361","484.32874726283586"
"","canvas-keyboard-response","151","146043","0.0-6.0-5.20","508","","","","","make choice","303","1","","","critical","c","d","t","240","164","164","240","164","240","spektor","0","h","164","240","240","164","164","240","39360","39360","39360","tc","null","null","null","null","null","null","[3,1]","","",""
"","canvas-keyboard-response","152","146064","0.0-6.0-6.20","508","","","","","clear_screen","null","null","","","critical","c","d","t","240","164","164","240","164","240","spektor","0","h","164","240","240","164","164","240","39360","39360","39360","tc","null","null","null","null","null","null","[3,1]","","",""
"","canvas-keyboard-response","153","146265","0.0-6.0-0.21","508","","","","","pre trial waiting period","null","null","","","catch","sw","l","sh","180","200","191","259","193","153","trueblood","null","null","null","null","null","null","null","null","null","null","null","","180","200","260","200","36000","52000","[2,3]","453.0313996018936","407.67608506015574","512.2943661724105"
"","canvas-keyboard-response","154","146286","0.0-6.0-1.21","508","","","","","clear_screen","null","null","","","catch","sw","l","sh","180","200","191","259","193","153","trueblood","null","null","null","null","null","null","null","null","null","null","null","","180","200","260","200","36000","52000","[2,3]","453.0313996018936","407.67608506015574","512.2943661724105"
"","canvas-keyboard-response","155","146802","0.0-6.0-2.21","508","","","","","rectangles no change","null","null","","","catch","sw","l","sh","180","200","191","259","193","153","trueblood","null","null","null","null","null","null","null","null","null","null","null","","180","200","260","200","36000","52000","[2,3]","453.0313996018936","407.67608506015574","512.2943661724105"
"","canvas-keyboard-response","156","148137","0.0-6.0-3.21","508","","","","","rectangles with change","null","null","","","catch","sw","l","sh","180","200","191","259","193","153","trueblood","null","null","null","null","null","null","null","null","null","null","null","","180","200","260","200","36000","52000","[2,3]","453.0313996018936","407.67608506015574","512.2943661724105"
"","canvas-keyboard-response","157","148155","0.0-6.0-4.21","508","","","","","clear_screen","null","null","","","catch","sw","l","sh","180","200","191","259","193","153","trueblood","null","null","null","null","null","null","null","null","null","null","null","","180","200","260","200","36000","52000","[2,3]","453.0313996018936","407.67608506015574","512.2943661724105"
"","canvas-keyboard-response","158","148547","0.0-6.0-5.21","508","","","","","make choice","382","2","","","catch","sw","l","sh","180","200","191","259","193","153","trueblood","null","null","null","null","null","null","null","null","null","null","null","","180","200","260","200","36000","52000","[2,3]","","",""
"","canvas-keyboard-response","159","148565","0.0-6.0-6.21","508","","","","","clear_screen","null","null","","","catch","sw","l","sh","180","200","191","259","193","153","trueblood","null","null","null","null","null","null","null","null","null","null","null","","180","200","260","200","36000","52000","[2,3]","","",""
"","canvas-keyboard-response","160","148766","0.0-6.0-0.22","508","","","","","pre trial waiting period","null","null","","","critical","c","t","d","240","164","164","240","164","240","trueblood","0","h","164","240","240","164","164","240","39360","39360","39360","dc","null","null","null","null","null","null","[3,1]","498.71481882277953","438.26043921205553","420.6224668602048"
"","canvas-keyboard-response","161","148786","0.0-6.0-1.22","508","","","","","clear_screen","null","null","","","critical","c","t","d","240","164","164","240","164","240","trueblood","0","h","164","240","240","164","164","240","39360","39360","39360","dc","null","null","null","null","null","null","[3,1]","498.71481882277953","438.26043921205553","420.6224668602048"
"","canvas-keyboard-response","162","149294","0.0-6.0-2.22","508","","","","","rectangles no change","null","null","","","critical","c","t","d","240","164","164","240","164","240","trueblood","0","h","164","240","240","164","164","240","39360","39360","39360","dc","null","null","null","null","null","null","[3,1]","498.71481882277953","438.26043921205553","420.6224668602048"
"","canvas-keyboard-response","163","150628","0.0-6.0-3.22","508","","","","","rectangles with change","null","null","","","critical","c","t","d","240","164","164","240","164","240","trueblood","0","h","164","240","240","164","164","240","39360","39360","39360","dc","null","null","null","null","null","null","[3,1]","498.71481882277953","438.26043921205553","420.6224668602048"
"","canvas-keyboard-response","164","150647","0.0-6.0-4.22","508","","","","","clear_screen","null","null","","","critical","c","t","d","240","164","164","240","164","240","trueblood","0","h","164","240","240","164","164","240","39360","39360","39360","dc","null","null","null","null","null","null","[3,1]","498.71481882277953","438.26043921205553","420.6224668602048"
"","canvas-keyboard-response","165","151690","0.0-6.0-5.22","508","","","","","make choice","1037","1","","","critical","c","t","d","240","164","164","240","164","240","trueblood","0","h","164","240","240","164","164","240","39360","39360","39360","dc","null","null","null","null","null","null","[3,1]","","",""
"","canvas-keyboard-response","166","151709","0.0-6.0-6.22","508","","","","","clear_screen","null","null","","","critical","c","t","d","240","164","164","240","164","240","trueblood","0","h","164","240","240","164","164","240","39360","39360","39360","dc","null","null","null","null","null","null","[3,1]","","",""
"","canvas-keyboard-response","167","151911","0.0-6.0-0.23","508","","","","","pre trial waiting period","null","null","","","critical","t","c","d","164","240","240","164","158.0083","227.1683","spektor","0.09","h","164","240","240","164","158.0083","227.1683","39360","39360","35894.4834","td","null","null","null","null","null","null","[1,3]","503.4970889265122","170.98075602455634","499.32171122019656"
"","canvas-keyboard-response","168","151930","0.0-6.0-1.23","508","","","","","clear_screen","null","null","","","critical","t","c","d","164","240","240","164","158.0083","227.1683","spektor","0.09","h","164","240","240","164","158.0083","227.1683","39360","39360","35894.4834","td","null","null","null","null","null","null","[1,3]","503.4970889265122","170.98075602455634","499.32171122019656"
"","canvas-keyboard-response","169","152441","0.0-6.0-2.23","508","","","","","rectangles no change","null","null","","","critical","t","c","d","164","240","240","164","158.0083","227.1683","spektor","0.09","h","164","240","240","164","158.0083","227.1683","39360","39360","35894.4834","td","null","null","null","null","null","null","[1,3]","503.4970889265122","170.98075602455634","499.32171122019656"
"","canvas-keyboard-response","170","153776","0.0-6.0-3.23","508","","","","","rectangles with change","null","null","","","critical","t","c","d","164","240","240","164","158.0083","227.1683","spektor","0.09","h","164","240","240","164","158.0083","227.1683","39360","39360","35894.4834","td","null","null","null","null","null","null","[1,3]","503.4970889265122","170.98075602455634","499.32171122019656"
"","canvas-keyboard-response","171","153793","0.0-6.0-4.23","508","","","","","clear_screen","null","null","","","critical","t","c","d","164","240","240","164","158.0083","227.1683","spektor","0.09","h","164","240","240","164","158.0083","227.1683","39360","39360","35894.4834","td","null","null","null","null","null","null","[1,3]","503.4970889265122","170.98075602455634","499.32171122019656"
"","canvas-keyboard-response","172","155123","0.0-6.0-5.23","508","","","","","make choice","1321","1","","","critical","t","c","d","164","240","240","164","158.0083","227.1683","spektor","0.09","h","164","240","240","164","158.0083","227.1683","39360","39360","35894.4834","td","null","null","null","null","null","null","[1,3]","","",""
"","canvas-keyboard-response","173","155141","0.0-6.0-6.23","508","","","","","clear_screen","null","null","","","critical","t","c","d","164","240","240","164","158.0083","227.1683","spektor","0.09","h","164","240","240","164","158.0083","227.1683","39360","39360","35894.4834","td","null","null","null","null","null","null","[1,3]","","",""
"","canvas-keyboard-response","174","155342","0.0-6.0-0.24","508","","","","","pre trial waiting period","null","null","","","critical","c","t","d","240","164","164","240","158.0083","227.1683","spektor","0.09","h","164","240","240","164","158.0083","227.1683","39360","39360","35894.4834","dc","null","null","null","null","null","null","[3,1]","505.87369354429114","108.35108334470591","467.3907988926321"
"","canvas-keyboard-response","175","155359","0.0-6.0-1.24","508","","","","","clear_screen","null","null","","","critical","c","t","d","240","164","164","240","158.0083","227.1683","spektor","0.09","h","164","240","240","164","158.0083","227.1683","39360","39360","35894.4834","dc","null","null","null","null","null","null","[3,1]","505.87369354429114","108.35108334470591","467.3907988926321"
"","canvas-keyboard-response","176","155872","0.0-6.0-2.24","508","","","","","rectangles no change","null","null","","","critical","c","t","d","240","164","164","240","158.0083","227.1683","spektor","0.09","h","164","240","240","164","158.0083","227.1683","39360","39360","35894.4834","dc","null","null","null","null","null","null","[3,1]","505.87369354429114","108.35108334470591","467.3907988926321"
"","canvas-keyboard-response","177","157209","0.0-6.0-3.24","508","","","","","rectangles with change","null","null","","","critical","c","t","d","240","164","164","240","158.0083","227.1683","spektor","0.09","h","164","240","240","164","158.0083","227.1683","39360","39360","35894.4834","dc","null","null","null","null","null","null","[3,1]","505.87369354429114","108.35108334470591","467.3907988926321"
"","canvas-keyboard-response","178","157228","0.0-6.0-4.24","508","","","","","clear_screen","null","null","","","critical","c","t","d","240","164","164","240","158.0083","227.1683","spektor","0.09","h","164","240","240","164","158.0083","227.1683","39360","39360","35894.4834","dc","null","null","null","null","null","null","[3,1]","505.87369354429114","108.35108334470591","467.3907988926321"
"","canvas-keyboard-response","179","157723","0.0-6.0-5.24","508","","","","","make choice","483","1","","","critical","c","t","d","240","164","164","240","158.0083","227.1683","spektor","0.09","h","164","240","240","164","158.0083","227.1683","39360","39360","35894.4834","dc","null","null","null","null","null","null","[3,1]","","",""
"","canvas-keyboard-response","180","157740","0.0-6.0-6.24","508","","","","","clear_screen","null","null","","","critical","c","t","d","240","164","164","240","158.0083","227.1683","spektor","0.09","h","164","240","240","164","158.0083","227.1683","39360","39360","35894.4834","dc","null","null","null","null","null","null","[3,1]","","",""
"","canvas-keyboard-response","181","157941","0.0-6.0-0.25","508","","","","","pre trial waiting period","null","null","","","critical","c","d","t","164","240","227.1683","158.0083","240","164","spektor","0.09","w","240","164","164","240","227.1683","158.0083","39360","39360","35894.4834","td","null","null","null","null","null","null","[3,2]","465.47783741778994","208.04523379949302","530.828454014041"
"","canvas-keyboard-response","182","157960","0.0-6.0-1.25","508","","","","","clear_screen","null","null","","","critical","c","d","t","164","240","227.1683","158.0083","240","164","spektor","0.09","w","240","164","164","240","227.1683","158.0083","39360","39360","35894.4834","td","null","null","null","null","null","null","[3,2]","465.47783741778994","208.04523379949302","530.828454014041"
"","canvas-keyboard-response","183","158473","0.0-6.0-2.25","508","","","","","rectangles no change","null","null","","","critical","c","d","t","164","240","227.1683","158.0083","240","164","spektor","0.09","w","240","164","164","240","227.1683","158.0083","39360","39360","35894.4834","td","null","null","null","null","null","null","[3,2]","465.47783741778994","208.04523379949302","530.828454014041"
"","canvas-keyboard-response","184","159807","0.0-6.0-3.25","508","","","","","rectangles with change","null","null","","","critical","c","d","t","164","240","227.1683","158.0083","240","164","spektor","0.09","w","240","164","164","240","227.1683","158.0083","39360","39360","35894.4834","td","null","null","null","null","null","null","[3,2]","465.47783741778994","208.04523379949302","530.828454014041"
"","canvas-keyboard-response","185","159825","0.0-6.0-4.25","508","","","","","clear_screen","null","null","","","critical","c","d","t","164","240","227.1683","158.0083","240","164","spektor","0.09","w","240","164","164","240","227.1683","158.0083","39360","39360","35894.4834","td","null","null","null","null","null","null","[3,2]","465.47783741778994","208.04523379949302","530.828454014041"
"","canvas-keyboard-response","186","161163","0.0-6.0-5.25","508","","","","","make choice","1331","3","","","critical","c","d","t","164","240","227.1683","158.0083","240","164","spektor","0.09","w","240","164","164","240","227.1683","158.0083","39360","39360","35894.4834","td","null","null","null","null","null","null","[3,2]","","",""
"","canvas-keyboard-response","187","161180","0.0-6.0-6.25","508","","","","","clear_screen","null","null","","","critical","c","d","t","164","240","227.1683","158.0083","240","164","spektor","0.09","w","240","164","164","240","227.1683","158.0083","39360","39360","35894.4834","td","null","null","null","null","null","null","[3,2]","","",""
"","canvas-keyboard-response","188","161382","0.0-6.0-0.26","508","","","","","pre trial waiting period","null","null","","","catch","sw","l","sh","180","200","254","194","183","159","trueblood","null","null","null","null","null","null","null","null","null","null","null","","180","200","260","200","36000","52000","[1,2]","454.28139630807595","460.0883270176146","490.1086020303114"
"","canvas-keyboard-response","189","161400","0.0-6.0-1.26","508","","","","","clear_screen","null","null","","","catch","sw","l","sh","180","200","254","194","183","159","trueblood","null","null","null","null","null","null","null","null","null","null","null","","180","200","260","200","36000","52000","[1,2]","454.28139630807595","460.0883270176146","490.1086020303114"
"","canvas-keyboard-response","190","161909","0.0-6.0-2.26","508","","","","","rectangles no change","null","null","","","catch","sw","l","sh","180","200","254","194","183","159","trueblood","null","null","null","null","null","null","null","null","null","null","null","","180","200","260","200","36000","52000","[1,2]","454.28139630807595","460.0883270176146","490.1086020303114"
"","canvas-keyboard-response","191","163244","0.0-6.0-3.26","508","","","","","rectangles with change","null","null","","","catch","sw","l","sh","180","200","254","194","183","159","trueblood","null","null","null","null","null","null","null","null","null","null","null","","180","200","260","200","36000","52000","[1,2]","454.28139630807595","460.0883270176146","490.1086020303114"
"","canvas-keyboard-response","192","163262","0.0-6.0-4.26","508","","","","","clear_screen","null","null","","","catch","sw","l","sh","180","200","254","194","183","159","trueblood","null","null","null","null","null","null","null","null","null","null","null","","180","200","260","200","36000","52000","[1,2]","454.28139630807595","460.0883270176146","490.1086020303114"
"","canvas-keyboard-response","193","164187","0.0-6.0-5.26","508","","","","","make choice","917","2","","","catch","sw","l","sh","180","200","254","194","183","159","trueblood","null","null","null","null","null","null","null","null","null","null","null","","180","200","260","200","36000","52000","[1,2]","","",""
"","canvas-keyboard-response","194","164206","0.0-6.0-6.26","508","","","","","clear_screen","null","null","","","catch","sw","l","sh","180","200","254","194","183","159","trueblood","null","null","null","null","null","null","null","null","null","null","null","","180","200","260","200","36000","52000","[1,2]","","",""
"","canvas-keyboard-response","195","164408","0.0-6.0-0.27","508","","","","","pre trial waiting period","null","null","","","critical","t","c","d","240","164","164","240","237.1485","162.6685","trueblood","0.02","w","240","164","164","240","237.1485","162.6685","39360","39360","38576.5967","dc","null","null","null","null","null","null","[3,2]","470.28226802918886","467.8356359280462","480.5897249964459"
"","canvas-keyboard-response","196","164426","0.0-6.0-1.27","508","","","","","clear_screen","null","null","","","critical","t","c","d","240","164","164","240","237.1485","162.6685","trueblood","0.02","w","240","164","164","240","237.1485","162.6685","39360","39360","38576.5967","dc","null","null","null","null","null","null","[3,2]","470.28226802918886","467.8356359280462","480.5897249964459"
"","canvas-keyboard-response","197","164938","0.0-6.0-2.27","508","","","","","rectangles no change","null","null","","","critical","t","c","d","240","164","164","240","237.1485","162.6685","trueblood","0.02","w","240","164","164","240","237.1485","162.6685","39360","39360","38576.5967","dc","null","null","null","null","null","null","[3,2]","470.28226802918886","467.8356359280462","480.5897249964459"
"","canvas-keyboard-response","198","166273","0.0-6.0-3.27","508","","","","","rectangles with change","null","null","","","critical","t","c","d","240","164","164","240","237.1485","162.6685","trueblood","0.02","w","240","164","164","240","237.1485","162.6685","39360","39360","38576.5967","dc","null","null","null","null","null","null","[3,2]","470.28226802918886","467.8356359280462","480.5897249964459"
"","canvas-keyboard-response","199","166290","0.0-6.0-4.27","508","","","","","clear_screen","null","null","","","critical","t","c","d","240","164","164","240","237.1485","162.6685","trueblood","0.02","w","240","164","164","240","237.1485","162.6685","39360","39360","38576.5967","dc","null","null","null","null","null","null","[3,2]","470.28226802918886","467.8356359280462","480.5897249964459"
"","canvas-keyboard-response","200","167411","0.0-6.0-5.27","508","","","","","make choice","1114","3","","","critical","t","c","d","240","164","164","240","237.1485","162.6685","trueblood","0.02","w","240","164","164","240","237.1485","162.6685","39360","39360","38576.5967","dc","null","null","null","null","null","null","[3,2]","","",""
"","canvas-keyboard-response","201","167429","0.0-6.0-6.27","508","","","","","clear_screen","null","null","","","critical","t","c","d","240","164","164","240","237.1485","162.6685","trueblood","0.02","w","240","164","164","240","237.1485","162.6685","39360","39360","38576.5967","dc","null","null","null","null","null","null","[3,2]","","",""
"","canvas-keyboard-response","202","167631","0.0-6.0-0.28","508","","","","","pre trial waiting period","null","null","","","critical","c","d","t","164","240","240","164","240","164","trueblood","0","w","240","164","164","240","240","164","39360","39360","39360","tc","null","null","null","null","null","null","[3,1]","421.5850717942683","481.67561780581826","499.90882578834055"
"","canvas-keyboard-response","203","167653","0.0-6.0-1.28","508","","","","","clear_screen","null","null","","","critical","c","d","t","164","240","240","164","240","164","trueblood","0","w","240","164","164","240","240","164","39360","39360","39360","tc","null","null","null","null","null","null","[3,1]","421.5850717942683","481.67561780581826","499.90882578834055"
"","canvas-keyboard-response","204","168164","0.0-6.0-2.28","508","","","","","rectangles no change","null","null","","","critical","c","d","t","164","240","240","164","240","164","trueblood","0","w","240","164","164","240","240","164","39360","39360","39360","tc","null","null","null","null","null","null","[3,1]","421.5850717942683","481.67561780581826","499.90882578834055"
"","canvas-keyboard-response","205","169498","0.0-6.0-3.28","508","","","","","rectangles with change","null","null","","","critical","c","d","t","164","240","240","164","240","164","trueblood","0","w","240","164","164","240","240","164","39360","39360","39360","tc","null","null","null","null","null","null","[3,1]","421.5850717942683","481.67561780581826","499.90882578834055"
"","canvas-keyboard-response","206","169515","0.0-6.0-4.28","508","","","","","clear_screen","null","null","","","critical","c","d","t","164","240","240","164","240","164","trueblood","0","w","240","164","164","240","240","164","39360","39360","39360","tc","null","null","null","null","null","null","[3,1]","421.5850717942683","481.67561780581826","499.90882578834055"
"","canvas-keyboard-response","207","171059","0.0-6.0-5.28","508","","","","","make choice","1537","3","","","critical","c","d","t","164","240","240","164","240","164","trueblood","0","w","240","164","164","240","240","164","39360","39360","39360","tc","null","null","null","null","null","null","[3,1]","","",""
"","canvas-keyboard-response","208","171077","0.0-6.0-6.28","508","","","","","clear_screen","null","null","","","critical","c","d","t","164","240","240","164","240","164","trueblood","0","w","240","164","164","240","240","164","39360","39360","39360","tc","null","null","null","null","null","null","[3,1]","","",""
"","canvas-keyboard-response","209","171277","0.0-6.0-0.29","508","","","","","pre trial waiting period","null","null","","","critical","t","d","c","240","164","232.8713","160.6713","164","240","trueblood","0.05","w","240","164","164","240","232.8713","160.6713","39360","39360","37415.7294","tc","null","null","null","null","null","null","[1,3]","498.5304220602596","511.6332681918285","424.86345559577904"
"","canvas-keyboard-response","210","171296","0.0-6.0-1.29","508","","","","","clear_screen","null","null","","","critical","t","d","c","240","164","232.8713","160.6713","164","240","trueblood","0.05","w","240","164","164","240","232.8713","160.6713","39360","39360","37415.7294","tc","null","null","null","null","null","null","[1,3]","498.5304220602596","511.6332681918285","424.86345559577904"
"","canvas-keyboard-response","211","171805","0.0-6.0-2.29","508","","","","","rectangles no change","null","null","","","critical","t","d","c","240","164","232.8713","160.6713","164","240","trueblood","0.05","w","240","164","164","240","232.8713","160.6713","39360","39360","37415.7294","tc","null","null","null","null","null","null","[1,3]","498.5304220602596","511.6332681918285","424.86345559577904"
"","canvas-keyboard-response","212","173140","0.0-6.0-3.29","508","","","","","rectangles with change","null","null","","","critical","t","d","c","240","164","232.8713","160.6713","164","240","trueblood","0.05","w","240","164","164","240","232.8713","160.6713","39360","39360","37415.7294","tc","null","null","null","null","null","null","[1,3]","498.5304220602596","511.6332681918285","424.86345559577904"
"","canvas-keyboard-response","213","173158","0.0-6.0-4.29","508","","","","","clear_screen","null","null","","","critical","t","d","c","240","164","232.8713","160.6713","164","240","trueblood","0.05","w","240","164","164","240","232.8713","160.6713","39360","39360","37415.7294","tc","null","null","null","null","null","null","[1,3]","498.5304220602596","511.6332681918285","424.86345559577904"
"","canvas-keyboard-response","214","174194","0.0-6.0-5.29","508","","","","","make choice","1029","1","","","critical","t","d","c","240","164","232.8713","160.6713","164","240","trueblood","0.05","w","240","164","164","240","232.8713","160.6713","39360","39360","37415.7294","tc","null","null","null","null","null","null","[1,3]","","",""
"","canvas-keyboard-response","215","174216","0.0-6.0-6.29","508","","","","","clear_screen","null","null","","","critical","t","d","c","240","164","232.8713","160.6713","164","240","trueblood","0.05","w","240","164","164","240","232.8713","160.6713","39360","39360","37415.7294","tc","null","null","null","null","null","null","[1,3]","","",""
"","canvas-keyboard-response","216","174417","0.0-6.0-0.30","508","","","","","pre trial waiting period","null","null","","","critical","c","t","d","164","240","240","164","240","164","trueblood","0","w","240","164","164","240","240","164","39360","39360","39360","td","null","null","null","null","null","null","[2,3]","445.6603506291214","487.7787591658492","477.3266385149374"
"","canvas-keyboard-response","217","174436","0.0-6.0-1.30","508","","","","","clear_screen","null","null","","","critical","c","t","d","164","240","240","164","240","164","trueblood","0","w","240","164","164","240","240","164","39360","39360","39360","td","null","null","null","null","null","null","[2,3]","445.6603506291214","487.7787591658492","477.3266385149374"
"","canvas-keyboard-response","218","174944","0.0-6.0-2.30","508","","","","","rectangles no change","null","null","","","critical","c","t","d","164","240","240","164","240","164","trueblood","0","w","240","164","164","240","240","164","39360","39360","39360","td","null","null","null","null","null","null","[2,3]","445.6603506291214","487.7787591658492","477.3266385149374"
"","canvas-keyboard-response","219","176278","0.0-6.0-3.30","508","","","","","rectangles with change","null","null","","","critical","c","t","d","164","240","240","164","240","164","trueblood","0","w","240","164","164","240","240","164","39360","39360","39360","td","null","null","null","null","null","null","[2,3]","445.6603506291214","487.7787591658492","477.3266385149374"
"","canvas-keyboard-response","220","176296","0.0-6.0-4.30","508","","","","","clear_screen","null","null","","","critical","c","t","d","164","240","240","164","240","164","trueblood","0","w","240","164","164","240","240","164","39360","39360","39360","td","null","null","null","null","null","null","[2,3]","445.6603506291214","487.7787591658492","477.3266385149374"
"","canvas-keyboard-response","221","177083","0.0-6.0-5.30","508","","","","","make choice","780","2","","","critical","c","t","d","164","240","240","164","240","164","trueblood","0","w","240","164","164","240","240","164","39360","39360","39360","td","null","null","null","null","null","null","[2,3]","","",""
"","canvas-keyboard-response","222","177100","0.0-6.0-6.30","508","","","","","clear_screen","null","null","","","critical","c","t","d","164","240","240","164","240","164","trueblood","0","w","240","164","164","240","240","164","39360","39360","39360","td","null","null","null","null","null","null","[2,3]","","",""
"","canvas-keyboard-response","223","177301","0.0-6.0-0.31","508","","","","","pre trial waiting period","null","null","","","catch","l","sw","sh","177","297","155","206","202","187","trueblood","null","null","null","null","null","null","null","null","null","null","null","","180","200","260","200","36000","52000","[1,2]","413.9002090635598","460.49056104360506","473.1842151095426"
"","canvas-keyboard-response","224","177319","0.0-6.0-1.31","508","","","","","clear_screen","null","null","","","catch","l","sw","sh","177","297","155","206","202","187","trueblood","null","null","null","null","null","null","null","null","null","null","null","","180","200","260","200","36000","52000","[1,2]","413.9002090635598","460.49056104360506","473.1842151095426"
"","canvas-keyboard-response","225","177828","0.0-6.0-2.31","508","","","","","rectangles no change","null","null","","","catch","l","sw","sh","177","297","155","206","202","187","trueblood","null","null","null","null","null","null","null","null","null","null","null","","180","200","260","200","36000","52000","[1,2]","413.9002090635598","460.49056104360506","473.1842151095426"
"","canvas-keyboard-response","226","179162","0.0-6.0-3.31","508","","","","","rectangles with change","null","null","","","catch","l","sw","sh","177","297","155","206","202","187","trueblood","null","null","null","null","null","null","null","null","null","null","null","","180","200","260","200","36000","52000","[1,2]","413.9002090635598","460.49056104360506","473.1842151095426"
"","canvas-keyboard-response","227","179180","0.0-6.0-4.31","508","","","","","clear_screen","null","null","","","catch","l","sw","sh","177","297","155","206","202","187","trueblood","null","null","null","null","null","null","null","null","null","null","null","","180","200","260","200","36000","52000","[1,2]","413.9002090635598","460.49056104360506","473.1842151095426"
"","canvas-keyboard-response","228","179483","0.0-6.0-5.31","508","","","","","make choice","296","1","","","catch","l","sw","sh","177","297","155","206","202","187","trueblood","null","null","null","null","null","null","null","null","null","null","null","","180","200","260","200","36000","52000","[1,2]","","",""
"","canvas-keyboard-response","229","179504","0.0-6.0-6.31","508","","","","","clear_screen","null","null","","","catch","l","sw","sh","177","297","155","206","202","187","trueblood","null","null","null","null","null","null","null","null","null","null","null","","180","200","260","200","36000","52000","[1,2]","","",""
"","canvas-keyboard-response","230","179707","0.0-6.0-0.32","508","","","","","pre trial waiting period","null","null","","","critical","d","t","c","154.6796","220.0396","164","240","240","164","trueblood","0.14","h","164","240","240","164","154.6796","220.0396","39360","39360","34035.6388","td","null","null","null","null","null","null","[2,1]","455.8661795033386","419.0160802100816","512.32527232285"
"","canvas-keyboard-response","231","179728","0.0-6.0-1.32","508","","","","","clear_screen","null","null","","","critical","d","t","c","154.6796","220.0396","164","240","240","164","trueblood","0.14","h","164","240","240","164","154.6796","220.0396","39360","39360","34035.6388","td","null","null","null","null","null","null","[2,1]","455.8661795033386","419.0160802100816","512.32527232285"
"","canvas-keyboard-response","232","180240","0.0-6.0-2.32","508","","","","","rectangles no change","null","null","","","critical","d","t","c","154.6796","220.0396","164","240","240","164","trueblood","0.14","h","164","240","240","164","154.6796","220.0396","39360","39360","34035.6388","td","null","null","null","null","null","null","[2,1]","455.8661795033386","419.0160802100816","512.32527232285"
"","canvas-keyboard-response","233","181574","0.0-6.0-3.32","508","","","","","rectangles with change","null","null","","","critical","d","t","c","154.6796","220.0396","164","240","240","164","trueblood","0.14","h","164","240","240","164","154.6796","220.0396","39360","39360","34035.6388","td","null","null","null","null","null","null","[2,1]","455.8661795033386","419.0160802100816","512.32527232285"
"","canvas-keyboard-response","234","181593","0.0-6.0-4.32","508","","","","","clear_screen","null","null","","","critical","d","t","c","154.6796","220.0396","164","240","240","164","trueblood","0.14","h","164","240","240","164","154.6796","220.0396","39360","39360","34035.6388","td","null","null","null","null","null","null","[2,1]","455.8661795033386","419.0160802100816","512.32527232285"
"","canvas-keyboard-response","235","183187","0.0-6.0-5.32","508","","","","","make choice","1585","2","","","critical","d","t","c","154.6796","220.0396","164","240","240","164","trueblood","0.14","h","164","240","240","164","154.6796","220.0396","39360","39360","34035.6388","td","null","null","null","null","null","null","[2,1]","","",""
"","canvas-keyboard-response","236","183206","0.0-6.0-6.32","508","","","","","clear_screen","null","null","","","critical","d","t","c","154.6796","220.0396","164","240","240","164","trueblood","0.14","h","164","240","240","164","154.6796","220.0396","39360","39360","34035.6388","td","null","null","null","null","null","null","[2,1]","","",""
"","canvas-keyboard-response","237","183407","0.0-6.0-0.33","508","","","","","pre trial waiting period","null","null","","","critical","t","c","d","164","240","240","164","160.6713","232.8713","trueblood","0.05","h","164","240","240","164","160.6713","232.8713","39360","39360","37415.7294","tc","null","null","null","null","null","null","[1,2]","436.424506616145","475.04304095841087","437.5374779897214"
"","canvas-keyboard-response","238","183427","0.0-6.0-1.33","508","","","","","clear_screen","null","null","","","critical","t","c","d","164","240","240","164","160.6713","232.8713","trueblood","0.05","h","164","240","240","164","160.6713","232.8713","39360","39360","37415.7294","tc","null","null","null","null","null","null","[1,2]","436.424506616145","475.04304095841087","437.5374779897214"
"","canvas-keyboard-response","239","183939","0.0-6.0-2.33","508","","","","","rectangles no change","null","null","","","critical","t","c","d","164","240","240","164","160.6713","232.8713","trueblood","0.05","h","164","240","240","164","160.6713","232.8713","39360","39360","37415.7294","tc","null","null","null","null","null","null","[1,2]","436.424506616145","475.04304095841087","437.5374779897214"
"","canvas-keyboard-response","240","185276","0.0-6.0-3.33","508","","","","","rectangles with change","null","null","","","critical","t","c","d","164","240","240","164","160.6713","232.8713","trueblood","0.05","h","164","240","240","164","160.6713","232.8713","39360","39360","37415.7294","tc","null","null","null","null","null","null","[1,2]","436.424506616145","475.04304095841087","437.5374779897214"
"","canvas-keyboard-response","241","185297","0.0-6.0-4.33","508","","","","","clear_screen","null","null","","","critical","t","c","d","164","240","240","164","160.6713","232.8713","trueblood","0.05","h","164","240","240","164","160.6713","232.8713","39360","39360","37415.7294","tc","null","null","null","null","null","null","[1,2]","436.424506616145","475.04304095841087","437.5374779897214"
"","canvas-keyboard-response","242","186867","0.0-6.0-5.33","508","","","","","make choice","1559","2","","","critical","t","c","d","164","240","240","164","160.6713","232.8713","trueblood","0.05","h","164","240","240","164","160.6713","232.8713","39360","39360","37415.7294","tc","null","null","null","null","null","null","[1,2]","","",""
"","canvas-keyboard-response","243","186884","0.0-6.0-6.33","508","","","","","clear_screen","null","null","","","critical","t","c","d","164","240","240","164","160.6713","232.8713","trueblood","0.05","h","164","240","240","164","160.6713","232.8713","39360","39360","37415.7294","tc","null","null","null","null","null","null","[1,2]","","",""
"","canvas-keyboard-response","244","187086","0.0-6.0-0.34","508","","","","","pre trial waiting period","null","null","","","catch","sh","sw","l","229","181","152","164","193","236","spektor","null","null","null","null","null","null","null","null","null","null","null","","180","200","260","200","36000","52000","[2,3]","533.9259158919347","174.72797603493626","481.34700033520085"
"","canvas-keyboard-response","245","187106","0.0-6.0-1.34","508","","","","","clear_screen","null","null","","","catch","sh","sw","l","229","181","152","164","193","236","spektor","null","null","null","null","null","null","null","null","null","null","null","","180","200","260","200","36000","52000","[2,3]","533.9259158919347","174.72797603493626","481.34700033520085"
"","canvas-keyboard-response","246","187616","0.0-6.0-2.34","508","","","","","rectangles no change","null","null","","","catch","sh","sw","l","229","181","152","164","193","236","spektor","null","null","null","null","null","null","null","null","null","null","null","","180","200","260","200","36000","52000","[2,3]","533.9259158919347","174.72797603493626","481.34700033520085"
"","canvas-keyboard-response","247","188952","0.0-6.0-3.34","508","","","","","rectangles with change","null","null","","","catch","sh","sw","l","229","181","152","164","193","236","spektor","null","null","null","null","null","null","null","null","null","null","null","","180","200","260","200","36000","52000","[2,3]","533.9259158919347","174.72797603493626","481.34700033520085"
"","canvas-keyboard-response","248","188971","0.0-6.0-4.34","508","","","","","clear_screen","null","null","","","catch","sh","sw","l","229","181","152","164","193","236","spektor","null","null","null","null","null","null","null","null","null","null","null","","180","200","260","200","36000","52000","[2,3]","533.9259158919347","174.72797603493626","481.34700033520085"
"","canvas-keyboard-response","249","190163","0.0-6.0-5.34","508","","","","","make choice","1183","2","","","catch","sh","sw","l","229","181","152","164","193","236","spektor","null","null","null","null","null","null","null","null","null","null","null","","180","200","260","200","36000","52000","[2,3]","","",""
"","canvas-keyboard-response","250","190181","0.0-6.0-6.34","508","","","","","clear_screen","null","null","","","catch","sh","sw","l","229","181","152","164","193","236","spektor","null","null","null","null","null","null","null","null","null","null","null","","180","200","260","200","36000","52000","[2,3]","","",""
"","canvas-keyboard-response","251","190383","0.0-6.0-0.35","508","","","","","pre trial waiting period","null","null","","","critical","c","d","t","164","240","240","164","240","164","spektor","0","w","240","164","164","240","240","164","39360","39360","39360","tc","null","null","null","null","null","null","[3,1]","499.62802972131857","184.12407637267054","505.44881301675355"
"","canvas-keyboard-response","252","190403","0.0-6.0-1.35","508","","","","","clear_screen","null","null","","","critical","c","d","t","164","240","240","164","240","164","spektor","0","w","240","164","164","240","240","164","39360","39360","39360","tc","null","null","null","null","null","null","[3,1]","499.62802972131857","184.12407637267054","505.44881301675355"
"","canvas-keyboard-response","253","190914","0.0-6.0-2.35","508","","","","","rectangles no change","null","null","","","critical","c","d","t","164","240","240","164","240","164","spektor","0","w","240","164","164","240","240","164","39360","39360","39360","tc","null","null","null","null","null","null","[3,1]","499.62802972131857","184.12407637267054","505.44881301675355"
"","canvas-keyboard-response","254","192249","0.0-6.0-3.35","508","","","","","rectangles with change","null","null","","","critical","c","d","t","164","240","240","164","240","164","spektor","0","w","240","164","164","240","240","164","39360","39360","39360","tc","null","null","null","null","null","null","[3,1]","499.62802972131857","184.12407637267054","505.44881301675355"
"","canvas-keyboard-response","255","192267","0.0-6.0-4.35","508","","","","","clear_screen","null","null","","","critical","c","d","t","164","240","240","164","240","164","spektor","0","w","240","164","164","240","240","164","39360","39360","39360","tc","null","null","null","null","null","null","[3,1]","499.62802972131857","184.12407637267054","505.44881301675355"
"","canvas-keyboard-response","256","193475","0.0-6.0-5.35","508","","","","","make choice","1201","1","","","critical","c","d","t","164","240","240","164","240","164","spektor","0","w","240","164","164","240","240","164","39360","39360","39360","tc","null","null","null","null","null","null","[3,1]","","",""
"","canvas-keyboard-response","257","193492","0.0-6.0-6.35","508","","","","","clear_screen","null","null","","","critical","c","d","t","164","240","240","164","240","164","spektor","0","w","240","164","164","240","240","164","39360","39360","39360","tc","null","null","null","null","null","null","[3,1]","","",""
"","canvas-keyboard-response","258","193694","0.0-6.0-0.36","508","","","","","pre trial waiting period","null","null","","","catch","l","sh","sw","293","221","187","203","188","177","trueblood","null","null","null","null","null","null","null","null","null","null","null","","180","200","260","200","36000","52000","[1,3]","442.0679151475011","459.8412440231188","470.2335756617471"
"","canvas-keyboard-response","259","193713","0.0-6.0-1.36","508","","","","","clear_screen","null","null","","","catch","l","sh","sw","293","221","187","203","188","177","trueblood","null","null","null","null","null","null","null","null","null","null","null","","180","200","260","200","36000","52000","[1,3]","442.0679151475011","459.8412440231188","470.2335756617471"
"","canvas-keyboard-response","260","194222","0.0-6.0-2.36","508","","","","","rectangles no change","null","null","","","catch","l","sh","sw","293","221","187","203","188","177","trueblood","null","null","null","null","null","null","null","null","null","null","null","","180","200","260","200","36000","52000","[1,3]","442.0679151475011","459.8412440231188","470.2335756617471"
"","canvas-keyboard-response","261","195557","0.0-6.0-3.36","508","","","","","rectangles with change","null","null","","","catch","l","sh","sw","293","221","187","203","188","177","trueblood","null","null","null","null","null","null","null","null","null","null","null","","180","200","260","200","36000","52000","[1,3]","442.0679151475011","459.8412440231188","470.2335756617471"
"","canvas-keyboard-response","262","195576","0.0-6.0-4.36","508","","","","","clear_screen","null","null","","","catch","l","sh","sw","293","221","187","203","188","177","trueblood","null","null","null","null","null","null","null","null","null","null","null","","180","200","260","200","36000","52000","[1,3]","442.0679151475011","459.8412440231188","470.2335756617471"
"","canvas-keyboard-response","263","196346","0.0-6.0-5.36","508","","","","","make choice","765","1","","","catch","l","sh","sw","293","221","187","203","188","177","trueblood","null","null","null","null","null","null","null","null","null","null","null","","180","200","260","200","36000","52000","[1,3]","","",""
"","canvas-keyboard-response","264","196365","0.0-6.0-6.36","508","","","","","clear_screen","null","null","","","catch","l","sh","sw","293","221","187","203","188","177","trueblood","null","null","null","null","null","null","null","null","null","null","null","","180","200","260","200","36000","52000","[1,3]","","",""
"","canvas-keyboard-response","265","196566","0.0-6.0-0.37","508","","","","","pre trial waiting period","null","null","","","critical","c","d","t","164","240","220.0396","154.6796","240","164","trueblood","0.14","w","240","164","164","240","220.0396","154.6796","39360","39360","34035.6388","td","null","null","null","null","null","null","[3,2]","453.5039575144495","483.9908254531375","517.4569632679793"
"","canvas-keyboard-response","266","196585","0.0-6.0-1.37","508","","","","","clear_screen","null","null","","","critical","c","d","t","164","240","220.0396","154.6796","240","164","trueblood","0.14","w","240","164","164","240","220.0396","154.6796","39360","39360","34035.6388","td","null","null","null","null","null","null","[3,2]","453.5039575144495","483.9908254531375","517.4569632679793"
"","canvas-keyboard-response","267","197097","0.0-6.0-2.37","508","","","","","rectangles no change","null","null","","","critical","c","d","t","164","240","220.0396","154.6796","240","164","trueblood","0.14","w","240","164","164","240","220.0396","154.6796","39360","39360","34035.6388","td","null","null","null","null","null","null","[3,2]","453.5039575144495","483.9908254531375","517.4569632679793"
