"success","trial_type","trial_index","time_elapsed","internal_node_id","sub_n","timeout","failed_images","failed_audio","failed_video","screen_id","rt","response","stimulus","view_history","trial","r1","r2","r3","w1","h1","w2","h2","w3","h3","display","tdd","tdo","tw","th","cw","ch","dw","dh","ta","ca","da","probe","csls","csss","clls","clss","sa","la","probe_rects","r1yloc","r2yloc","r3yloc"
"true","fullscreen","0","2579","0.0-0.0","556","","","","","","","","","","","","","","","","","","","","","","","","","","","","","","","","","","","","","","","","","",""
"true","preload","1","2599","0.0-1.0","556","false","[]","[]","[]","img preload","","","","","","","","","","","","","","","","","","","","","","","","","","","","","","","","","","","","",""
"","survey-html-form","2","6935","0.0-2.0","556","","","","","enter-sub-number","4330","{""response"":""556""}","","","","","","","","","","","","","","","","","","","","","","","","","","","","","","","","","","",""
"","image-button-response","3","36699","0.0-3.0","556","","","","","","29697","0","consent.png","","","","","","","","","","","","","","","","","","","","","","","","","","","","","","","","","",""
"","html-button-response","4","45963","0.0-4.0","556","","","","","intro mssg","9257","0","<div style= ""font-size:25px;"" <p> <strong> Welcome! </strong><br> <p style=""color:#8B0000; font-size:25px;""><strong> Please do NOT exit full screen until you are done with the experiment. </strong> </p><p style=""font-size:25px;color:#8B0000;""> <strong> Your data will be lost <br> if you try to go back or refresh the page after the experiment starts. Feel free to click ""previous"" during the instructions, however.</strong> </p><br><p> <strong> Thanks in advance for your contribution to our research! </strong></p>","","","","","","","","","","","","","","","","","","","","","","","","","","","","","","","","","",""
"","instructions","5","98291","0.0-5.0","556","","","","","instructions","52322","","","[{""page_index"":0,""viewing_time"":8273},{""page_index"":1,""viewing_time"":8784},{""page_index"":2,""viewing_time"":2328},{""page_index"":3,""viewing_time"":17032},{""page_index"":4,""viewing_time"":8200},{""page_index"":5,""viewing_time"":3849},{""page_index"":6,""viewing_time"":2462},{""page_index"":7,""viewing_time"":1394}]","","","","","","","","","","","","","","","","","","","","","","","","","","","","","","","","",""
"","canvas-keyboard-response","6","98499","0.0-6.0-0.0","556","","","","","pre trial waiting period","null","null","","","catch","sw","l","sh","180","200","284","227","199","154","spektor","null","null","null","null","null","null","null","null","null","null","null","","180","200","260","200","36000","52000","[1,2]","522.6443761939361","141.16456848646413","546.7896790485277"
"","canvas-keyboard-response","7","98522","0.0-6.0-1.0","556","","","","","clear_screen","null","null","","","catch","sw","l","sh","180","200","284","227","199","154","spektor","null","null","null","null","null","null","null","null","null","null","null","","180","200","260","200","36000","52000","[1,2]","522.6443761939361","141.16456848646413","546.7896790485277"
"","canvas-keyboard-response","8","99031","0.0-6.0-2.0","556","","","","","rectangles no change","null","null","","","catch","sw","l","sh","180","200","284","227","199","154","spektor","null","null","null","null","null","null","null","null","null","null","null","","180","200","260","200","36000","52000","[1,2]","522.6443761939361","141.16456848646413","546.7896790485277"
"","canvas-keyboard-response","9","100369","0.0-6.0-3.0","556","","","","","rectangles with change","null","null","","","catch","sw","l","sh","180","200","284","227","199","154","spektor","null","null","null","null","null","null","null","null","null","null","null","","180","200","260","200","36000","52000","[1,2]","522.6443761939361","141.16456848646413","546.7896790485277"
"","canvas-keyboard-response","10","100391","0.0-6.0-4.0","556","","","","","clear_screen","null","null","","","catch","sw","l","sh","180","200","284","227","199","154","spektor","null","null","null","null","null","null","null","null","null","null","null","","180","200","260","200","36000","52000","[1,2]","522.6443761939361","141.16456848646413","546.7896790485277"
"","canvas-keyboard-response","11","102674","0.0-6.0-5.0","556","","","","","make choice","2276","2","","","catch","sw","l","sh","180","200","284","227","199","154","spektor","null","null","null","null","null","null","null","null","null","null","null","","180","200","260","200","36000","52000","[1,2]","","",""
"","canvas-keyboard-response","12","102693","0.0-6.0-6.0","556","","","","","clear_screen","null","null","","","catch","sw","l","sh","180","200","284","227","199","154","spektor","null","null","null","null","null","null","null","null","null","null","null","","180","200","260","200","36000","52000","[1,2]","","",""
"","canvas-keyboard-response","13","102895","0.0-6.0-0.1","556","","","","","pre trial waiting period","null","null","","","critical","d","c","t","220.0396","154.6796","164","240","240","164","trueblood","0.14","w","240","164","164","240","220.0396","154.6796","39360","39360","34035.6388","dc","null","null","null","null","null","null","[1,2]","500.73683954307035","468.13105729775214","480.89692634383124"
"","canvas-keyboard-response","14","102918","0.0-6.0-1.1","556","","","","","clear_screen","null","null","","","critical","d","c","t","220.0396","154.6796","164","240","240","164","trueblood","0.14","w","240","164","164","240","220.0396","154.6796","39360","39360","34035.6388","dc","null","null","null","null","null","null","[1,2]","500.73683954307035","468.13105729775214","480.89692634383124"
"","canvas-keyboard-response","15","103425","0.0-6.0-2.1","556","","","","","rectangles no change","null","null","","","critical","d","c","t","220.0396","154.6796","164","240","240","164","trueblood","0.14","w","240","164","164","240","220.0396","154.6796","39360","39360","34035.6388","dc","null","null","null","null","null","null","[1,2]","500.73683954307035","468.13105729775214","480.89692634383124"
"","canvas-keyboard-response","16","104765","0.0-6.0-3.1","556","","","","","rectangles with change","null","null","","","critical","d","c","t","220.0396","154.6796","164","240","240","164","trueblood","0.14","w","240","164","164","240","220.0396","154.6796","39360","39360","34035.6388","dc","null","null","null","null","null","null","[1,2]","500.73683954307035","468.13105729775214","480.89692634383124"
"","canvas-keyboard-response","17","104784","0.0-6.0-4.1","556","","","","","clear_screen","null","null","","","critical","d","c","t","220.0396","154.6796","164","240","240","164","trueblood","0.14","w","240","164","164","240","220.0396","154.6796","39360","39360","34035.6388","dc","null","null","null","null","null","null","[1,2]","500.73683954307035","468.13105729775214","480.89692634383124"
"","canvas-keyboard-response","18","106362","0.0-6.0-5.1","556","","","","","make choice","1565","2","","","critical","d","c","t","220.0396","154.6796","164","240","240","164","trueblood","0.14","w","240","164","164","240","220.0396","154.6796","39360","39360","34035.6388","dc","null","null","null","null","null","null","[1,2]","","",""
"","canvas-keyboard-response","19","106382","0.0-6.0-6.1","556","","","","","clear_screen","null","null","","","critical","d","c","t","220.0396","154.6796","164","240","240","164","trueblood","0.14","w","240","164","164","240","220.0396","154.6796","39360","39360","34035.6388","dc","null","null","null","null","null","null","[1,2]","","",""
"","canvas-keyboard-response","20","106583","0.0-6.0-0.2","556","","","","","pre trial waiting period","null","null","","","catch","l","sh","sw","229","246","180","197","175","232","spektor","null","null","null","null","null","null","null","null","null","null","null","","180","200","260","200","36000","52000","[1,2]","459.82773280422714","115.21259576661052","502.55392302497603"
"","canvas-keyboard-response","21","106605","0.0-6.0-1.2","556","","","","","clear_screen","null","null","","","catch","l","sh","sw","229","246","180","197","175","232","spektor","null","null","null","null","null","null","null","null","null","null","null","","180","200","260","200","36000","52000","[1,2]","459.82773280422714","115.21259576661052","502.55392302497603"
"","canvas-keyboard-response","22","107115","0.0-6.0-2.2","556","","","","","rectangles no change","null","null","","","catch","l","sh","sw","229","246","180","197","175","232","spektor","null","null","null","null","null","null","null","null","null","null","null","","180","200","260","200","36000","52000","[1,2]","459.82773280422714","115.21259576661052","502.55392302497603"
"","canvas-keyboard-response","23","108451","0.0-6.0-3.2","556","","","","","rectangles with change","null","null","","","catch","l","sh","sw","229","246","180","197","175","232","spektor","null","null","null","null","null","null","null","null","null","null","null","","180","200","260","200","36000","52000","[1,2]","459.82773280422714","115.21259576661052","502.55392302497603"
"","canvas-keyboard-response","24","108471","0.0-6.0-4.2","556","","","","","clear_screen","null","null","","","catch","l","sh","sw","229","246","180","197","175","232","spektor","null","null","null","null","null","null","null","null","null","null","null","","180","200","260","200","36000","52000","[1,2]","459.82773280422714","115.21259576661052","502.55392302497603"
"","canvas-keyboard-response","25","109922","0.0-6.0-5.2","556","","","","","make choice","1446","1","","","catch","l","sh","sw","229","246","180","197","175","232","spektor","null","null","null","null","null","null","null","null","null","null","null","","180","200","260","200","36000","52000","[1,2]","","",""
"","canvas-keyboard-response","26","109943","0.0-6.0-6.2","556","","","","","clear_screen","null","null","","","catch","l","sh","sw","229","246","180","197","175","232","spektor","null","null","null","null","null","null","null","null","null","null","null","","180","200","260","200","36000","52000","[1,2]","","",""
"","canvas-keyboard-response","27","110144","0.0-6.0-0.3","556","","","","","pre trial waiting period","null","null","","","catch","l","sh","sw","277","237","186","152","148","180","trueblood","null","null","null","null","null","null","null","null","null","null","null","","180","200","260","200","36000","52000","[1,3]","463.24574327385426","493.9172971894072","474.31682493343567"
"","canvas-keyboard-response","28","110167","0.0-6.0-1.3","556","","","","","clear_screen","null","null","","","catch","l","sh","sw","277","237","186","152","148","180","trueblood","null","null","null","null","null","null","null","null","null","null","null","","180","200","260","200","36000","52000","[1,3]","463.24574327385426","493.9172971894072","474.31682493343567"
"","canvas-keyboard-response","29","110674","0.0-6.0-2.3","556","","","","","rectangles no change","null","null","","","catch","l","sh","sw","277","237","186","152","148","180","trueblood","null","null","null","null","null","null","null","null","null","null","null","","180","200","260","200","36000","52000","[1,3]","463.24574327385426","493.9172971894072","474.31682493343567"
"","canvas-keyboard-response","30","112010","0.0-6.0-3.3","556","","","","","rectangles with change","null","null","","","catch","l","sh","sw","277","237","186","152","148","180","trueblood","null","null","null","null","null","null","null","null","null","null","null","","180","200","260","200","36000","52000","[1,3]","463.24574327385426","493.9172971894072","474.31682493343567"
"","canvas-keyboard-response","31","112032","0.0-6.0-4.3","556","","","","","clear_screen","null","null","","","catch","l","sh","sw","277","237","186","152","148","180","trueblood","null","null","null","null","null","null","null","null","null","null","null","","180","200","260","200","36000","52000","[1,3]","463.24574327385426","493.9172971894072","474.31682493343567"
"","canvas-keyboard-response","32","113905","0.0-6.0-5.3","556","","","","","make choice","1867","1","","","catch","l","sh","sw","277","237","186","152","148","180","trueblood","null","null","null","null","null","null","null","null","null","null","null","","180","200","260","200","36000","52000","[1,3]","","",""
"","canvas-keyboard-response","33","113923","0.0-6.0-6.3","556","","","","","clear_screen","null","null","","","catch","l","sh","sw","277","237","186","152","148","180","trueblood","null","null","null","null","null","null","null","null","null","null","null","","180","200","260","200","36000","52000","[1,3]","","",""
"","canvas-keyboard-response","34","114124","0.0-6.0-0.4","556","","","","","pre trial waiting period","null","null","","","critical","c","d","t","240","164","162.6685","237.1485","164","240","spektor","0.02","h","164","240","240","164","162.6685","237.1485","39360","39360","38576.5967","dc","null","null","null","null","null","null","[2,1]","507.96511967539817","139.74181759774356","455.15206858658496"
"","canvas-keyboard-response","35","114149","0.0-6.0-1.4","556","","","","","clear_screen","null","null","","","critical","c","d","t","240","164","162.6685","237.1485","164","240","spektor","0.02","h","164","240","240","164","162.6685","237.1485","39360","39360","38576.5967","dc","null","null","null","null","null","null","[2,1]","507.96511967539817","139.74181759774356","455.15206858658496"
"","canvas-keyboard-response","36","114655","0.0-6.0-2.4","556","","","","","rectangles no change","null","null","","","critical","c","d","t","240","164","162.6685","237.1485","164","240","spektor","0.02","h","164","240","240","164","162.6685","237.1485","39360","39360","38576.5967","dc","null","null","null","null","null","null","[2,1]","507.96511967539817","139.74181759774356","455.15206858658496"
"","canvas-keyboard-response","37","115996","0.0-6.0-3.4","556","","","","","rectangles with change","null","null","","","critical","c","d","t","240","164","162.6685","237.1485","164","240","spektor","0.02","h","164","240","240","164","162.6685","237.1485","39360","39360","38576.5967","dc","null","null","null","null","null","null","[2,1]","507.96511967539817","139.74181759774356","455.15206858658496"
"","canvas-keyboard-response","38","116016","0.0-6.0-4.4","556","","","","","clear_screen","null","null","","","critical","c","d","t","240","164","162.6685","237.1485","164","240","spektor","0.02","h","164","240","240","164","162.6685","237.1485","39360","39360","38576.5967","dc","null","null","null","null","null","null","[2,1]","507.96511967539817","139.74181759774356","455.15206858658496"
"","canvas-keyboard-response","39","118083","0.0-6.0-5.4","556","","","","","make choice","2061","1","","","critical","c","d","t","240","164","162.6685","237.1485","164","240","spektor","0.02","h","164","240","240","164","162.6685","237.1485","39360","39360","38576.5967","dc","null","null","null","null","null","null","[2,1]","","",""
"","canvas-keyboard-response","40","118101","0.0-6.0-6.4","556","","","","","clear_screen","null","null","","","critical","c","d","t","240","164","162.6685","237.1485","164","240","spektor","0.02","h","164","240","240","164","162.6685","237.1485","39360","39360","38576.5967","dc","null","null","null","null","null","null","[2,1]","","",""
"","canvas-keyboard-response","41","118302","0.0-6.0-0.5","556","","","","","pre trial waiting period","null","null","","","critical","t","d","c","240","164","240","164","164","240","spektor","0","w","240","164","164","240","240","164","39360","39360","39360","td","null","null","null","null","null","null","[1,2]","498.0297301306059","169.64893692825606","471.09921100983405"
"","canvas-keyboard-response","42","118321","0.0-6.0-1.5","556","","","","","clear_screen","null","null","","","critical","t","d","c","240","164","240","164","164","240","spektor","0","w","240","164","164","240","240","164","39360","39360","39360","td","null","null","null","null","null","null","[1,2]","498.0297301306059","169.64893692825606","471.09921100983405"
"","canvas-keyboard-response","43","118832","0.0-6.0-2.5","556","","","","","rectangles no change","null","null","","","critical","t","d","c","240","164","240","164","164","240","spektor","0","w","240","164","164","240","240","164","39360","39360","39360","td","null","null","null","null","null","null","[1,2]","498.0297301306059","169.64893692825606","471.09921100983405"
"","canvas-keyboard-response","44","120172","0.0-6.0-3.5","556","","","","","rectangles with change","null","null","","","critical","t","d","c","240","164","240","164","164","240","spektor","0","w","240","164","164","240","240","164","39360","39360","39360","td","null","null","null","null","null","null","[1,2]","498.0297301306059","169.64893692825606","471.09921100983405"
"","canvas-keyboard-response","45","120194","0.0-6.0-4.5","556","","","","","clear_screen","null","null","","","critical","t","d","c","240","164","240","164","164","240","spektor","0","w","240","164","164","240","240","164","39360","39360","39360","td","null","null","null","null","null","null","[1,2]","498.0297301306059","169.64893692825606","471.09921100983405"
"","canvas-keyboard-response","46","121994","0.0-6.0-5.5","556","","","","","make choice","1795","1","","","critical","t","d","c","240","164","240","164","164","240","spektor","0","w","240","164","164","240","240","164","39360","39360","39360","td","null","null","null","null","null","null","[1,2]","","",""
"","canvas-keyboard-response","47","122013","0.0-6.0-6.5","556","","","","","clear_screen","null","null","","","critical","t","d","c","240","164","240","164","164","240","spektor","0","w","240","164","164","240","240","164","39360","39360","39360","td","null","null","null","null","null","null","[1,2]","","",""
"","canvas-keyboard-response","48","122213","0.0-6.0-0.6","556","","","","","pre trial waiting period","null","null","","","critical","d","c","t","158.0083","227.1683","240","164","164","240","trueblood","0.09","h","164","240","240","164","158.0083","227.1683","39360","39360","35894.4834","tc","null","null","null","null","null","null","[3,2]","473.7293854770611","472.42971947976054","463.1500081240685"
"","canvas-keyboard-response","49","122232","0.0-6.0-1.6","556","","","","","clear_screen","null","null","","","critical","d","c","t","158.0083","227.1683","240","164","164","240","trueblood","0.09","h","164","240","240","164","158.0083","227.1683","39360","39360","35894.4834","tc","null","null","null","null","null","null","[3,2]","473.7293854770611","472.42971947976054","463.1500081240685"
"","canvas-keyboard-response","50","122739","0.0-6.0-2.6","556","","","","","rectangles no change","null","null","","","critical","d","c","t","158.0083","227.1683","240","164","164","240","trueblood","0.09","h","164","240","240","164","158.0083","227.1683","39360","39360","35894.4834","tc","null","null","null","null","null","null","[3,2]","473.7293854770611","472.42971947976054","463.1500081240685"
"","canvas-keyboard-response","51","124079","0.0-6.0-3.6","556","","","","","rectangles with change","null","null","","","critical","d","c","t","158.0083","227.1683","240","164","164","240","trueblood","0.09","h","164","240","240","164","158.0083","227.1683","39360","39360","35894.4834","tc","null","null","null","null","null","null","[3,2]","473.7293854770611","472.42971947976054","463.1500081240685"
"","canvas-keyboard-response","52","124099","0.0-6.0-4.6","556","","","","","clear_screen","null","null","","","critical","d","c","t","158.0083","227.1683","240","164","164","240","trueblood","0.09","h","164","240","240","164","158.0083","227.1683","39360","39360","35894.4834","tc","null","null","null","null","null","null","[3,2]","473.7293854770611","472.42971947976054","463.1500081240685"
"","canvas-keyboard-response","53","125075","0.0-6.0-5.6","556","","","","","make choice","972","2","","","critical","d","c","t","158.0083","227.1683","240","164","164","240","trueblood","0.09","h","164","240","240","164","158.0083","227.1683","39360","39360","35894.4834","tc","null","null","null","null","null","null","[3,2]","","",""
"","canvas-keyboard-response","54","125091","0.0-6.0-6.6","556","","","","","clear_screen","null","null","","","critical","d","c","t","158.0083","227.1683","240","164","164","240","trueblood","0.09","h","164","240","240","164","158.0083","227.1683","39360","39360","35894.4834","tc","null","null","null","null","null","null","[3,2]","","",""
"","canvas-keyboard-response","55","125293","0.0-6.0-0.7","556","","","","","pre trial waiting period","null","null","","","critical","t","d","c","240","164","220.0396","154.6796","164","240","trueblood","0.14","w","240","164","164","240","220.0396","154.6796","39360","39360","34035.6388","tc","null","null","null","null","null","null","[1,3]","517.1646797434094","494.90117917608876","448.5801280642228"
"","canvas-keyboard-response","56","125316","0.0-6.0-1.7","556","","","","","clear_screen","null","null","","","critical","t","d","c","240","164","220.0396","154.6796","164","240","trueblood","0.14","w","240","164","164","240","220.0396","154.6796","39360","39360","34035.6388","tc","null","null","null","null","null","null","[1,3]","517.1646797434094","494.90117917608876","448.5801280642228"
"","canvas-keyboard-response","57","125823","0.0-6.0-2.7","556","","","","","rectangles no change","null","null","","","critical","t","d","c","240","164","220.0396","154.6796","164","240","trueblood","0.14","w","240","164","164","240","220.0396","154.6796","39360","39360","34035.6388","tc","null","null","null","null","null","null","[1,3]","517.1646797434094","494.90117917608876","448.5801280642228"
"","canvas-keyboard-response","58","127159","0.0-6.0-3.7","556","","","","","rectangles with change","null","null","","","critical","t","d","c","240","164","220.0396","154.6796","164","240","trueblood","0.14","w","240","164","164","240","220.0396","154.6796","39360","39360","34035.6388","tc","null","null","null","null","null","null","[1,3]","517.1646797434094","494.90117917608876","448.5801280642228"
"","canvas-keyboard-response","59","127181","0.0-6.0-4.7","556","","","","","clear_screen","null","null","","","critical","t","d","c","240","164","220.0396","154.6796","164","240","trueblood","0.14","w","240","164","164","240","220.0396","154.6796","39360","39360","34035.6388","tc","null","null","null","null","null","null","[1,3]","517.1646797434094","494.90117917608876","448.5801280642228"
"","canvas-keyboard-response","60","128130","0.0-6.0-5.7","556","","","","","make choice","944","3","","","critical","t","d","c","240","164","220.0396","154.6796","164","240","trueblood","0.14","w","240","164","164","240","220.0396","154.6796","39360","39360","34035.6388","tc","null","null","null","null","null","null","[1,3]","","",""
"","canvas-keyboard-response","61","128147","0.0-6.0-6.7","556","","","","","clear_screen","null","null","","","critical","t","d","c","240","164","220.0396","154.6796","164","240","trueblood","0.14","w","240","164","164","240","220.0396","154.6796","39360","39360","34035.6388","tc","null","null","null","null","null","null","[1,3]","","",""
"","canvas-keyboard-response","62","128348","0.0-6.0-0.8","556","","","","","pre trial waiting period","null","null","","","critical","t","c","d","164","240","240","164","160.6713","232.8713","trueblood","0.05","h","164","240","240","164","160.6713","232.8713","39360","39360","37415.7294","td","null","null","null","null","null","null","[1,3]","420.610650679606","469.7542801350174","462.1897841014556"
"","canvas-keyboard-response","63","128367","0.0-6.0-1.8","556","","","","","clear_screen","null","null","","","critical","t","c","d","164","240","240","164","160.6713","232.8713","trueblood","0.05","h","164","240","240","164","160.6713","232.8713","39360","39360","37415.7294","td","null","null","null","null","null","null","[1,3]","420.610650679606","469.7542801350174","462.1897841014556"
"","canvas-keyboard-response","64","128874","0.0-6.0-2.8","556","","","","","rectangles no change","null","null","","","critical","t","c","d","164","240","240","164","160.6713","232.8713","trueblood","0.05","h","164","240","240","164","160.6713","232.8713","39360","39360","37415.7294","td","null","null","null","null","null","null","[1,3]","420.610650679606","469.7542801350174","462.1897841014556"
"","canvas-keyboard-response","65","130212","0.0-6.0-3.8","556","","","","","rectangles with change","null","null","","","critical","t","c","d","164","240","240","164","160.6713","232.8713","trueblood","0.05","h","164","240","240","164","160.6713","232.8713","39360","39360","37415.7294","td","null","null","null","null","null","null","[1,3]","420.610650679606","469.7542801350174","462.1897841014556"
"","canvas-keyboard-response","66","130233","0.0-6.0-4.8","556","","","","","clear_screen","null","null","","","critical","t","c","d","164","240","240","164","160.6713","232.8713","trueblood","0.05","h","164","240","240","164","160.6713","232.8713","39360","39360","37415.7294","td","null","null","null","null","null","null","[1,3]","420.610650679606","469.7542801350174","462.1897841014556"
"","canvas-keyboard-response","67","130617","0.0-6.0-5.8","556","","","","","make choice","372","3","","","critical","t","c","d","164","240","240","164","160.6713","232.8713","trueblood","0.05","h","164","240","240","164","160.6713","232.8713","39360","39360","37415.7294","td","null","null","null","null","null","null","[1,3]","","",""
"","canvas-keyboard-response","68","130636","0.0-6.0-6.8","556","","","","","clear_screen","null","null","","","critical","t","c","d","164","240","240","164","160.6713","232.8713","trueblood","0.05","h","164","240","240","164","160.6713","232.8713","39360","39360","37415.7294","td","null","null","null","null","null","null","[1,3]","","",""
"","canvas-keyboard-response","69","130838","0.0-6.0-0.9","556","","","","","pre trial waiting period","null","null","","","catch","sh","l","sw","192","201","273","181","194","192","trueblood","null","null","null","null","null","null","null","null","null","null","null","","180","200","260","200","36000","52000","[2,3]","481.67015276342966","465.20081399761733","450.99706379265314"
"","canvas-keyboard-response","70","130861","0.0-6.0-1.9","556","","","","","clear_screen","null","null","","","catch","sh","l","sw","192","201","273","181","194","192","trueblood","null","null","null","null","null","null","null","null","null","null","null","","180","200","260","200","36000","52000","[2,3]","481.67015276342966","465.20081399761733","450.99706379265314"
"","canvas-keyboard-response","71","131368","0.0-6.0-2.9","556","","","","","rectangles no change","null","null","","","catch","sh","l","sw","192","201","273","181","194","192","trueblood","null","null","null","null","null","null","null","null","null","null","null","","180","200","260","200","36000","52000","[2,3]","481.67015276342966","465.20081399761733","450.99706379265314"
"","canvas-keyboard-response","72","132707","0.0-6.0-3.9","556","","","","","rectangles with change","null","null","","","catch","sh","l","sw","192","201","273","181","194","192","trueblood","null","null","null","null","null","null","null","null","null","null","null","","180","200","260","200","36000","52000","[2,3]","481.67015276342966","465.20081399761733","450.99706379265314"
"","canvas-keyboard-response","73","132726","0.0-6.0-4.9","556","","","","","clear_screen","null","null","","","catch","sh","l","sw","192","201","273","181","194","192","trueblood","null","null","null","null","null","null","null","null","null","null","null","","180","200","260","200","36000","52000","[2,3]","481.67015276342966","465.20081399761733","450.99706379265314"
"","canvas-keyboard-response","74","133113","0.0-6.0-5.9","556","","","","","make choice","381","2","","","catch","sh","l","sw","192","201","273","181","194","192","trueblood","null","null","null","null","null","null","null","null","null","null","null","","180","200","260","200","36000","52000","[2,3]","","",""
"","canvas-keyboard-response","75","133131","0.0-6.0-6.9","556","","","","","clear_screen","null","null","","","catch","sh","l","sw","192","201","273","181","194","192","trueblood","null","null","null","null","null","null","null","null","null","null","null","","180","200","260","200","36000","52000","[2,3]","","",""
"","canvas-keyboard-response","76","133332","0.0-6.0-0.10","556","","","","","pre trial waiting period","null","null","","","catch","sh","sw","l","217","146","149","162","293","182","spektor","null","null","null","null","null","null","null","null","null","null","null","","180","200","260","200","36000","52000","[2,3]","550.6892584029393","200.6641597763902","512.2131172696717"
"","canvas-keyboard-response","77","133356","0.0-6.0-1.10","556","","","","","clear_screen","null","null","","","catch","sh","sw","l","217","146","149","162","293","182","spektor","null","null","null","null","null","null","null","null","null","null","null","","180","200","260","200","36000","52000","[2,3]","550.6892584029393","200.6641597763902","512.2131172696717"
"","canvas-keyboard-response","78","133865","0.0-6.0-2.10","556","","","","","rectangles no change","null","null","","","catch","sh","sw","l","217","146","149","162","293","182","spektor","null","null","null","null","null","null","null","null","null","null","null","","180","200","260","200","36000","52000","[2,3]","550.6892584029393","200.6641597763902","512.2131172696717"
"","canvas-keyboard-response","79","135202","0.0-6.0-3.10","556","","","","","rectangles with change","null","null","","","catch","sh","sw","l","217","146","149","162","293","182","spektor","null","null","null","null","null","null","null","null","null","null","null","","180","200","260","200","36000","52000","[2,3]","550.6892584029393","200.6641597763902","512.2131172696717"
"","canvas-keyboard-response","80","135225","0.0-6.0-4.10","556","","","","","clear_screen","null","null","","","catch","sh","sw","l","217","146","149","162","293","182","spektor","null","null","null","null","null","null","null","null","null","null","null","","180","200","260","200","36000","52000","[2,3]","550.6892584029393","200.6641597763902","512.2131172696717"
"","canvas-keyboard-response","81","138290","0.0-6.0-5.10","556","","","","","make choice","3059","3","","","catch","sh","sw","l","217","146","149","162","293","182","spektor","null","null","null","null","null","null","null","null","null","null","null","","180","200","260","200","36000","52000","[2,3]","","",""
"","canvas-keyboard-response","82","138311","0.0-6.0-6.10","556","","","","","clear_screen","null","null","","","catch","sh","sw","l","217","146","149","162","293","182","spektor","null","null","null","null","null","null","null","null","null","null","null","","180","200","260","200","36000","52000","[2,3]","","",""
"","canvas-keyboard-response","83","138511","0.0-6.0-0.11","556","","","","","pre trial waiting period","null","null","","","critical","c","t","d","164","240","240","164","237.1485","162.6685","trueblood","0.02","w","240","164","164","240","237.1485","162.6685","39360","39360","38576.5967","td","null","null","null","null","null","null","[2,3]","446.18833684402426","514.9858987130131","479.01397713592854"
"","canvas-keyboard-response","84","138536","0.0-6.0-1.11","556","","","","","clear_screen","null","null","","","critical","c","t","d","164","240","240","164","237.1485","162.6685","trueblood","0.02","w","240","164","164","240","237.1485","162.6685","39360","39360","38576.5967","td","null","null","null","null","null","null","[2,3]","446.18833684402426","514.9858987130131","479.01397713592854"
"","canvas-keyboard-response","85","139043","0.0-6.0-2.11","556","","","","","rectangles no change","null","null","","","critical","c","t","d","164","240","240","164","237.1485","162.6685","trueblood","0.02","w","240","164","164","240","237.1485","162.6685","39360","39360","38576.5967","td","null","null","null","null","null","null","[2,3]","446.18833684402426","514.9858987130131","479.01397713592854"
"","canvas-keyboard-response","86","140384","0.0-6.0-3.11","556","","","","","rectangles with change","null","null","","","critical","c","t","d","164","240","240","164","237.1485","162.6685","trueblood","0.02","w","240","164","164","240","237.1485","162.6685","39360","39360","38576.5967","td","null","null","null","null","null","null","[2,3]","446.18833684402426","514.9858987130131","479.01397713592854"
"","canvas-keyboard-response","87","140406","0.0-6.0-4.11","556","","","","","clear_screen","null","null","","","critical","c","t","d","164","240","240","164","237.1485","162.6685","trueblood","0.02","w","240","164","164","240","237.1485","162.6685","39360","39360","38576.5967","td","null","null","null","null","null","null","[2,3]","446.18833684402426","514.9858987130131","479.01397713592854"
"","canvas-keyboard-response","88","141169","0.0-6.0-5.11","556","","","","","make choice","760","2","","","critical","c","t","d","164","240","240","164","237.1485","162.6685","trueblood","0.02","w","240","164","164","240","237.1485","162.6685","39360","39360","38576.5967","td","null","null","null","null","null","null","[2,3]","","",""
"","canvas-keyboard-response","89","141189","0.0-6.0-6.11","556","","","","","clear_screen","null","null","","","critical","c","t","d","164","240","240","164","237.1485","162.6685","trueblood","0.02","w","240","164","164","240","237.1485","162.6685","39360","39360","38576.5967","td","null","null","null","null","null","null","[2,3]","","",""
"","canvas-keyboard-response","90","141390","0.0-6.0-0.12","556","","","","","pre trial waiting period","null","null","","","critical","t","c","d","164","240","240","164","164","240","spektor","0","h","164","240","240","164","164","240","39360","39360","39360","td","null","null","null","null","null","null","[1,3]","462.9426524042287","191.8766071569815","464.1061505890348"
"","canvas-keyboard-response","91","141414","0.0-6.0-1.12","556","","","","","clear_screen","null","null","","","critical","t","c","d","164","240","240","164","164","240","spektor","0","h","164","240","240","164","164","240","39360","39360","39360","td","null","null","null","null","null","null","[1,3]","462.9426524042287","191.8766071569815","464.1061505890348"
"","canvas-keyboard-response","92","141925","0.0-6.0-2.12","556","","","","","rectangles no change","null","null","","","critical","t","c","d","164","240","240","164","164","240","spektor","0","h","164","240","240","164","164","240","39360","39360","39360","td","null","null","null","null","null","null","[1,3]","462.9426524042287","191.8766071569815","464.1061505890348"
"","canvas-keyboard-response","93","143264","0.0-6.0-3.12","556","","","","","rectangles with change","null","null","","","critical","t","c","d","164","240","240","164","164","240","spektor","0","h","164","240","240","164","164","240","39360","39360","39360","td","null","null","null","null","null","null","[1,3]","462.9426524042287","191.8766071569815","464.1061505890348"
"","canvas-keyboard-response","94","143286","0.0-6.0-4.12","556","","","","","clear_screen","null","null","","","critical","t","c","d","164","240","240","164","164","240","spektor","0","h","164","240","240","164","164","240","39360","39360","39360","td","null","null","null","null","null","null","[1,3]","462.9426524042287","191.8766071569815","464.1061505890348"
"","canvas-keyboard-response","95","143418","0.0-6.0-5.12","556","","","","","make choice","125","3","","","critical","t","c","d","164","240","240","164","164","240","spektor","0","h","164","240","240","164","164","240","39360","39360","39360","td","null","null","null","null","null","null","[1,3]","","",""
"","canvas-keyboard-response","96","143437","0.0-6.0-6.12","556","","","","","clear_screen","null","null","","","critical","t","c","d","164","240","240","164","164","240","spektor","0","h","164","240","240","164","164","240","39360","39360","39360","td","null","null","null","null","null","null","[1,3]","","",""
"","canvas-keyboard-response","97","143638","0.0-6.0-0.13","556","","","","","pre trial waiting period","null","null","","","catch","sh","sw","l","220","166","179","208","277","218","spektor","null","null","null","null","null","null","null","null","null","null","null","","180","200","260","200","36000","52000","[1,3]","525.1363090502704","160.09856929059237","496.75489324541707"
"","canvas-keyboard-response","98","143660","0.0-6.0-1.13","556","","","","","clear_screen","null","null","","","catch","sh","sw","l","220","166","179","208","277","218","spektor","null","null","null","null","null","null","null","null","null","null","null","","180","200","260","200","36000","52000","[1,3]","525.1363090502704","160.09856929059237","496.75489324541707"
"","canvas-keyboard-response","99","144170","0.0-6.0-2.13","556","","","","","rectangles no change","null","null","","","catch","sh","sw","l","220","166","179","208","277","218","spektor","null","null","null","null","null","null","null","null","null","null","null","","180","200","260","200","36000","52000","[1,3]","525.1363090502704","160.09856929059237","496.75489324541707"
"","canvas-keyboard-response","100","145505","0.0-6.0-3.13","556","","","","","rectangles with change","null","null","","","catch","sh","sw","l","220","166","179","208","277","218","spektor","null","null","null","null","null","null","null","null","null","null","null","","180","200","260","200","36000","52000","[1,3]","525.1363090502704","160.09856929059237","496.75489324541707"
"","canvas-keyboard-response","101","145528","0.0-6.0-4.13","556","","","","","clear_screen","null","null","","","catch","sh","sw","l","220","166","179","208","277","218","spektor","null","null","null","null","null","null","null","null","null","null","null","","180","200","260","200","36000","52000","[1,3]","525.1363090502704","160.09856929059237","496.75489324541707"
"","canvas-keyboard-response","102","146001","0.0-6.0-5.13","556","","","","","make choice","468","3","","","catch","sh","sw","l","220","166","179","208","277","218","spektor","null","null","null","null","null","null","null","null","null","null","null","","180","200","260","200","36000","52000","[1,3]","","",""
"","canvas-keyboard-response","103","146021","0.0-6.0-6.13","556","","","","","clear_screen","null","null","","","catch","sh","sw","l","220","166","179","208","277","218","spektor","null","null","null","null","null","null","null","null","null","null","null","","180","200","260","200","36000","52000","[1,3]","","",""
"","canvas-keyboard-response","104","146222","0.0-6.0-0.14","556","","","","","pre trial waiting period","null","null","","","critical","c","d","t","164","240","220.0396","154.6796","240","164","trueblood","0.14","w","240","164","164","240","220.0396","154.6796","39360","39360","34035.6388","td","null","null","null","null","null","null","[3,2]","439.7773343278552","491.8153153672768","472.8920825678137"
"","canvas-keyboard-response","105","146241","0.0-6.0-1.14","556","","","","","clear_screen","null","null","","","critical","c","d","t","164","240","220.0396","154.6796","240","164","trueblood","0.14","w","240","164","164","240","220.0396","154.6796","39360","39360","34035.6388","td","null","null","null","null","null","null","[3,2]","439.7773343278552","491.8153153672768","472.8920825678137"
"","canvas-keyboard-response","106","146749","0.0-6.0-2.14","556","","","","","rectangles no change","null","null","","","critical","c","d","t","164","240","220.0396","154.6796","240","164","trueblood","0.14","w","240","164","164","240","220.0396","154.6796","39360","39360","34035.6388","td","null","null","null","null","null","null","[3,2]","439.7773343278552","491.8153153672768","472.8920825678137"
"","canvas-keyboard-response","107","148088","0.0-6.0-3.14","556","","","","","rectangles with change","null","null","","","critical","c","d","t","164","240","220.0396","154.6796","240","164","trueblood","0.14","w","240","164","164","240","220.0396","154.6796","39360","39360","34035.6388","td","null","null","null","null","null","null","[3,2]","439.7773343278552","491.8153153672768","472.8920825678137"
"","canvas-keyboard-response","108","148111","0.0-6.0-4.14","556","","","","","clear_screen","null","null","","","critical","c","d","t","164","240","220.0396","154.6796","240","164","trueblood","0.14","w","240","164","164","240","220.0396","154.6796","39360","39360","34035.6388","td","null","null","null","null","null","null","[3,2]","439.7773343278552","491.8153153672768","472.8920825678137"
"","canvas-keyboard-response","109","148769","0.0-6.0-5.14","556","","","","","make choice","654","3","","","critical","c","d","t","164","240","220.0396","154.6796","240","164","trueblood","0.14","w","240","164","164","240","220.0396","154.6796","39360","39360","34035.6388","td","null","null","null","null","null","null","[3,2]","","",""
"","canvas-keyboard-response","110","148790","0.0-6.0-6.14","556","","","","","clear_screen","null","null","","","critical","c","d","t","164","240","220.0396","154.6796","240","164","trueblood","0.14","w","240","164","164","240","220.0396","154.6796","39360","39360","34035.6388","td","null","null","null","null","null","null","[3,2]","","",""
"","canvas-keyboard-response","111","148990","0.0-6.0-0.15","556","","","","","pre trial waiting period","null","null","","","critical","c","t","d","240","164","164","240","154.6796","220.0396","spektor","0.14","h","164","240","240","164","154.6796","220.0396","39360","39360","34035.6388","td","null","null","null","null","null","null","[2,3]","524.6632202515998","130.0396338394155","477.77528004355804"
"","canvas-keyboard-response","112","149009","0.0-6.0-1.15","556","","","","","clear_screen","null","null","","","critical","c","t","d","240","164","164","240","154.6796","220.0396","spektor","0.14","h","164","240","240","164","154.6796","220.0396","39360","39360","34035.6388","td","null","null","null","null","null","null","[2,3]","524.6632202515998","130.0396338394155","477.77528004355804"
"","canvas-keyboard-response","113","149517","0.0-6.0-2.15","556","","","","","rectangles no change","null","null","","","critical","c","t","d","240","164","164","240","154.6796","220.0396","spektor","0.14","h","164","240","240","164","154.6796","220.0396","39360","39360","34035.6388","td","null","null","null","null","null","null","[2,3]","524.6632202515998","130.0396338394155","477.77528004355804"
"","canvas-keyboard-response","114","150855","0.0-6.0-3.15","556","","","","","rectangles with change","null","null","","","critical","c","t","d","240","164","164","240","154.6796","220.0396","spektor","0.14","h","164","240","240","164","154.6796","220.0396","39360","39360","34035.6388","td","null","null","null","null","null","null","[2,3]","524.6632202515998","130.0396338394155","477.77528004355804"
"","canvas-keyboard-response","115","150874","0.0-6.0-4.15","556","","","","","clear_screen","null","null","","","critical","c","t","d","240","164","164","240","154.6796","220.0396","spektor","0.14","h","164","240","240","164","154.6796","220.0396","39360","39360","34035.6388","td","null","null","null","null","null","null","[2,3]","524.6632202515998","130.0396338394155","477.77528004355804"
"","canvas-keyboard-response","116","151034","0.0-6.0-5.15","556","","","","","make choice","148","2","","","critical","c","t","d","240","164","164","240","154.6796","220.0396","spektor","0.14","h","164","240","240","164","154.6796","220.0396","39360","39360","34035.6388","td","null","null","null","null","null","null","[2,3]","","",""
"","canvas-keyboard-response","117","151065","0.0-6.0-6.15","556","","","","","clear_screen","null","null","","","critical","c","t","d","240","164","164","240","154.6796","220.0396","spektor","0.14","h","164","240","240","164","154.6796","220.0396","39360","39360","34035.6388","td","null","null","null","null","null","null","[2,3]","","",""
"","canvas-keyboard-response","118","151266","0.0-6.0-0.16","556","","","","","pre trial waiting period","null","null","","","critical","t","c","d","240","164","164","240","240","164","spektor","0","w","240","164","164","240","240","164","39360","39360","39360","dc","null","null","null","null","null","null","[3,2]","533.0445210574997","120.40240526371886","520.4717480435355"
"","canvas-keyboard-response","119","151288","0.0-6.0-1.16","556","","","","","clear_screen","null","null","","","critical","t","c","d","240","164","164","240","240","164","spektor","0","w","240","164","164","240","240","164","39360","39360","39360","dc","null","null","null","null","null","null","[3,2]","533.0445210574997","120.40240526371886","520.4717480435355"
"","canvas-keyboard-response","120","151796","0.0-6.0-2.16","556","","","","","rectangles no change","null","null","","","critical","t","c","d","240","164","164","240","240","164","spektor","0","w","240","164","164","240","240","164","39360","39360","39360","dc","null","null","null","null","null","null","[3,2]","533.0445210574997","120.40240526371886","520.4717480435355"
"","canvas-keyboard-response","121","153131","0.0-6.0-3.16","556","","","","","rectangles with change","null","null","","","critical","t","c","d","240","164","164","240","240","164","spektor","0","w","240","164","164","240","240","164","39360","39360","39360","dc","null","null","null","null","null","null","[3,2]","533.0445210574997","120.40240526371886","520.4717480435355"
"","canvas-keyboard-response","122","153153","0.0-6.0-4.16","556","","","","","clear_screen","null","null","","","critical","t","c","d","240","164","164","240","240","164","spektor","0","w","240","164","164","240","240","164","39360","39360","39360","dc","null","null","null","null","null","null","[3,2]","533.0445210574997","120.40240526371886","520.4717480435355"
"","canvas-keyboard-response","123","153625","0.0-6.0-5.16","556","","","","","make choice","467","3","","","critical","t","c","d","240","164","164","240","240","164","spektor","0","w","240","164","164","240","240","164","39360","39360","39360","dc","null","null","null","null","null","null","[3,2]","","",""
"","canvas-keyboard-response","124","153644","0.0-6.0-6.16","556","","","","","clear_screen","null","null","","","critical","t","c","d","240","164","164","240","240","164","spektor","0","w","240","164","164","240","240","164","39360","39360","39360","dc","null","null","null","null","null","null","[3,2]","","",""
"","canvas-keyboard-response","125","153846","0.0-6.0-0.17","556","","","","","pre trial waiting period","null","null","","","catch","sh","l","sw","190","140","294","206","196","238","spektor","null","null","null","null","null","null","null","null","null","null","null","","180","200","260","200","36000","52000","[2,3]","539.6894989595212","178.33383779071048","486.5571991062717"
"","canvas-keyboard-response","126","153865","0.0-6.0-1.17","556","","","","","clear_screen","null","null","","","catch","sh","l","sw","190","140","294","206","196","238","spektor","null","null","null","null","null","null","null","null","null","null","null","","180","200","260","200","36000","52000","[2,3]","539.6894989595212","178.33383779071048","486.5571991062717"
"","canvas-keyboard-response","127","154372","0.0-6.0-2.17","556","","","","","rectangles no change","null","null","","","catch","sh","l","sw","190","140","294","206","196","238","spektor","null","null","null","null","null","null","null","null","null","null","null","","180","200","260","200","36000","52000","[2,3]","539.6894989595212","178.33383779071048","486.5571991062717"
"","canvas-keyboard-response","128","155709","0.0-6.0-3.17","556","","","","","rectangles with change","null","null","","","catch","sh","l","sw","190","140","294","206","196","238","spektor","null","null","null","null","null","null","null","null","null","null","null","","180","200","260","200","36000","52000","[2,3]","539.6894989595212","178.33383779071048","486.5571991062717"
"","canvas-keyboard-response","129","155732","0.0-6.0-4.17","556","","","","","clear_screen","null","null","","","catch","sh","l","sw","190","140","294","206","196","238","spektor","null","null","null","null","null","null","null","null","null","null","null","","180","200","260","200","36000","52000","[2,3]","539.6894989595212","178.33383779071048","486.5571991062717"
"","canvas-keyboard-response","130","156009","0.0-6.0-5.17","556","","","","","make choice","273","2","","","catch","sh","l","sw","190","140","294","206","196","238","spektor","null","null","null","null","null","null","null","null","null","null","null","","180","200","260","200","36000","52000","[2,3]","","",""
"","canvas-keyboard-response","131","156027","0.0-6.0-6.17","556","","","","","clear_screen","null","null","","","catch","sh","l","sw","190","140","294","206","196","238","spektor","null","null","null","null","null","null","null","null","null","null","null","","180","200","260","200","36000","52000","[2,3]","","",""
"","canvas-keyboard-response","132","156229","0.0-6.0-0.18","556","","","","","pre trial waiting period","null","null","","","critical","c","t","d","240","164","164","240","162.6685","237.1485","trueblood","0.02","h","164","240","240","164","162.6685","237.1485","39360","39360","38576.5967","td","null","null","null","null","null","null","[2,3]","490.6574415115811","435.62828040931845","421.30957748583563"
"","canvas-keyboard-response","133","156252","0.0-6.0-1.18","556","","","","","clear_screen","null","null","","","critical","c","t","d","240","164","164","240","162.6685","237.1485","trueblood","0.02","h","164","240","240","164","162.6685","237.1485","39360","39360","38576.5967","td","null","null","null","null","null","null","[2,3]","490.6574415115811","435.62828040931845","421.30957748583563"
"","canvas-keyboard-response","134","156759","0.0-6.0-2.18","556","","","","","rectangles no change","null","null","","","critical","c","t","d","240","164","164","240","162.6685","237.1485","trueblood","0.02","h","164","240","240","164","162.6685","237.1485","39360","39360","38576.5967","td","null","null","null","null","null","null","[2,3]","490.6574415115811","435.62828040931845","421.30957748583563"
"","canvas-keyboard-response","135","158095","0.0-6.0-3.18","556","","","","","rectangles with change","null","null","","","critical","c","t","d","240","164","164","240","162.6685","237.1485","trueblood","0.02","h","164","240","240","164","162.6685","237.1485","39360","39360","38576.5967","td","null","null","null","null","null","null","[2,3]","490.6574415115811","435.62828040931845","421.30957748583563"
"","canvas-keyboard-response","136","158116","0.0-6.0-4.18","556","","","","","clear_screen","null","null","","","critical","c","t","d","240","164","164","240","162.6685","237.1485","trueblood","0.02","h","164","240","240","164","162.6685","237.1485","39360","39360","38576.5967","td","null","null","null","null","null","null","[2,3]","490.6574415115811","435.62828040931845","421.30957748583563"
"","canvas-keyboard-response","137","158537","0.0-6.0-5.18","556","","","","","make choice","415","3","","","critical","c","t","d","240","164","164","240","162.6685","237.1485","trueblood","0.02","h","164","240","240","164","162.6685","237.1485","39360","39360","38576.5967","td","null","null","null","null","null","null","[2,3]","","",""
"","canvas-keyboard-response","138","158557","0.0-6.0-6.18","556","","","","","clear_screen","null","null","","","critical","c","t","d","240","164","164","240","162.6685","237.1485","trueblood","0.02","h","164","240","240","164","162.6685","237.1485","39360","39360","38576.5967","td","null","null","null","null","null","null","[2,3]","","",""
"","canvas-keyboard-response","139","158757","0.0-6.0-0.19","556","","","","","pre trial waiting period","null","null","","","critical","c","d","t","164","240","220.0396","154.6796","240","164","spektor","0.14","w","240","164","164","240","220.0396","154.6796","39360","39360","34035.6388","tc","null","null","null","null","null","null","[3,1]","492.6226523422318","192.27111417908662","528.0980671435811"
"","canvas-keyboard-response","140","158778","0.0-6.0-1.19","556","","","","","clear_screen","null","null","","","critical","c","d","t","164","240","220.0396","154.6796","240","164","spektor","0.14","w","240","164","164","240","220.0396","154.6796","39360","39360","34035.6388","tc","null","null","null","null","null","null","[3,1]","492.6226523422318","192.27111417908662","528.0980671435811"
"","canvas-keyboard-response","141","159289","0.0-6.0-2.19","556","","","","","rectangles no change","null","null","","","critical","c","d","t","164","240","220.0396","154.6796","240","164","spektor","0.14","w","240","164","164","240","220.0396","154.6796","39360","39360","34035.6388","tc","null","null","null","null","null","null","[3,1]","492.6226523422318","192.27111417908662","528.0980671435811"
"","canvas-keyboard-response","142","160628","0.0-6.0-3.19","556","","","","","rectangles with change","null","null","","","critical","c","d","t","164","240","220.0396","154.6796","240","164","spektor","0.14","w","240","164","164","240","220.0396","154.6796","39360","39360","34035.6388","tc","null","null","null","null","null","null","[3,1]","492.6226523422318","192.27111417908662","528.0980671435811"
"","canvas-keyboard-response","143","160648","0.0-6.0-4.19","556","","","","","clear_screen","null","null","","","critical","c","d","t","164","240","220.0396","154.6796","240","164","spektor","0.14","w","240","164","164","240","220.0396","154.6796","39360","39360","34035.6388","tc","null","null","null","null","null","null","[3,1]","492.6226523422318","192.27111417908662","528.0980671435811"
"","canvas-keyboard-response","144","162298","0.0-6.0-5.19","556","","","","","make choice","1644","3","","","critical","c","d","t","164","240","220.0396","154.6796","240","164","spektor","0.14","w","240","164","164","240","220.0396","154.6796","39360","39360","34035.6388","tc","null","null","null","null","null","null","[3,1]","","",""
"","canvas-keyboard-response","145","162316","0.0-6.0-6.19","556","","","","","clear_screen","null","null","","","critical","c","d","t","164","240","220.0396","154.6796","240","164","spektor","0.14","w","240","164","164","240","220.0396","154.6796","39360","39360","34035.6388","tc","null","null","null","null","null","null","[3,1]","","",""
"","canvas-keyboard-response","146","162517","0.0-6.0-0.20","556","","","","","pre trial waiting period","null","null","","","critical","t","c","d","240","164","164","240","237.1485","162.6685","trueblood","0.02","w","240","164","164","240","237.1485","162.6685","39360","39360","38576.5967","dc","null","null","null","null","null","null","[3,2]","491.62057553350655","466.6994274025967","497.58502507733624"
"","canvas-keyboard-response","147","162537","0.0-6.0-1.20","556","","","","","clear_screen","null","null","","","critical","t","c","d","240","164","164","240","237.1485","162.6685","trueblood","0.02","w","240","164","164","240","237.1485","162.6685","39360","39360","38576.5967","dc","null","null","null","null","null","null","[3,2]","491.62057553350655","466.6994274025967","497.58502507733624"
"","canvas-keyboard-response","148","163045","0.0-6.0-2.20","556","","","","","rectangles no change","null","null","","","critical","t","c","d","240","164","164","240","237.1485","162.6685","trueblood","0.02","w","240","164","164","240","237.1485","162.6685","39360","39360","38576.5967","dc","null","null","null","null","null","null","[3,2]","491.62057553350655","466.6994274025967","497.58502507733624"
"","canvas-keyboard-response","149","164383","0.0-6.0-3.20","556","","","","","rectangles with change","null","null","","","critical","t","c","d","240","164","164","240","237.1485","162.6685","trueblood","0.02","w","240","164","164","240","237.1485","162.6685","39360","39360","38576.5967","dc","null","null","null","null","null","null","[3,2]","491.62057553350655","466.6994274025967","497.58502507733624"
"","canvas-keyboard-response","150","164401","0.0-6.0-4.20","556","","","","","clear_screen","null","null","","","critical","t","c","d","240","164","164","240","237.1485","162.6685","trueblood","0.02","w","240","164","164","240","237.1485","162.6685","39360","39360","38576.5967","dc","null","null","null","null","null","null","[3,2]","491.62057553350655","466.6994274025967","497.58502507733624"
"","canvas-keyboard-response","151","165067","0.0-6.0-5.20","556","","","","","make choice","656","3","","","critical","t","c","d","240","164","164","240","237.1485","162.6685","trueblood","0.02","w","240","164","164","240","237.1485","162.6685","39360","39360","38576.5967","dc","null","null","null","null","null","null","[3,2]","","",""
"","canvas-keyboard-response","152","165085","0.0-6.0-6.20","556","","","","","clear_screen","null","null","","","critical","t","c","d","240","164","164","240","237.1485","162.6685","trueblood","0.02","w","240","164","164","240","237.1485","162.6685","39360","39360","38576.5967","dc","null","null","null","null","null","null","[3,2]","","",""
"","canvas-keyboard-response","153","165287","0.0-6.0-0.21","556","","","","","pre trial waiting period","null","null","","","catch","sh","l","sw","214","164","205","266","157","216","trueblood","null","null","null","null","null","null","null","null","null","null","null","","180","200","260","200","36000","52000","[1,2]","472.3071173076083","432.06156553031747","468.0687425652831"
"","canvas-keyboard-response","154","165308","0.0-6.0-1.21","556","","","","","clear_screen","null","null","","","catch","sh","l","sw","214","164","205","266","157","216","trueblood","null","null","null","null","null","null","null","null","null","null","null","","180","200","260","200","36000","52000","[1,2]","472.3071173076083","432.06156553031747","468.0687425652831"
"","canvas-keyboard-response","155","165816","0.0-6.0-2.21","556","","","","","rectangles no change","null","null","","","catch","sh","l","sw","214","164","205","266","157","216","trueblood","null","null","null","null","null","null","null","null","null","null","null","","180","200","260","200","36000","52000","[1,2]","472.3071173076083","432.06156553031747","468.0687425652831"
"","canvas-keyboard-response","156","167151","0.0-6.0-3.21","556","","","","","rectangles with change","null","null","","","catch","sh","l","sw","214","164","205","266","157","216","trueblood","null","null","null","null","null","null","null","null","null","null","null","","180","200","260","200","36000","52000","[1,2]","472.3071173076083","432.06156553031747","468.0687425652831"
"","canvas-keyboard-response","157","167170","0.0-6.0-4.21","556","","","","","clear_screen","null","null","","","catch","sh","l","sw","214","164","205","266","157","216","trueblood","null","null","null","null","null","null","null","null","null","null","null","","180","200","260","200","36000","52000","[1,2]","472.3071173076083","432.06156553031747","468.0687425652831"
"","canvas-keyboard-response","158","167498","0.0-6.0-5.21","556","","","","","make choice","319","2","","","catch","sh","l","sw","214","164","205","266","157","216","trueblood","null","null","null","null","null","null","null","null","null","null","null","","180","200","260","200","36000","52000","[1,2]","","",""
"","canvas-keyboard-response","159","167517","0.0-6.0-6.21","556","","","","","clear_screen","null","null","","","catch","sh","l","sw","214","164","205","266","157","216","trueblood","null","null","null","null","null","null","null","null","null","null","null","","180","200","260","200","36000","52000","[1,2]","","",""
"","canvas-keyboard-response","160","167719","0.0-6.0-0.22","556","","","","","pre trial waiting period","null","null","","","critical","c","d","t","164","240","232.8713","160.6713","240","164","spektor","0.05","w","240","164","164","240","232.8713","160.6713","39360","39360","37415.7294","td","null","null","null","null","null","null","[3,2]","456.92821317411847","212.1728302130607","508.7477345579584"
"","canvas-keyboard-response","161","167740","0.0-6.0-1.22","556","","","","","clear_screen","null","null","","","critical","c","d","t","164","240","232.8713","160.6713","240","164","spektor","0.05","w","240","164","164","240","232.8713","160.6713","39360","39360","37415.7294","td","null","null","null","null","null","null","[3,2]","456.92821317411847","212.1728302130607","508.7477345579584"
"","canvas-keyboard-response","162","168247","0.0-6.0-2.22","556","","","","","rectangles no change","null","null","","","critical","c","d","t","164","240","232.8713","160.6713","240","164","spektor","0.05","w","240","164","164","240","232.8713","160.6713","39360","39360","37415.7294","td","null","null","null","null","null","null","[3,2]","456.92821317411847","212.1728302130607","508.7477345579584"
"","canvas-keyboard-response","163","169585","0.0-6.0-3.22","556","","","","","rectangles with change","null","null","","","critical","c","d","t","164","240","232.8713","160.6713","240","164","spektor","0.05","w","240","164","164","240","232.8713","160.6713","39360","39360","37415.7294","td","null","null","null","null","null","null","[3,2]","456.92821317411847","212.1728302130607","508.7477345579584"
"","canvas-keyboard-response","164","169609","0.0-6.0-4.22","556","","","","","clear_screen","null","null","","","critical","c","d","t","164","240","232.8713","160.6713","240","164","spektor","0.05","w","240","164","164","240","232.8713","160.6713","39360","39360","37415.7294","td","null","null","null","null","null","null","[3,2]","456.92821317411847","212.1728302130607","508.7477345579584"
"","canvas-keyboard-response","165","169762","0.0-6.0-5.22","556","","","","","make choice","142","3","","","critical","c","d","t","164","240","232.8713","160.6713","240","164","spektor","0.05","w","240","164","164","240","232.8713","160.6713","39360","39360","37415.7294","td","null","null","null","null","null","null","[3,2]","","",""
"","canvas-keyboard-response","166","169780","0.0-6.0-6.22","556","","","","","clear_screen","null","null","","","critical","c","d","t","164","240","232.8713","160.6713","240","164","spektor","0.05","w","240","164","164","240","232.8713","160.6713","39360","39360","37415.7294","td","null","null","null","null","null","null","[3,2]","","",""
"","canvas-keyboard-response","167","169981","0.0-6.0-0.23","556","","","","","pre trial waiting period","null","null","","","critical","t","c","d","240","164","164","240","237.1485","162.6685","trueblood","0.02","w","240","164","164","240","237.1485","162.6685","39360","39360","38576.5967","tc","null","null","null","null","null","null","[1,2]","478.9019985314126","457.4791675041352","501.6883624902563"
"","canvas-keyboard-response","168","170000","0.0-6.0-1.23","556","","","","","clear_screen","null","null","","","critical","t","c","d","240","164","164","240","237.1485","162.6685","trueblood","0.02","w","240","164","164","240","237.1485","162.6685","39360","39360","38576.5967","tc","null","null","null","null","null","null","[1,2]","478.9019985314126","457.4791675041352","501.6883624902563"
"","canvas-keyboard-response","169","170506","0.0-6.0-2.23","556","","","","","rectangles no change","null","null","","","critical","t","c","d","240","164","164","240","237.1485","162.6685","trueblood","0.02","w","240","164","164","240","237.1485","162.6685","39360","39360","38576.5967","tc","null","null","null","null","null","null","[1,2]","478.9019985314126","457.4791675041352","501.6883624902563"
"","canvas-keyboard-response","170","171845","0.0-6.0-3.23","556","","","","","rectangles with change","null","null","","","critical","t","c","d","240","164","164","240","237.1485","162.6685","trueblood","0.02","w","240","164","164","240","237.1485","162.6685","39360","39360","38576.5967","tc","null","null","null","null","null","null","[1,2]","478.9019985314126","457.4791675041352","501.6883624902563"
"","canvas-keyboard-response","171","171865","0.0-6.0-4.23","556","","","","","clear_screen","null","null","","","critical","t","c","d","240","164","164","240","237.1485","162.6685","trueblood","0.02","w","240","164","164","240","237.1485","162.6685","39360","39360","38576.5967","tc","null","null","null","null","null","null","[1,2]","478.9019985314126","457.4791675041352","501.6883624902563"
"","canvas-keyboard-response","172","172170","0.0-6.0-5.23","556","","","","","make choice","300","2","","","critical","t","c","d","240","164","164","240","237.1485","162.6685","trueblood","0.02","w","240","164","164","240","237.1485","162.6685","39360","39360","38576.5967","tc","null","null","null","null","null","null","[1,2]","","",""
"","canvas-keyboard-response","173","172190","0.0-6.0-6.23","556","","","","","clear_screen","null","null","","","critical","t","c","d","240","164","164","240","237.1485","162.6685","trueblood","0.02","w","240","164","164","240","237.1485","162.6685","39360","39360","38576.5967","tc","null","null","null","null","null","null","[1,2]","","",""
"","canvas-keyboard-response","174","172391","0.0-6.0-0.24","556","","","","","pre trial waiting period","null","null","","","catch","sh","l","sw","228","219","238","290","200","221","spektor","null","null","null","null","null","null","null","null","null","null","null","","180","200","260","200","36000","52000","[1,2]","484.6595269594589","54.80041884818907","500.757162800548"
"","canvas-keyboard-response","175","172411","0.0-6.0-1.24","556","","","","","clear_screen","null","null","","","catch","sh","l","sw","228","219","238","290","200","221","spektor","null","null","null","null","null","null","null","null","null","null","null","","180","200","260","200","36000","52000","[1,2]","484.6595269594589","54.80041884818907","500.757162800548"
"","canvas-keyboard-response","176","172918","0.0-6.0-2.24","556","","","","","rectangles no change","null","null","","","catch","sh","l","sw","228","219","238","290","200","221","spektor","null","null","null","null","null","null","null","null","null","null","null","","180","200","260","200","36000","52000","[1,2]","484.6595269594589","54.80041884818907","500.757162800548"
"","canvas-keyboard-response","177","174256","0.0-6.0-3.24","556","","","","","rectangles with change","null","null","","","catch","sh","l","sw","228","219","238","290","200","221","spektor","null","null","null","null","null","null","null","null","null","null","null","","180","200","260","200","36000","52000","[1,2]","484.6595269594589","54.80041884818907","500.757162800548"
"","canvas-keyboard-response","178","174274","0.0-6.0-4.24","556","","","","","clear_screen","null","null","","","catch","sh","l","sw","228","219","238","290","200","221","spektor","null","null","null","null","null","null","null","null","null","null","null","","180","200","260","200","36000","52000","[1,2]","484.6595269594589","54.80041884818907","500.757162800548"
"","canvas-keyboard-response","179","174529","0.0-6.0-5.24","556","","","","","make choice","246","2","","","catch","sh","l","sw","228","219","238","290","200","221","spektor","null","null","null","null","null","null","null","null","null","null","null","","180","200","260","200","36000","52000","[1,2]","","",""
"","canvas-keyboard-response","180","174548","0.0-6.0-6.24","556","","","","","clear_screen","null","null","","","catch","sh","l","sw","228","219","238","290","200","221","spektor","null","null","null","null","null","null","null","null","null","null","null","","180","200","260","200","36000","52000","[1,2]","","",""
"","canvas-keyboard-response","181","174749","0.0-6.0-0.25","556","","","","","pre trial waiting period","null","null","","","catch","sh","l","sw","181","182","172","252","159","217","trueblood","null","null","null","null","null","null","null","null","null","null","null","","180","200","260","200","36000","52000","[2,3]","499.46590312214937","432.33043311157047","446.32034244422465"
"","canvas-keyboard-response","182","174769","0.0-6.0-1.25","556","","","","","clear_screen","null","null","","","catch","sh","l","sw","181","182","172","252","159","217","trueblood","null","null","null","null","null","null","null","null","null","null","null","","180","200","260","200","36000","52000","[2,3]","499.46590312214937","432.33043311157047","446.32034244422465"
"","canvas-keyboard-response","183","175273","0.0-6.0-2.25","556","","","","","rectangles no change","null","null","","","catch","sh","l","sw","181","182","172","252","159","217","trueblood","null","null","null","null","null","null","null","null","null","null","null","","180","200","260","200","36000","52000","[2,3]","499.46590312214937","432.33043311157047","446.32034244422465"
"","canvas-keyboard-response","184","176613","0.0-6.0-3.25","556","","","","","rectangles with change","null","null","","","catch","sh","l","sw","181","182","172","252","159","217","trueblood","null","null","null","null","null","null","null","null","null","null","null","","180","200","260","200","36000","52000","[2,3]","499.46590312214937","432.33043311157047","446.32034244422465"
"","canvas-keyboard-response","185","176634","0.0-6.0-4.25","556","","","","","clear_screen","null","null","","","catch","sh","l","sw","181","182","172","252","159","217","trueblood","null","null","null","null","null","null","null","null","null","null","null","","180","200","260","200","36000","52000","[2,3]","499.46590312214937","432.33043311157047","446.32034244422465"
"","canvas-keyboard-response","186","176874","0.0-6.0-5.25","556","","","","","make choice","235","2","","","catch","sh","l","sw","181","182","172","252","159","217","trueblood","null","null","null","null","null","null","null","null","null","null","null","","180","200","260","200","36000","52000","[2,3]","","",""
"","canvas-keyboard-response","187","176892","0.0-6.0-6.25","556","","","","","clear_screen","null","null","","","catch","sh","l","sw","181","182","172","252","159","217","trueblood","null","null","null","null","null","null","null","null","null","null","null","","180","200","260","200","36000","52000","[2,3]","","",""
"","canvas-keyboard-response","188","177093","0.0-6.0-0.26","556","","","","","pre trial waiting period","null","null","","","critical","d","t","c","227.1683","158.0083","240","164","164","240","trueblood","0.09","w","240","164","164","240","227.1683","158.0083","39360","39360","35894.4834","dc","null","null","null","null","null","null","[1,3]","479.32348564700885","478.7277532956312","459.91753400421857"
"","canvas-keyboard-response","189","177116","0.0-6.0-1.26","556","","","","","clear_screen","null","null","","","critical","d","t","c","227.1683","158.0083","240","164","164","240","trueblood","0.09","w","240","164","164","240","227.1683","158.0083","39360","39360","35894.4834","dc","null","null","null","null","null","null","[1,3]","479.32348564700885","478.7277532956312","459.91753400421857"
"","canvas-keyboard-response","190","177629","0.0-6.0-2.26","556","","","","","rectangles no change","null","null","","","critical","d","t","c","227.1683","158.0083","240","164","164","240","trueblood","0.09","w","240","164","164","240","227.1683","158.0083","39360","39360","35894.4834","dc","null","null","null","null","null","null","[1,3]","479.32348564700885","478.7277532956312","459.91753400421857"
"","canvas-keyboard-response","191","178965","0.0-6.0-3.26","556","","","","","rectangles with change","null","null","","","critical","d","t","c","227.1683","158.0083","240","164","164","240","trueblood","0.09","w","240","164","164","240","227.1683","158.0083","39360","39360","35894.4834","dc","null","null","null","null","null","null","[1,3]","479.32348564700885","478.7277532956312","459.91753400421857"
"","canvas-keyboard-response","192","178985","0.0-6.0-4.26","556","","","","","clear_screen","null","null","","","critical","d","t","c","227.1683","158.0083","240","164","164","240","trueblood","0.09","w","240","164","164","240","227.1683","158.0083","39360","39360","35894.4834","dc","null","null","null","null","null","null","[1,3]","479.32348564700885","478.7277532956312","459.91753400421857"
"","canvas-keyboard-response","193","179226","0.0-6.0-5.26","556","","","","","make choice","234","3","","","critical","d","t","c","227.1683","158.0083","240","164","164","240","trueblood","0.09","w","240","164","164","240","227.1683","158.0083","39360","39360","35894.4834","dc","null","null","null","null","null","null","[1,3]","","",""
"","canvas-keyboard-response","194","179245","0.0-6.0-6.26","556","","","","","clear_screen","null","null","","","critical","d","t","c","227.1683","158.0083","240","164","164","240","trueblood","0.09","w","240","164","164","240","227.1683","158.0083","39360","39360","35894.4834","dc","null","null","null","null","null","null","[1,3]","","",""
"","canvas-keyboard-response","195","179446","0.0-6.0-0.27","556","","","","","pre trial waiting period","null","null","","","critical","c","d","t","240","164","158.0083","227.1683","164","240","spektor","0.09","h","164","240","240","164","158.0083","227.1683","39360","39360","35894.4834","dc","null","null","null","null","null","null","[2,1]","506.1990884703993","119.39312983941214","465.87970376064123"
"","canvas-keyboard-response","196","179465","0.0-6.0-1.27","556","","","","","clear_screen","null","null","","","critical","c","d","t","240","164","158.0083","227.1683","164","240","spektor","0.09","h","164","240","240","164","158.0083","227.1683","39360","39360","35894.4834","dc","null","null","null","null","null","null","[2,1]","506.1990884703993","119.39312983941214","465.87970376064123"
"","canvas-keyboard-response","197","179974","0.0-6.0-2.27","556","","","","","rectangles no change","null","null","","","critical","c","d","t","240","164","158.0083","227.1683","164","240","spektor","0.09","h","164","240","240","164","158.0083","227.1683","39360","39360","35894.4834","dc","null","null","null","null","null","null","[2,1]","506.1990884703993","119.39312983941214","465.87970376064123"
"","canvas-keyboard-response","198","181310","0.0-6.0-3.27","556","","","","","rectangles with change","null","null","","","critical","c","d","t","240","164","158.0083","227.1683","164","240","spektor","0.09","h","164","240","240","164","158.0083","227.1683","39360","39360","35894.4834","dc","null","null","null","null","null","null","[2,1]","506.1990884703993","119.39312983941214","465.87970376064123"
"","canvas-keyboard-response","199","181330","0.0-6.0-4.27","556","","","","","clear_screen","null","null","","","critical","c","d","t","240","164","158.0083","227.1683","164","240","spektor","0.09","h","164","240","240","164","158.0083","227.1683","39360","39360","35894.4834","dc","null","null","null","null","null","null","[2,1]","506.1990884703993","119.39312983941214","465.87970376064123"
"","canvas-keyboard-response","200","181930","0.0-6.0-5.27","556","","","","","make choice","595","1","","","critical","c","d","t","240","164","158.0083","227.1683","164","240","spektor","0.09","h","164","240","240","164","158.0083","227.1683","39360","39360","35894.4834","dc","null","null","null","null","null","null","[2,1]","","",""
"","canvas-keyboard-response","201","181948","0.0-6.0-6.27","556","","","","","clear_screen","null","null","","","critical","c","d","t","240","164","158.0083","227.1683","164","240","spektor","0.09","h","164","240","240","164","158.0083","227.1683","39360","39360","35894.4834","dc","null","null","null","null","null","null","[2,1]","","",""
"","canvas-keyboard-response","202","182150","0.0-6.0-0.28","556","","","","","pre trial waiting period","null","null","","","critical","d","c","t","220.0396","154.6796","164","240","240","164","spektor","0.14","w","240","164","164","240","220.0396","154.6796","39360","39360","34035.6388","dc","null","null","null","null","null","null","[1,2]","507.363463118994","131.2079746666014","504.39061801281764"
"","canvas-keyboard-response","203","182169","0.0-6.0-1.28","556","","","","","clear_screen","null","null","","","critical","d","c","t","220.0396","154.6796","164","240","240","164","spektor","0.14","w","240","164","164","240","220.0396","154.6796","39360","39360","34035.6388","dc","null","null","null","null","null","null","[1,2]","507.363463118994","131.2079746666014","504.39061801281764"
"","canvas-keyboard-response","204","182676","0.0-6.0-2.28","556","","","","","rectangles no change","null","null","","","critical","d","c","t","220.0396","154.6796","164","240","240","164","spektor","0.14","w","240","164","164","240","220.0396","154.6796","39360","39360","34035.6388","dc","null","null","null","null","null","null","[1,2]","507.363463118994","131.2079746666014","504.39061801281764"
"","canvas-keyboard-response","205","184012","0.0-6.0-3.28","556","","","","","rectangles with change","null","null","","","critical","d","c","t","220.0396","154.6796","164","240","240","164","spektor","0.14","w","240","164","164","240","220.0396","154.6796","39360","39360","34035.6388","dc","null","null","null","null","null","null","[1,2]","507.363463118994","131.2079746666014","504.39061801281764"
"","canvas-keyboard-response","206","184030","0.0-6.0-4.28","556","","","","","clear_screen","null","null","","","critical","d","c","t","220.0396","154.6796","164","240","240","164","spektor","0.14","w","240","164","164","240","220.0396","154.6796","39360","39360","34035.6388","dc","null","null","null","null","null","null","[1,2]","507.363463118994","131.2079746666014","504.39061801281764"
"","canvas-keyboard-response","207","186465","0.0-6.0-5.28","556","","","","","make choice","2430","1","","","critical","d","c","t","220.0396","154.6796","164","240","240","164","spektor","0.14","w","240","164","164","240","220.0396","154.6796","39360","39360","34035.6388","dc","null","null","null","null","null","null","[1,2]","","",""
"","canvas-keyboard-response","208","186483","0.0-6.0-6.28","556","","","","","clear_screen","null","null","","","critical","d","c","t","220.0396","154.6796","164","240","240","164","spektor","0.14","w","240","164","164","240","220.0396","154.6796","39360","39360","34035.6388","dc","null","null","null","null","null","null","[1,2]","","",""
"","canvas-keyboard-response","209","186684","0.0-6.0-0.29","556","","","","","pre trial waiting period","null","null","","","catch","sw","l","sh","180","200","173","256","227","188","spektor","null","null","null","null","null","null","null","null","null","null","null","","180","200","260","200","36000","52000","[1,2]","505.3974476922738","116.0448570846774","527.6520607943457"
"","canvas-keyboard-response","210","186707","0.0-6.0-1.29","556","","","","","clear_screen","null","null","","","catch","sw","l","sh","180","200","173","256","227","188","spektor","null","null","null","null","null","null","null","null","null","null","null","","180","200","260","200","36000","52000","[1,2]","505.3974476922738","116.0448570846774","527.6520607943457"
"","canvas-keyboard-response","211","187214","0.0-6.0-2.29","556","","","","","rectangles no change","null","null","","","catch","sw","l","sh","180","200","173","256","227","188","spektor","null","null","null","null","null","null","null","null","null","null","null","","180","200","260","200","36000","52000","[1,2]","505.3974476922738","116.0448570846774","527.6520607943457"
"","canvas-keyboard-response","212","188552","0.0-6.0-3.29","556","","","","","rectangles with change","null","null","","","catch","sw","l","sh","180","200","173","256","227","188","spektor","null","null","null","null","null","null","null","null","null","null","null","","180","200","260","200","36000","52000","[1,2]","505.3974476922738","116.0448570846774","527.6520607943457"
"","canvas-keyboard-response","213","188571","0.0-6.0-4.29","556","","","","","clear_screen","null","null","","","catch","sw","l","sh","180","200","173","256","227","188","spektor","null","null","null","null","null","null","null","null","null","null","null","","180","200","260","200","36000","52000","[1,2]","505.3974476922738","116.0448570846774","527.6520607943457"
"","canvas-keyboard-response","214","188944","0.0-6.0-5.29","556","","","","","make choice","361","2","","","catch","sw","l","sh","180","200","173","256","227","188","spektor","null","null","null","null","null","null","null","null","null","null","null","","180","200","260","200","36000","52000","[1,2]","","",""
"","canvas-keyboard-response","215","188962","0.0-6.0-6.29","556","","","","","clear_screen","null","null","","","catch","sw","l","sh","180","200","173","256","227","188","spektor","null","null","null","null","null","null","null","null","null","null","null","","180","200","260","200","36000","52000","[1,2]","","",""
"","canvas-keyboard-response","216","189163","0.0-6.0-0.30","556","","","","","pre trial waiting period","null","null","","","critical","t","c","d","240","164","164","240","240","164","trueblood","0","w","240","164","164","240","240","164","39360","39360","39360","dc","null","null","null","null","null","null","[3,2]","515.2541823591455","428.08080399400876","490.6126100870429"
"","canvas-keyboard-response","217","189182","0.0-6.0-1.30","556","","","","","clear_screen","null","null","","","critical","t","c","d","240","164","164","240","240","164","trueblood","0","w","240","164","164","240","240","164","39360","39360","39360","dc","null","null","null","null","null","null","[3,2]","515.2541823591455","428.08080399400876","490.6126100870429"
"","canvas-keyboard-response","218","189689","0.0-6.0-2.30","556","","","","","rectangles no change","null","null","","","critical","t","c","d","240","164","164","240","240","164","trueblood","0","w","240","164","164","240","240","164","39360","39360","39360","dc","null","null","null","null","null","null","[3,2]","515.2541823591455","428.08080399400876","490.6126100870429"
"","canvas-keyboard-response","219","191028","0.0-6.0-3.30","556","","","","","rectangles with change","null","null","","","critical","t","c","d","240","164","164","240","240","164","trueblood","0","w","240","164","164","240","240","164","39360","39360","39360","dc","null","null","null","null","null","null","[3,2]","515.2541823591455","428.08080399400876","490.6126100870429"
"","canvas-keyboard-response","220","191051","0.0-6.0-4.30","556","","","","","clear_screen","null","null","","","critical","t","c","d","240","164","164","240","240","164","trueblood","0","w","240","164","164","240","240","164","39360","39360","39360","dc","null","null","null","null","null","null","[3,2]","515.2541823591455","428.08080399400876","490.6126100870429"
"","canvas-keyboard-response","221","191315","0.0-6.0-5.30","556","","","","","make choice","258","3","","","critical","t","c","d","240","164","164","240","240","164","trueblood","0","w","240","164","164","240","240","164","39360","39360","39360","dc","null","null","null","null","null","null","[3,2]","","",""
"","canvas-keyboard-response","222","191331","0.0-6.0-6.30","556","","","","","clear_screen","null","null","","","critical","t","c","d","240","164","164","240","240","164","trueblood","0","w","240","164","164","240","240","164","39360","39360","39360","dc","null","null","null","null","null","null","[3,2]","","",""
"","canvas-keyboard-response","223","191532","0.0-6.0-0.31","556","","","","","pre trial waiting period","null","null","","","critical","t","c","d","240","164","164","240","232.8713","160.6713","spektor","0.05","w","240","164","164","240","232.8713","160.6713","39360","39360","37415.7294","dc","null","null","null","null","null","null","[3,2]","534.2317228061395","135.35278841222137","498.7909133473377"
"","canvas-keyboard-response","224","191556","0.0-6.0-1.31","556","","","","","clear_screen","null","null","","","critical","t","c","d","240","164","164","240","232.8713","160.6713","spektor","0.05","w","240","164","164","240","232.8713","160.6713","39360","39360","37415.7294","dc","null","null","null","null","null","null","[3,2]","534.2317228061395","135.35278841222137","498.7909133473377"
"","canvas-keyboard-response","225","192064","0.0-6.0-2.31","556","","","","","rectangles no change","null","null","","","critical","t","c","d","240","164","164","240","232.8713","160.6713","spektor","0.05","w","240","164","164","240","232.8713","160.6713","39360","39360","37415.7294","dc","null","null","null","null","null","null","[3,2]","534.2317228061395","135.35278841222137","498.7909133473377"
"","canvas-keyboard-response","226","193404","0.0-6.0-3.31","556","","","","","rectangles with change","null","null","","","critical","t","c","d","240","164","164","240","232.8713","160.6713","spektor","0.05","w","240","164","164","240","232.8713","160.6713","39360","39360","37415.7294","dc","null","null","null","null","null","null","[3,2]","534.2317228061395","135.35278841222137","498.7909133473377"
"","canvas-keyboard-response","227","193428","0.0-6.0-4.31","556","","","","","clear_screen","null","null","","","critical","t","c","d","240","164","164","240","232.8713","160.6713","spektor","0.05","w","240","164","164","240","232.8713","160.6713","39360","39360","37415.7294","dc","null","null","null","null","null","null","[3,2]","534.2317228061395","135.35278841222137","498.7909133473377"
"","canvas-keyboard-response","228","193810","0.0-6.0-5.31","556","","","","","make choice","375","3","","","critical","t","c","d","240","164","164","240","232.8713","160.6713","spektor","0.05","w","240","164","164","240","232.8713","160.6713","39360","39360","37415.7294","dc","null","null","null","null","null","null","[3,2]","","",""
"","canvas-keyboard-response","229","193830","0.0-6.0-6.31","556","","","","","clear_screen","null","null","","","critical","t","c","d","240","164","164","240","232.8713","160.6713","spektor","0.05","w","240","164","164","240","232.8713","160.6713","39360","39360","37415.7294","dc","null","null","null","null","null","null","[3,2]","","",""
"","canvas-keyboard-response","230","194031","0.0-6.0-0.32","556","","","","","pre trial waiting period","null","null","","","critical","c","t","d","164","240","240","164","240","164","trueblood","0","w","240","164","164","240","240","164","39360","39360","39360","tc","null","null","null","null","null","null","[2,1]","453.12457000388554","509.1824128206766","477.5118585718759"
"","canvas-keyboard-response","231","194051","0.0-6.0-1.32","556","","","","","clear_screen","null","null","","","critical","c","t","d","164","240","240","164","240","164","trueblood","0","w","240","164","164","240","240","164","39360","39360","39360","tc","null","null","null","null","null","null","[2,1]","453.12457000388554","509.1824128206766","477.5118585718759"
"","canvas-keyboard-response","232","194556","0.0-6.0-2.32","556","","","","","rectangles no change","null","null","","","critical","c","t","d","164","240","240","164","240","164","trueblood","0","w","240","164","164","240","240","164","39360","39360","39360","tc","null","null","null","null","null","null","[2,1]","453.12457000388554","509.1824128206766","477.5118585718759"
"","canvas-keyboard-response","233","195893","0.0-6.0-3.32","556","","","","","rectangles with change","null","null","","","critical","c","t","d","164","240","240","164","240","164","trueblood","0","w","240","164","164","240","240","164","39360","39360","39360","tc","null","null","null","null","null","null","[2,1]","453.12457000388554","509.1824128206766","477.5118585718759"
"","canvas-keyboard-response","234","195913","0.0-6.0-4.32","556","","","","","clear_screen","null","null","","","critical","c","t","d","164","240","240","164","240","164","trueblood","0","w","240","164","164","240","240","164","39360","39360","39360","tc","null","null","null","null","null","null","[2,1]","453.12457000388554","509.1824128206766","477.5118585718759"
"","canvas-keyboard-response","235","196338","0.0-6.0-5.32","556","","","","","make choice","418","2","","","critical","c","t","d","164","240","240","164","240","164","trueblood","0","w","240","164","164","240","240","164","39360","39360","39360","tc","null","null","null","null","null","null","[2,1]","","",""
"","canvas-keyboard-response","236","196360","0.0-6.0-6.32","556","","","","","clear_screen","null","null","","","critical","c","t","d","164","240","240","164","240","164","trueblood","0","w","240","164","164","240","240","164","39360","39360","39360","tc","null","null","null","null","null","null","[2,1]","","",""
"","canvas-keyboard-response","237","196561","0.0-6.0-0.33","556","","","","","pre trial waiting period","null","null","","","critical","t","c","d","164","240","240","164","160.6713","232.8713","trueblood","0.05","h","164","240","240","164","160.6713","232.8713","39360","39360","37415.7294","dc","null","null","null","null","null","null","[3,2]","454.2501382199951","517.8257347000779","435.8536371336738"
"","canvas-keyboard-response","238","196585","0.0-6.0-1.33","556","","","","","clear_screen","null","null","","","critical","t","c","d","164","240","240","164","160.6713","232.8713","trueblood","0.05","h","164","240","240","164","160.6713","232.8713","39360","39360","37415.7294","dc","null","null","null","null","null","null","[3,2]","454.2501382199951","517.8257347000779","435.8536371336738"
"","canvas-keyboard-response","239","197097","0.0-6.0-2.33","556","","","","","rectangles no change","null","null","","","critical","t","c","d","164","240","240","164","160.6713","232.8713","trueblood","0.05","h","164","240","240","164","160.6713","232.8713","39360","39360","37415.7294","dc","null","null","null","null","null","null","[3,2]","454.2501382199951","517.8257347000779","435.8536371336738"
"","canvas-keyboard-response","240","198436","0.0-6.0-3.33","556","","","","","rectangles with change","null","null","","","critical","t","c","d","164","240","240","164","160.6713","232.8713","trueblood","0.05","h","164","240","240","164","160.6713","232.8713","39360","39360","37415.7294","dc","null","null","null","null","null","null","[3,2]","454.2501382199951","517.8257347000779","435.8536371336738"
"","canvas-keyboard-response","241","198454","0.0-6.0-4.33","556","","","","","clear_screen","null","null","","","critical","t","c","d","164","240","240","164","160.6713","232.8713","trueblood","0.05","h","164","240","240","164","160.6713","232.8713","39360","39360","37415.7294","dc","null","null","null","null","null","null","[3,2]","454.2501382199951","517.8257347000779","435.8536371336738"
"","canvas-keyboard-response","242","198857","0.0-6.0-5.33","556","","","","","make choice","397","2","","","critical","t","c","d","164","240","240","164","160.6713","232.8713","trueblood","0.05","h","164","240","240","164","160.6713","232.8713","39360","39360","37415.7294","dc","null","null","null","null","null","null","[3,2]","","",""
"","canvas-keyboard-response","243","198877","0.0-6.0-6.33","556","","","","","clear_screen","null","null","","","critical","t","c","d","164","240","240","164","160.6713","232.8713","trueblood","0.05","h","164","240","240","164","160.6713","232.8713","39360","39360","37415.7294","dc","null","null","null","null","null","null","[3,2]","","",""
"","canvas-keyboard-response","244","199078","0.0-6.0-0.34","556","","","","","pre trial waiting period","null","null","","","critical","c","d","t","240","164","154.6796","220.0396","164","240","trueblood","0.14","h","164","240","240","164","154.6796","220.0396","39360","39360","34035.6388","tc","null","null","null","null","null","null","[3,1]","493.9729489780561","447.3924423421401","419.2153585744259"
"","canvas-keyboard-response","245","199098","0.0-6.0-1.34","556","","","","","clear_screen","null","null","","","critical","c","d","t","240","164","154.6796","220.0396","164","240","trueblood","0.14","h","164","240","240","164","154.6796","220.0396","39360","39360","34035.6388","tc","null","null","null","null","null","null","[3,1]","493.9729489780561","447.3924423421401","419.2153585744259"
"","canvas-keyboard-response","246","199606","0.0-6.0-2.34","556","","","","","rectangles no change","null","null","","","critical","c","d","t","240","164","154.6796","220.0396","164","240","trueblood","0.14","h","164","240","240","164","154.6796","220.0396","39360","39360","34035.6388","tc","null","null","null","null","null","null","[3,1]","493.9729489780561","447.3924423421401","419.2153585744259"
"","canvas-keyboard-response","247","200944","0.0-6.0-3.34","556","","","","","rectangles with change","null","null","","","critical","c","d","t","240","164","154.6796","220.0396","164","240","trueblood","0.14","h","164","240","240","164","154.6796","220.0396","39360","39360","34035.6388","tc","null","null","null","null","null","null","[3,1]","493.9729489780561","447.3924423421401","419.2153585744259"
"","canvas-keyboard-response","248","200965","0.0-6.0-4.34","556","","","","","clear_screen","null","null","","","critical","c","d","t","240","164","154.6796","220.0396","164","240","trueblood","0.14","h","164","240","240","164","154.6796","220.0396","39360","39360","34035.6388","tc","null","null","null","null","null","null","[3,1]","493.9729489780561","447.3924423421401","419.2153585744259"
"","canvas-keyboard-response","249","201337","0.0-6.0-5.34","556","","","","","make choice","367","1","","","critical","c","d","t","240","164","154.6796","220.0396","164","240","trueblood","0.14","h","164","240","240","164","154.6796","220.0396","39360","39360","34035.6388","tc","null","null","null","null","null","null","[3,1]","","",""
"","canvas-keyboard-response","250","201356","0.0-6.0-6.34","556","","","","","clear_screen","null","null","","","critical","c","d","t","240","164","154.6796","220.0396","164","240","trueblood","0.14","h","164","240","240","164","154.6796","220.0396","39360","39360","34035.6388","tc","null","null","null","null","null","null","[3,1]","","",""
"","canvas-keyboard-response","251","201557","0.0-6.0-0.35","556","","","","","pre trial waiting period","null","null","","","critical","d","c","t","227.1683","158.0083","164","240","240","164","trueblood","0.09","w","240","164","164","240","227.1683","158.0083","39360","39360","35894.4834","tc","null","null","null","null","null","null","[3,2]","508.35693614864846","449.42605470258997","486.0157080655195"
"","canvas-keyboard-response","252","201577","0.0-6.0-1.35","556","","","","","clear_screen","null","null","","","critical","d","c","t","227.1683","158.0083","164","240","240","164","trueblood","0.09","w","240","164","164","240","227.1683","158.0083","39360","39360","35894.4834","tc","null","null","null","null","null","null","[3,2]","508.35693614864846","449.42605470258997","486.0157080655195"
"","canvas-keyboard-response","253","202085","0.0-6.0-2.35","556","","","","","rectangles no change","null","null","","","critical","d","c","t","227.1683","158.0083","164","240","240","164","trueblood","0.09","w","240","164","164","240","227.1683","158.0083","39360","39360","35894.4834","tc","null","null","null","null","null","null","[3,2]","508.35693614864846","449.42605470258997","486.0157080655195"
"","canvas-keyboard-response","254","203423","0.0-6.0-3.35","556","","","","","rectangles with change","null","null","","","critical","d","c","t","227.1683","158.0083","164","240","240","164","trueblood","0.09","w","240","164","164","240","227.1683","158.0083","39360","39360","35894.4834","tc","null","null","null","null","null","null","[3,2]","508.35693614864846","449.42605470258997","486.0157080655195"
"","canvas-keyboard-response","255","203442","0.0-6.0-4.35","556","","","","","clear_screen","null","null","","","critical","d","c","t","227.1683","158.0083","164","240","240","164","trueblood","0.09","w","240","164","164","240","227.1683","158.0083","39360","39360","35894.4834","tc","null","null","null","null","null","null","[3,2]","508.35693614864846","449.42605470258997","486.0157080655195"
"","canvas-keyboard-response","256","204057","0.0-6.0-5.35","556","","","","","make choice","610","2","","","critical","d","c","t","227.1683","158.0083","164","240","240","164","trueblood","0.09","w","240","164","164","240","227.1683","158.0083","39360","39360","35894.4834","tc","null","null","null","null","null","null","[3,2]","","",""
"","canvas-keyboard-response","257","204075","0.0-6.0-6.35","556","","","","","clear_screen","null","null","","","critical","d","c","t","227.1683","158.0083","164","240","240","164","trueblood","0.09","w","240","164","164","240","227.1683","158.0083","39360","39360","35894.4834","tc","null","null","null","null","null","null","[3,2]","","",""
"","canvas-keyboard-response","258","204276","0.0-6.0-0.36","556","","","","","pre trial waiting period","null","null","","","critical","c","d","t","164","240","232.8713","160.6713","240","164","trueblood","0.05","w","240","164","164","240","232.8713","160.6713","39360","39360","37415.7294","tc","null","null","null","null","null","null","[3,1]","460.3549258843367","482.27824669803556","477.0355226343755"
"","canvas-keyboard-response","259","204297","0.0-6.0-1.36","556","","","","","clear_screen","null","null","","","critical","c","d","t","164","240","232.8713","160.6713","240","164","trueblood","0.05","w","240","164","164","240","232.8713","160.6713","39360","39360","37415.7294","tc","null","null","null","null","null","null","[3,1]","460.3549258843367","482.27824669803556","477.0355226343755"
"","canvas-keyboard-response","260","204805","0.0-6.0-2.36","556","","","","","rectangles no change","null","null","","","critical","c","d","t","164","240","232.8713","160.6713","240","164","trueblood","0.05","w","240","164","164","240","232.8713","160.6713","39360","39360","37415.7294","tc","null","null","null","null","null","null","[3,1]","460.3549258843367","482.27824669803556","477.0355226343755"
"","canvas-keyboard-response","261","206144","0.0-6.0-3.36","556","","","","","rectangles with change","null","null","","","critical","c","d","t","164","240","232.8713","160.6713","240","164","trueblood","0.05","w","240","164","164","240","232.8713","160.6713","39360","39360","37415.7294","tc","null","null","null","null","null","null","[3,1]","460.3549258843367","482.27824669803556","477.0355226343755"
"","canvas-keyboard-response","262","206162","0.0-6.0-4.36","556","","","","","clear_screen","null","null","","","critical","c","d","t","164","240","232.8713","160.6713","240","164","trueblood","0.05","w","240","164","164","240","232.8713","160.6713","39360","39360","37415.7294","tc","null","null","null","null","null","null","[3,1]","460.3549258843367","482.27824669803556","477.0355226343755"
"","canvas-keyboard-response","263","206472","0.0-6.0-5.36","556","","","","","make choice","296","1","","","critical","c","d","t","164","240","232.8713","160.6713","240","164","trueblood","0.05","w","240","164","164","240","232.8713","160.6713","39360","39360","37415.7294","tc","null","null","null","null","null","null","[3,1]","","",""
"","canvas-keyboard-response","264","206485","0.0-6.0-6.36","556","","","","","clear_screen","null","null","","","critical","c","d","t","164","240","232.8713","160.6713","240","164","trueblood","0.05","w","240","164","164","240","232.8713","160.6713","39360","39360","37415.7294","tc","null","null","null","null","null","null","[3,1]","","",""
"","canvas-keyboard-response","265","206686","0.0-6.0-0.37","556","","","","","pre trial waiting period","null","null","","","catch","sh","l","sw","168","169","211","267","148","234","trueblood","null","null","null","null","null","null","null","null","null","null","null","","180","200","260","200","36000","52000","[1,2]","493.81901859649474","440.8668382227624","444.8345528054081"
"","canvas-keyboard-response","266","206706","0.0-6.0-1.37","556","","","","","clear_screen","null","null","","","catch","sh","l","sw","168","169","211","267","148","234","trueblood","null","null","null","null","null","null","null","null","null","null","null","","180","200","260","200","36000","52000","[1,2]","493.81901859649474","440.8668382227624","444.8345528054081"
