"success","trial_type","trial_index","time_elapsed","internal_node_id","sub_n","timeout","failed_images","failed_audio","failed_video","screen_id","rt","response","stimulus","view_history","trial","r1","r2","r3","w1","h1","w2","h2","w3","h3","display","tdd","tdo","tw","th","cw","ch","dw","dh","ta","ca","da","probe","csls","csss","clls","clss","sa","la","probe_rects","r1yloc","r2yloc","r3yloc"
"true","fullscreen","0","3224","0.0-0.0","509","","","","","","","","","","","","","","","","","","","","","","","","","","","","","","","","","","","","","","","","","",""
"true","preload","1","3231","0.0-1.0","509","false","[]","[]","[]","img preload","","","","","","","","","","","","","","","","","","","","","","","","","","","","","","","","","","","","",""
"","survey-html-form","2","5267","0.0-2.0","509","","","","","enter-sub-number","2031","{""response"":""509""}","","","","","","","","","","","","","","","","","","","","","","","","","","","","","","","","","","",""
"","image-button-response","3","19922","0.0-3.0","509","","","","","","14581","0","consent.png","","","","","","","","","","","","","","","","","","","","","","","","","","","","","","","","","",""
"","html-button-response","4","29249","0.0-4.0","509","","","","","intro mssg","9321","0","<div style= ""font-size:25px;"" <p> <strong> Welcome! </strong><br> <p style=""color:#8B0000; font-size:25px;""><strong> Please do NOT exit full screen until you are done with the experiment. </strong> </p><p style=""font-size:25px;color:#8B0000;""> <strong> Your data will be lost <br> if you try to go back or refresh the page after the experiment starts. Feel free to click ""previous"" during the instructions, however.</strong> </p><br><p> <strong> Thanks in advance for your contribution to our research! </strong></p>","","","","","","","","","","","","","","","","","","","","","","","","","","","","","","","","","",""
"","instructions","5","65680","0.0-5.0","509","","","","","instructions","36427","","","[{""page_index"":0,""viewing_time"":4915},{""page_index"":1,""viewing_time"":7736},{""page_index"":2,""viewing_time"":5815},{""page_index"":3,""viewing_time"":7207},{""page_index"":4,""viewing_time"":4202},{""page_index"":5,""viewing_time"":3296},{""page_index"":6,""viewing_time"":2191},{""page_index"":7,""viewing_time"":1065}]","","","","","","","","","","","","","","","","","","","","","","","","","","","","","","","","",""
"","canvas-keyboard-response","6","65885","0.0-6.0-0.0","509","","","","","pre trial waiting period","null","null","","","critical","c","t","d","240","164","164","240","162.6685","237.1485","trueblood","0.02","h","164","240","240","164","162.6685","237.1485","39360","39360","38576.5967","tc","null","null","null","null","null","null","[2,1]","491.18878423091604","420.04140440833345","438.6273392296465"
"","canvas-keyboard-response","7","65910","0.0-6.0-1.0","509","","","","","clear_screen","null","null","","","critical","c","t","d","240","164","164","240","162.6685","237.1485","trueblood","0.02","h","164","240","240","164","162.6685","237.1485","39360","39360","38576.5967","tc","null","null","null","null","null","null","[2,1]","491.18878423091604","420.04140440833345","438.6273392296465"
"","canvas-keyboard-response","8","66421","0.0-6.0-2.0","509","","","","","rectangles no change","null","null","","","critical","c","t","d","240","164","164","240","162.6685","237.1485","trueblood","0.02","h","164","240","240","164","162.6685","237.1485","39360","39360","38576.5967","tc","null","null","null","null","null","null","[2,1]","491.18878423091604","420.04140440833345","438.6273392296465"
"","canvas-keyboard-response","9","67758","0.0-6.0-3.0","509","","","","","rectangles with change","null","null","","","critical","c","t","d","240","164","164","240","162.6685","237.1485","trueblood","0.02","h","164","240","240","164","162.6685","237.1485","39360","39360","38576.5967","tc","null","null","null","null","null","null","[2,1]","491.18878423091604","420.04140440833345","438.6273392296465"
"","canvas-keyboard-response","10","67781","0.0-6.0-4.0","509","","","","","clear_screen","null","null","","","critical","c","t","d","240","164","164","240","162.6685","237.1485","trueblood","0.02","h","164","240","240","164","162.6685","237.1485","39360","39360","38576.5967","tc","null","null","null","null","null","null","[2,1]","491.18878423091604","420.04140440833345","438.6273392296465"
"","canvas-keyboard-response","11","69368","0.0-6.0-5.0","509","","","","","make choice","1579","1","","","critical","c","t","d","240","164","164","240","162.6685","237.1485","trueblood","0.02","h","164","240","240","164","162.6685","237.1485","39360","39360","38576.5967","tc","null","null","null","null","null","null","[2,1]","","",""
"","canvas-keyboard-response","12","69389","0.0-6.0-6.0","509","","","","","clear_screen","null","null","","","critical","c","t","d","240","164","164","240","162.6685","237.1485","trueblood","0.02","h","164","240","240","164","162.6685","237.1485","39360","39360","38576.5967","tc","null","null","null","null","null","null","[2,1]","","",""
"","canvas-keyboard-response","13","69591","0.0-6.0-0.1","509","","","","","pre trial waiting period","null","null","","","critical","c","d","t","164","240","237.1485","162.6685","240","164","trueblood","0.02","w","240","164","164","240","237.1485","162.6685","39360","39360","38576.5967","td","null","null","null","null","null","null","[3,2]","439.8948315710752","508.81286814346333","511.0574322640004"
"","canvas-keyboard-response","14","69612","0.0-6.0-1.1","509","","","","","clear_screen","null","null","","","critical","c","d","t","164","240","237.1485","162.6685","240","164","trueblood","0.02","w","240","164","164","240","237.1485","162.6685","39360","39360","38576.5967","td","null","null","null","null","null","null","[3,2]","439.8948315710752","508.81286814346333","511.0574322640004"
"","canvas-keyboard-response","15","70120","0.0-6.0-2.1","509","","","","","rectangles no change","null","null","","","critical","c","d","t","164","240","237.1485","162.6685","240","164","trueblood","0.02","w","240","164","164","240","237.1485","162.6685","39360","39360","38576.5967","td","null","null","null","null","null","null","[3,2]","439.8948315710752","508.81286814346333","511.0574322640004"
"","canvas-keyboard-response","16","71457","0.0-6.0-3.1","509","","","","","rectangles with change","null","null","","","critical","c","d","t","164","240","237.1485","162.6685","240","164","trueblood","0.02","w","240","164","164","240","237.1485","162.6685","39360","39360","38576.5967","td","null","null","null","null","null","null","[3,2]","439.8948315710752","508.81286814346333","511.0574322640004"
"","canvas-keyboard-response","17","71477","0.0-6.0-4.1","509","","","","","clear_screen","null","null","","","critical","c","d","t","164","240","237.1485","162.6685","240","164","trueblood","0.02","w","240","164","164","240","237.1485","162.6685","39360","39360","38576.5967","td","null","null","null","null","null","null","[3,2]","439.8948315710752","508.81286814346333","511.0574322640004"
"","canvas-keyboard-response","18","72336","0.0-6.0-5.1","509","","","","","make choice","853","3","","","critical","c","d","t","164","240","237.1485","162.6685","240","164","trueblood","0.02","w","240","164","164","240","237.1485","162.6685","39360","39360","38576.5967","td","null","null","null","null","null","null","[3,2]","","",""
"","canvas-keyboard-response","19","72355","0.0-6.0-6.1","509","","","","","clear_screen","null","null","","","critical","c","d","t","164","240","237.1485","162.6685","240","164","trueblood","0.02","w","240","164","164","240","237.1485","162.6685","39360","39360","38576.5967","td","null","null","null","null","null","null","[3,2]","","",""
"","canvas-keyboard-response","20","72556","0.0-6.0-0.2","509","","","","","pre trial waiting period","null","null","","","critical","d","c","t","220.0396","154.6796","164","240","240","164","spektor","0.14","w","240","164","164","240","220.0396","154.6796","39360","39360","34035.6388","td","null","null","null","null","null","null","[3,1]","515.7630230734603","132.40786307822856","499.48504621582657"
"","canvas-keyboard-response","21","72578","0.0-6.0-1.2","509","","","","","clear_screen","null","null","","","critical","d","c","t","220.0396","154.6796","164","240","240","164","spektor","0.14","w","240","164","164","240","220.0396","154.6796","39360","39360","34035.6388","td","null","null","null","null","null","null","[3,1]","515.7630230734603","132.40786307822856","499.48504621582657"
"","canvas-keyboard-response","22","73091","0.0-6.0-2.2","509","","","","","rectangles no change","null","null","","","critical","d","c","t","220.0396","154.6796","164","240","240","164","spektor","0.14","w","240","164","164","240","220.0396","154.6796","39360","39360","34035.6388","td","null","null","null","null","null","null","[3,1]","515.7630230734603","132.40786307822856","499.48504621582657"
"","canvas-keyboard-response","23","74430","0.0-6.0-3.2","509","","","","","rectangles with change","null","null","","","critical","d","c","t","220.0396","154.6796","164","240","240","164","spektor","0.14","w","240","164","164","240","220.0396","154.6796","39360","39360","34035.6388","td","null","null","null","null","null","null","[3,1]","515.7630230734603","132.40786307822856","499.48504621582657"
"","canvas-keyboard-response","24","74449","0.0-6.0-4.2","509","","","","","clear_screen","null","null","","","critical","d","c","t","220.0396","154.6796","164","240","240","164","spektor","0.14","w","240","164","164","240","220.0396","154.6796","39360","39360","34035.6388","td","null","null","null","null","null","null","[3,1]","515.7630230734603","132.40786307822856","499.48504621582657"
"","canvas-keyboard-response","25","74991","0.0-6.0-5.2","509","","","","","make choice","535","3","","","critical","d","c","t","220.0396","154.6796","164","240","240","164","spektor","0.14","w","240","164","164","240","220.0396","154.6796","39360","39360","34035.6388","td","null","null","null","null","null","null","[3,1]","","",""
"","canvas-keyboard-response","26","75010","0.0-6.0-6.2","509","","","","","clear_screen","null","null","","","critical","d","c","t","220.0396","154.6796","164","240","240","164","spektor","0.14","w","240","164","164","240","220.0396","154.6796","39360","39360","34035.6388","td","null","null","null","null","null","null","[3,1]","","",""
"","canvas-keyboard-response","27","75211","0.0-6.0-0.3","509","","","","","pre trial waiting period","null","null","","","critical","c","d","t","240","164","162.6685","237.1485","164","240","spektor","0.02","h","164","240","240","164","162.6685","237.1485","39360","39360","38576.5967","dc","null","null","null","null","null","null","[2,1]","533.816194627416","114.47295664565722","492.1632376570588"
"","canvas-keyboard-response","28","75227","0.0-6.0-1.3","509","","","","","clear_screen","null","null","","","critical","c","d","t","240","164","162.6685","237.1485","164","240","spektor","0.02","h","164","240","240","164","162.6685","237.1485","39360","39360","38576.5967","dc","null","null","null","null","null","null","[2,1]","533.816194627416","114.47295664565722","492.1632376570588"
"","canvas-keyboard-response","29","75738","0.0-6.0-2.3","509","","","","","rectangles no change","null","null","","","critical","c","d","t","240","164","162.6685","237.1485","164","240","spektor","0.02","h","164","240","240","164","162.6685","237.1485","39360","39360","38576.5967","dc","null","null","null","null","null","null","[2,1]","533.816194627416","114.47295664565722","492.1632376570588"
"","canvas-keyboard-response","30","77077","0.0-6.0-3.3","509","","","","","rectangles with change","null","null","","","critical","c","d","t","240","164","162.6685","237.1485","164","240","spektor","0.02","h","164","240","240","164","162.6685","237.1485","39360","39360","38576.5967","dc","null","null","null","null","null","null","[2,1]","533.816194627416","114.47295664565722","492.1632376570588"
"","canvas-keyboard-response","31","77098","0.0-6.0-4.3","509","","","","","clear_screen","null","null","","","critical","c","d","t","240","164","162.6685","237.1485","164","240","spektor","0.02","h","164","240","240","164","162.6685","237.1485","39360","39360","38576.5967","dc","null","null","null","null","null","null","[2,1]","533.816194627416","114.47295664565722","492.1632376570588"
"","canvas-keyboard-response","32","78408","0.0-6.0-5.3","509","","","","","make choice","1303","2","","","critical","c","d","t","240","164","162.6685","237.1485","164","240","spektor","0.02","h","164","240","240","164","162.6685","237.1485","39360","39360","38576.5967","dc","null","null","null","null","null","null","[2,1]","","",""
"","canvas-keyboard-response","33","78427","0.0-6.0-6.3","509","","","","","clear_screen","null","null","","","critical","c","d","t","240","164","162.6685","237.1485","164","240","spektor","0.02","h","164","240","240","164","162.6685","237.1485","39360","39360","38576.5967","dc","null","null","null","null","null","null","[2,1]","","",""
"","canvas-keyboard-response","34","78628","0.0-6.0-0.4","509","","","","","pre trial waiting period","null","null","","","catch","l","sw","sh","217","274","207","170","225","180","spektor","null","null","null","null","null","null","null","null","null","null","null","","180","200","260","200","36000","52000","[1,2]","468.97906130490134","189.0353430457215","510.7629049109218"
"","canvas-keyboard-response","35","78647","0.0-6.0-1.4","509","","","","","clear_screen","null","null","","","catch","l","sw","sh","217","274","207","170","225","180","spektor","null","null","null","null","null","null","null","null","null","null","null","","180","200","260","200","36000","52000","[1,2]","468.97906130490134","189.0353430457215","510.7629049109218"
"","canvas-keyboard-response","36","79154","0.0-6.0-2.4","509","","","","","rectangles no change","null","null","","","catch","l","sw","sh","217","274","207","170","225","180","spektor","null","null","null","null","null","null","null","null","null","null","null","","180","200","260","200","36000","52000","[1,2]","468.97906130490134","189.0353430457215","510.7629049109218"
"","canvas-keyboard-response","37","80489","0.0-6.0-3.4","509","","","","","rectangles with change","null","null","","","catch","l","sw","sh","217","274","207","170","225","180","spektor","null","null","null","null","null","null","null","null","null","null","null","","180","200","260","200","36000","52000","[1,2]","468.97906130490134","189.0353430457215","510.7629049109218"
"","canvas-keyboard-response","38","80507","0.0-6.0-4.4","509","","","","","clear_screen","null","null","","","catch","l","sw","sh","217","274","207","170","225","180","spektor","null","null","null","null","null","null","null","null","null","null","null","","180","200","260","200","36000","52000","[1,2]","468.97906130490134","189.0353430457215","510.7629049109218"
"","canvas-keyboard-response","39","80840","0.0-6.0-5.4","509","","","","","make choice","326","2","","","catch","l","sw","sh","217","274","207","170","225","180","spektor","null","null","null","null","null","null","null","null","null","null","null","","180","200","260","200","36000","52000","[1,2]","","",""
"","canvas-keyboard-response","40","80861","0.0-6.0-6.4","509","","","","","clear_screen","null","null","","","catch","l","sw","sh","217","274","207","170","225","180","spektor","null","null","null","null","null","null","null","null","null","null","null","","180","200","260","200","36000","52000","[1,2]","","",""
"","canvas-keyboard-response","41","81062","0.0-6.0-0.5","509","","","","","pre trial waiting period","null","null","","","critical","c","t","d","240","164","164","240","160.6713","232.8713","spektor","0.05","h","164","240","240","164","160.6713","232.8713","39360","39360","37415.7294","td","null","null","null","null","null","null","[2,3]","519.8935428406206","131.07569891570455","496.5385314666306"
"","canvas-keyboard-response","42","81082","0.0-6.0-1.5","509","","","","","clear_screen","null","null","","","critical","c","t","d","240","164","164","240","160.6713","232.8713","spektor","0.05","h","164","240","240","164","160.6713","232.8713","39360","39360","37415.7294","td","null","null","null","null","null","null","[2,3]","519.8935428406206","131.07569891570455","496.5385314666306"
"","canvas-keyboard-response","43","81591","0.0-6.0-2.5","509","","","","","rectangles no change","null","null","","","critical","c","t","d","240","164","164","240","160.6713","232.8713","spektor","0.05","h","164","240","240","164","160.6713","232.8713","39360","39360","37415.7294","td","null","null","null","null","null","null","[2,3]","519.8935428406206","131.07569891570455","496.5385314666306"
"","canvas-keyboard-response","44","82929","0.0-6.0-3.5","509","","","","","rectangles with change","null","null","","","critical","c","t","d","240","164","164","240","160.6713","232.8713","spektor","0.05","h","164","240","240","164","160.6713","232.8713","39360","39360","37415.7294","td","null","null","null","null","null","null","[2,3]","519.8935428406206","131.07569891570455","496.5385314666306"
"","canvas-keyboard-response","45","82951","0.0-6.0-4.5","509","","","","","clear_screen","null","null","","","critical","c","t","d","240","164","164","240","160.6713","232.8713","spektor","0.05","h","164","240","240","164","160.6713","232.8713","39360","39360","37415.7294","td","null","null","null","null","null","null","[2,3]","519.8935428406206","131.07569891570455","496.5385314666306"
"","canvas-keyboard-response","46","85023","0.0-6.0-5.5","509","","","","","make choice","2065","3","","","critical","c","t","d","240","164","164","240","160.6713","232.8713","spektor","0.05","h","164","240","240","164","160.6713","232.8713","39360","39360","37415.7294","td","null","null","null","null","null","null","[2,3]","","",""
"","canvas-keyboard-response","47","85042","0.0-6.0-6.5","509","","","","","clear_screen","null","null","","","critical","c","t","d","240","164","164","240","160.6713","232.8713","spektor","0.05","h","164","240","240","164","160.6713","232.8713","39360","39360","37415.7294","td","null","null","null","null","null","null","[2,3]","","",""
"","canvas-keyboard-response","48","85243","0.0-6.0-0.6","509","","","","","pre trial waiting period","null","null","","","catch","sh","sw","l","192","187","199","178","296","190","spektor","null","null","null","null","null","null","null","null","null","null","null","","180","200","260","200","36000","52000","[1,3]","488.7202963415605","180.7051385119078","505.6044541067706"
"","canvas-keyboard-response","49","85263","0.0-6.0-1.6","509","","","","","clear_screen","null","null","","","catch","sh","sw","l","192","187","199","178","296","190","spektor","null","null","null","null","null","null","null","null","null","null","null","","180","200","260","200","36000","52000","[1,3]","488.7202963415605","180.7051385119078","505.6044541067706"
"","canvas-keyboard-response","50","85773","0.0-6.0-2.6","509","","","","","rectangles no change","null","null","","","catch","sh","sw","l","192","187","199","178","296","190","spektor","null","null","null","null","null","null","null","null","null","null","null","","180","200","260","200","36000","52000","[1,3]","488.7202963415605","180.7051385119078","505.6044541067706"
"","canvas-keyboard-response","51","87112","0.0-6.0-3.6","509","","","","","rectangles with change","null","null","","","catch","sh","sw","l","192","187","199","178","296","190","spektor","null","null","null","null","null","null","null","null","null","null","null","","180","200","260","200","36000","52000","[1,3]","488.7202963415605","180.7051385119078","505.6044541067706"
"","canvas-keyboard-response","52","87128","0.0-6.0-4.6","509","","","","","clear_screen","null","null","","","catch","sh","sw","l","192","187","199","178","296","190","spektor","null","null","null","null","null","null","null","null","null","null","null","","180","200","260","200","36000","52000","[1,3]","488.7202963415605","180.7051385119078","505.6044541067706"
"","canvas-keyboard-response","53","87559","0.0-6.0-5.6","509","","","","","make choice","423","3","","","catch","sh","sw","l","192","187","199","178","296","190","spektor","null","null","null","null","null","null","null","null","null","null","null","","180","200","260","200","36000","52000","[1,3]","","",""
"","canvas-keyboard-response","54","87577","0.0-6.0-6.6","509","","","","","clear_screen","null","null","","","catch","sh","sw","l","192","187","199","178","296","190","spektor","null","null","null","null","null","null","null","null","null","null","null","","180","200","260","200","36000","52000","[1,3]","","",""
"","canvas-keyboard-response","55","87778","0.0-6.0-0.7","509","","","","","pre trial waiting period","null","null","","","critical","c","d","t","164","240","232.8713","160.6713","240","164","trueblood","0.05","w","240","164","164","240","232.8713","160.6713","39360","39360","37415.7294","dc","null","null","null","null","null","null","[2,1]","457.39665711998066","486.5835101617475","484.21038552380395"
"","canvas-keyboard-response","56","87797","0.0-6.0-1.7","509","","","","","clear_screen","null","null","","","critical","c","d","t","164","240","232.8713","160.6713","240","164","trueblood","0.05","w","240","164","164","240","232.8713","160.6713","39360","39360","37415.7294","dc","null","null","null","null","null","null","[2,1]","457.39665711998066","486.5835101617475","484.21038552380395"
"","canvas-keyboard-response","57","88306","0.0-6.0-2.7","509","","","","","rectangles no change","null","null","","","critical","c","d","t","164","240","232.8713","160.6713","240","164","trueblood","0.05","w","240","164","164","240","232.8713","160.6713","39360","39360","37415.7294","dc","null","null","null","null","null","null","[2,1]","457.39665711998066","486.5835101617475","484.21038552380395"
"","canvas-keyboard-response","58","89645","0.0-6.0-3.7","509","","","","","rectangles with change","null","null","","","critical","c","d","t","164","240","232.8713","160.6713","240","164","trueblood","0.05","w","240","164","164","240","232.8713","160.6713","39360","39360","37415.7294","dc","null","null","null","null","null","null","[2,1]","457.39665711998066","486.5835101617475","484.21038552380395"
"","canvas-keyboard-response","59","89668","0.0-6.0-4.7","509","","","","","clear_screen","null","null","","","critical","c","d","t","164","240","232.8713","160.6713","240","164","trueblood","0.05","w","240","164","164","240","232.8713","160.6713","39360","39360","37415.7294","dc","null","null","null","null","null","null","[2,1]","457.39665711998066","486.5835101617475","484.21038552380395"
"","canvas-keyboard-response","60","90783","0.0-6.0-5.7","509","","","","","make choice","1106","2","","","critical","c","d","t","164","240","232.8713","160.6713","240","164","trueblood","0.05","w","240","164","164","240","232.8713","160.6713","39360","39360","37415.7294","dc","null","null","null","null","null","null","[2,1]","","",""
"","canvas-keyboard-response","61","90802","0.0-6.0-6.7","509","","","","","clear_screen","null","null","","","critical","c","d","t","164","240","232.8713","160.6713","240","164","trueblood","0.05","w","240","164","164","240","232.8713","160.6713","39360","39360","37415.7294","dc","null","null","null","null","null","null","[2,1]","","",""
"","canvas-keyboard-response","62","91003","0.0-6.0-0.8","509","","","","","pre trial waiting period","null","null","","","critical","t","c","d","240","164","164","240","232.8713","160.6713","trueblood","0.05","w","240","164","164","240","232.8713","160.6713","39360","39360","37415.7294","td","null","null","null","null","null","null","[1,3]","482.1948586489637","446.3117984716915","486.0989624800614"
"","canvas-keyboard-response","63","91024","0.0-6.0-1.8","509","","","","","clear_screen","null","null","","","critical","t","c","d","240","164","164","240","232.8713","160.6713","trueblood","0.05","w","240","164","164","240","232.8713","160.6713","39360","39360","37415.7294","td","null","null","null","null","null","null","[1,3]","482.1948586489637","446.3117984716915","486.0989624800614"
"","canvas-keyboard-response","64","91530","0.0-6.0-2.8","509","","","","","rectangles no change","null","null","","","critical","t","c","d","240","164","164","240","232.8713","160.6713","trueblood","0.05","w","240","164","164","240","232.8713","160.6713","39360","39360","37415.7294","td","null","null","null","null","null","null","[1,3]","482.1948586489637","446.3117984716915","486.0989624800614"
"","canvas-keyboard-response","65","92866","0.0-6.0-3.8","509","","","","","rectangles with change","null","null","","","critical","t","c","d","240","164","164","240","232.8713","160.6713","trueblood","0.05","w","240","164","164","240","232.8713","160.6713","39360","39360","37415.7294","td","null","null","null","null","null","null","[1,3]","482.1948586489637","446.3117984716915","486.0989624800614"
"","canvas-keyboard-response","66","92885","0.0-6.0-4.8","509","","","","","clear_screen","null","null","","","critical","t","c","d","240","164","164","240","232.8713","160.6713","trueblood","0.05","w","240","164","164","240","232.8713","160.6713","39360","39360","37415.7294","td","null","null","null","null","null","null","[1,3]","482.1948586489637","446.3117984716915","486.0989624800614"
"","canvas-keyboard-response","67","93719","0.0-6.0-5.8","509","","","","","make choice","829","1","","","critical","t","c","d","240","164","164","240","232.8713","160.6713","trueblood","0.05","w","240","164","164","240","232.8713","160.6713","39360","39360","37415.7294","td","null","null","null","null","null","null","[1,3]","","",""
"","canvas-keyboard-response","68","93740","0.0-6.0-6.8","509","","","","","clear_screen","null","null","","","critical","t","c","d","240","164","164","240","232.8713","160.6713","trueblood","0.05","w","240","164","164","240","232.8713","160.6713","39360","39360","37415.7294","td","null","null","null","null","null","null","[1,3]","","",""
"","canvas-keyboard-response","69","93941","0.0-6.0-0.9","509","","","","","pre trial waiting period","null","null","","","critical","d","c","t","237.1485","162.6685","164","240","240","164","spektor","0.02","w","240","164","164","240","237.1485","162.6685","39360","39360","38576.5967","dc","null","null","null","null","null","null","[1,2]","534.0592262463747","158.73212250900167","540.4744233684855"
"","canvas-keyboard-response","70","93962","0.0-6.0-1.9","509","","","","","clear_screen","null","null","","","critical","d","c","t","237.1485","162.6685","164","240","240","164","spektor","0.02","w","240","164","164","240","237.1485","162.6685","39360","39360","38576.5967","dc","null","null","null","null","null","null","[1,2]","534.0592262463747","158.73212250900167","540.4744233684855"
"","canvas-keyboard-response","71","94472","0.0-6.0-2.9","509","","","","","rectangles no change","null","null","","","critical","d","c","t","237.1485","162.6685","164","240","240","164","spektor","0.02","w","240","164","164","240","237.1485","162.6685","39360","39360","38576.5967","dc","null","null","null","null","null","null","[1,2]","534.0592262463747","158.73212250900167","540.4744233684855"
"","canvas-keyboard-response","72","95807","0.0-6.0-3.9","509","","","","","rectangles with change","null","null","","","critical","d","c","t","237.1485","162.6685","164","240","240","164","spektor","0.02","w","240","164","164","240","237.1485","162.6685","39360","39360","38576.5967","dc","null","null","null","null","null","null","[1,2]","534.0592262463747","158.73212250900167","540.4744233684855"
"","canvas-keyboard-response","73","95830","0.0-6.0-4.9","509","","","","","clear_screen","null","null","","","critical","d","c","t","237.1485","162.6685","164","240","240","164","spektor","0.02","w","240","164","164","240","237.1485","162.6685","39360","39360","38576.5967","dc","null","null","null","null","null","null","[1,2]","534.0592262463747","158.73212250900167","540.4744233684855"
"","canvas-keyboard-response","74","96135","0.0-6.0-5.9","509","","","","","make choice","299","1","","","critical","d","c","t","237.1485","162.6685","164","240","240","164","spektor","0.02","w","240","164","164","240","237.1485","162.6685","39360","39360","38576.5967","dc","null","null","null","null","null","null","[1,2]","","",""
"","canvas-keyboard-response","75","96153","0.0-6.0-6.9","509","","","","","clear_screen","null","null","","","critical","d","c","t","237.1485","162.6685","164","240","240","164","spektor","0.02","w","240","164","164","240","237.1485","162.6685","39360","39360","38576.5967","dc","null","null","null","null","null","null","[1,2]","","",""
"","canvas-keyboard-response","76","96353","0.0-6.0-0.10","509","","","","","pre trial waiting period","null","null","","","catch","l","sw","sh","179","236","141","189","197","183","spektor","null","null","null","null","null","null","null","null","null","null","null","","180","200","260","200","36000","52000","[1,2]","472.4820185974877","178.3482420058336","515.0096916884054"
"","canvas-keyboard-response","77","96376","0.0-6.0-1.10","509","","","","","clear_screen","null","null","","","catch","l","sw","sh","179","236","141","189","197","183","spektor","null","null","null","null","null","null","null","null","null","null","null","","180","200","260","200","36000","52000","[1,2]","472.4820185974877","178.3482420058336","515.0096916884054"
"","canvas-keyboard-response","78","96884","0.0-6.0-2.10","509","","","","","rectangles no change","null","null","","","catch","l","sw","sh","179","236","141","189","197","183","spektor","null","null","null","null","null","null","null","null","null","null","null","","180","200","260","200","36000","52000","[1,2]","472.4820185974877","178.3482420058336","515.0096916884054"
"","canvas-keyboard-response","79","98223","0.0-6.0-3.10","509","","","","","rectangles with change","null","null","","","catch","l","sw","sh","179","236","141","189","197","183","spektor","null","null","null","null","null","null","null","null","null","null","null","","180","200","260","200","36000","52000","[1,2]","472.4820185974877","178.3482420058336","515.0096916884054"
"","canvas-keyboard-response","80","98238","0.0-6.0-4.10","509","","","","","clear_screen","null","null","","","catch","l","sw","sh","179","236","141","189","197","183","spektor","null","null","null","null","null","null","null","null","null","null","null","","180","200","260","200","36000","52000","[1,2]","472.4820185974877","178.3482420058336","515.0096916884054"
"","canvas-keyboard-response","81","98703","0.0-6.0-5.10","509","","","","","make choice","458","1","","","catch","l","sw","sh","179","236","141","189","197","183","spektor","null","null","null","null","null","null","null","null","null","null","null","","180","200","260","200","36000","52000","[1,2]","","",""
"","canvas-keyboard-response","82","98721","0.0-6.0-6.10","509","","","","","clear_screen","null","null","","","catch","l","sw","sh","179","236","141","189","197","183","spektor","null","null","null","null","null","null","null","null","null","null","null","","180","200","260","200","36000","52000","[1,2]","","",""
"","canvas-keyboard-response","83","98921","0.0-6.0-0.11","509","","","","","pre trial waiting period","null","null","","","critical","t","c","d","164","240","240","164","164","240","trueblood","0","h","164","240","240","164","164","240","39360","39360","39360","td","null","null","null","null","null","null","[1,3]","463.4582453469602","470.61290144256833","426.5026131335498"
"","canvas-keyboard-response","84","98943","0.0-6.0-1.11","509","","","","","clear_screen","null","null","","","critical","t","c","d","164","240","240","164","164","240","trueblood","0","h","164","240","240","164","164","240","39360","39360","39360","td","null","null","null","null","null","null","[1,3]","463.4582453469602","470.61290144256833","426.5026131335498"
"","canvas-keyboard-response","85","99450","0.0-6.0-2.11","509","","","","","rectangles no change","null","null","","","critical","t","c","d","164","240","240","164","164","240","trueblood","0","h","164","240","240","164","164","240","39360","39360","39360","td","null","null","null","null","null","null","[1,3]","463.4582453469602","470.61290144256833","426.5026131335498"
"","canvas-keyboard-response","86","100785","0.0-6.0-3.11","509","","","","","rectangles with change","null","null","","","critical","t","c","d","164","240","240","164","164","240","trueblood","0","h","164","240","240","164","164","240","39360","39360","39360","td","null","null","null","null","null","null","[1,3]","463.4582453469602","470.61290144256833","426.5026131335498"
"","canvas-keyboard-response","87","100806","0.0-6.0-4.11","509","","","","","clear_screen","null","null","","","critical","t","c","d","164","240","240","164","164","240","trueblood","0","h","164","240","240","164","164","240","39360","39360","39360","td","null","null","null","null","null","null","[1,3]","463.4582453469602","470.61290144256833","426.5026131335498"
"","canvas-keyboard-response","88","101504","0.0-6.0-5.11","509","","","","","make choice","690","1","","","critical","t","c","d","164","240","240","164","164","240","trueblood","0","h","164","240","240","164","164","240","39360","39360","39360","td","null","null","null","null","null","null","[1,3]","","",""
"","canvas-keyboard-response","89","101522","0.0-6.0-6.11","509","","","","","clear_screen","null","null","","","critical","t","c","d","164","240","240","164","164","240","trueblood","0","h","164","240","240","164","164","240","39360","39360","39360","td","null","null","null","null","null","null","[1,3]","","",""
"","canvas-keyboard-response","90","101722","0.0-6.0-0.12","509","","","","","pre trial waiting period","null","null","","","catch","l","sw","sh","179","260","191","201","219","214","trueblood","null","null","null","null","null","null","null","null","null","null","null","","180","200","260","200","36000","52000","[1,3]","452.9720511778387","478.0659703043838","465.756380146418"
"","canvas-keyboard-response","91","101746","0.0-6.0-1.12","509","","","","","clear_screen","null","null","","","catch","l","sw","sh","179","260","191","201","219","214","trueblood","null","null","null","null","null","null","null","null","null","null","null","","180","200","260","200","36000","52000","[1,3]","452.9720511778387","478.0659703043838","465.756380146418"
"","canvas-keyboard-response","92","102253","0.0-6.0-2.12","509","","","","","rectangles no change","null","null","","","catch","l","sw","sh","179","260","191","201","219","214","trueblood","null","null","null","null","null","null","null","null","null","null","null","","180","200","260","200","36000","52000","[1,3]","452.9720511778387","478.0659703043838","465.756380146418"
"","canvas-keyboard-response","93","103588","0.0-6.0-3.12","509","","","","","rectangles with change","null","null","","","catch","l","sw","sh","179","260","191","201","219","214","trueblood","null","null","null","null","null","null","null","null","null","null","null","","180","200","260","200","36000","52000","[1,3]","452.9720511778387","478.0659703043838","465.756380146418"
"","canvas-keyboard-response","94","103607","0.0-6.0-4.12","509","","","","","clear_screen","null","null","","","catch","l","sw","sh","179","260","191","201","219","214","trueblood","null","null","null","null","null","null","null","null","null","null","null","","180","200","260","200","36000","52000","[1,3]","452.9720511778387","478.0659703043838","465.756380146418"
"","canvas-keyboard-response","95","104678","0.0-6.0-5.12","509","","","","","make choice","1064","3","","","catch","l","sw","sh","179","260","191","201","219","214","trueblood","null","null","null","null","null","null","null","null","null","null","null","","180","200","260","200","36000","52000","[1,3]","","",""
"","canvas-keyboard-response","96","104697","0.0-6.0-6.12","509","","","","","clear_screen","null","null","","","catch","l","sw","sh","179","260","191","201","219","214","trueblood","null","null","null","null","null","null","null","null","null","null","null","","180","200","260","200","36000","52000","[1,3]","","",""
"","canvas-keyboard-response","97","104898","0.0-6.0-0.13","509","","","","","pre trial waiting period","null","null","","","critical","t","c","d","164","240","240","164","160.6713","232.8713","trueblood","0.05","h","164","240","240","164","160.6713","232.8713","39360","39360","37415.7294","td","null","null","null","null","null","null","[1,3]","443.22549782486607","503.19260747661616","434.9035534001388"
"","canvas-keyboard-response","98","104919","0.0-6.0-1.13","509","","","","","clear_screen","null","null","","","critical","t","c","d","164","240","240","164","160.6713","232.8713","trueblood","0.05","h","164","240","240","164","160.6713","232.8713","39360","39360","37415.7294","td","null","null","null","null","null","null","[1,3]","443.22549782486607","503.19260747661616","434.9035534001388"
"","canvas-keyboard-response","99","105429","0.0-6.0-2.13","509","","","","","rectangles no change","null","null","","","critical","t","c","d","164","240","240","164","160.6713","232.8713","trueblood","0.05","h","164","240","240","164","160.6713","232.8713","39360","39360","37415.7294","td","null","null","null","null","null","null","[1,3]","443.22549782486607","503.19260747661616","434.9035534001388"
"","canvas-keyboard-response","100","106764","0.0-6.0-3.13","509","","","","","rectangles with change","null","null","","","critical","t","c","d","164","240","240","164","160.6713","232.8713","trueblood","0.05","h","164","240","240","164","160.6713","232.8713","39360","39360","37415.7294","td","null","null","null","null","null","null","[1,3]","443.22549782486607","503.19260747661616","434.9035534001388"
"","canvas-keyboard-response","101","106786","0.0-6.0-4.13","509","","","","","clear_screen","null","null","","","critical","t","c","d","164","240","240","164","160.6713","232.8713","trueblood","0.05","h","164","240","240","164","160.6713","232.8713","39360","39360","37415.7294","td","null","null","null","null","null","null","[1,3]","443.22549782486607","503.19260747661616","434.9035534001388"
"","canvas-keyboard-response","102","107103","0.0-6.0-5.13","509","","","","","make choice","309","1","","","critical","t","c","d","164","240","240","164","160.6713","232.8713","trueblood","0.05","h","164","240","240","164","160.6713","232.8713","39360","39360","37415.7294","td","null","null","null","null","null","null","[1,3]","","",""
"","canvas-keyboard-response","103","107122","0.0-6.0-6.13","509","","","","","clear_screen","null","null","","","critical","t","c","d","164","240","240","164","160.6713","232.8713","trueblood","0.05","h","164","240","240","164","160.6713","232.8713","39360","39360","37415.7294","td","null","null","null","null","null","null","[1,3]","","",""
"","canvas-keyboard-response","104","107324","0.0-6.0-0.14","509","","","","","pre trial waiting period","null","null","","","critical","c","t","d","240","164","164","240","160.6713","232.8713","trueblood","0.05","h","164","240","240","164","160.6713","232.8713","39360","39360","37415.7294","tc","null","null","null","null","null","null","[2,1]","505.1852963016032","451.9387163142431","450.2122658194955"
"","canvas-keyboard-response","105","107344","0.0-6.0-1.14","509","","","","","clear_screen","null","null","","","critical","c","t","d","240","164","164","240","160.6713","232.8713","trueblood","0.05","h","164","240","240","164","160.6713","232.8713","39360","39360","37415.7294","tc","null","null","null","null","null","null","[2,1]","505.1852963016032","451.9387163142431","450.2122658194955"
"","canvas-keyboard-response","106","107852","0.0-6.0-2.14","509","","","","","rectangles no change","null","null","","","critical","c","t","d","240","164","164","240","160.6713","232.8713","trueblood","0.05","h","164","240","240","164","160.6713","232.8713","39360","39360","37415.7294","tc","null","null","null","null","null","null","[2,1]","505.1852963016032","451.9387163142431","450.2122658194955"
"","canvas-keyboard-response","107","109187","0.0-6.0-3.14","509","","","","","rectangles with change","null","null","","","critical","c","t","d","240","164","164","240","160.6713","232.8713","trueblood","0.05","h","164","240","240","164","160.6713","232.8713","39360","39360","37415.7294","tc","null","null","null","null","null","null","[2,1]","505.1852963016032","451.9387163142431","450.2122658194955"
"","canvas-keyboard-response","108","109206","0.0-6.0-4.14","509","","","","","clear_screen","null","null","","","critical","c","t","d","240","164","164","240","160.6713","232.8713","trueblood","0.05","h","164","240","240","164","160.6713","232.8713","39360","39360","37415.7294","tc","null","null","null","null","null","null","[2,1]","505.1852963016032","451.9387163142431","450.2122658194955"
"","canvas-keyboard-response","109","109576","0.0-6.0-5.14","509","","","","","make choice","362","1","","","critical","c","t","d","240","164","164","240","160.6713","232.8713","trueblood","0.05","h","164","240","240","164","160.6713","232.8713","39360","39360","37415.7294","tc","null","null","null","null","null","null","[2,1]","","",""
"","canvas-keyboard-response","110","109594","0.0-6.0-6.14","509","","","","","clear_screen","null","null","","","critical","c","t","d","240","164","164","240","160.6713","232.8713","trueblood","0.05","h","164","240","240","164","160.6713","232.8713","39360","39360","37415.7294","tc","null","null","null","null","null","null","[2,1]","","",""
"","canvas-keyboard-response","111","109795","0.0-6.0-0.15","509","","","","","pre trial waiting period","null","null","","","critical","c","d","t","164","240","220.0396","154.6796","240","164","trueblood","0.14","w","240","164","164","240","220.0396","154.6796","39360","39360","34035.6388","td","null","null","null","null","null","null","[3,2]","440.51294143380056","521.7216941906446","504.7141992478019"
"","canvas-keyboard-response","112","109815","0.0-6.0-1.15","509","","","","","clear_screen","null","null","","","critical","c","d","t","164","240","220.0396","154.6796","240","164","trueblood","0.14","w","240","164","164","240","220.0396","154.6796","39360","39360","34035.6388","td","null","null","null","null","null","null","[3,2]","440.51294143380056","521.7216941906446","504.7141992478019"
"","canvas-keyboard-response","113","110323","0.0-6.0-2.15","509","","","","","rectangles no change","null","null","","","critical","c","d","t","164","240","220.0396","154.6796","240","164","trueblood","0.14","w","240","164","164","240","220.0396","154.6796","39360","39360","34035.6388","td","null","null","null","null","null","null","[3,2]","440.51294143380056","521.7216941906446","504.7141992478019"
"","canvas-keyboard-response","114","111659","0.0-6.0-3.15","509","","","","","rectangles with change","null","null","","","critical","c","d","t","164","240","220.0396","154.6796","240","164","trueblood","0.14","w","240","164","164","240","220.0396","154.6796","39360","39360","34035.6388","td","null","null","null","null","null","null","[3,2]","440.51294143380056","521.7216941906446","504.7141992478019"
"","canvas-keyboard-response","115","111678","0.0-6.0-4.15","509","","","","","clear_screen","null","null","","","critical","c","d","t","164","240","220.0396","154.6796","240","164","trueblood","0.14","w","240","164","164","240","220.0396","154.6796","39360","39360","34035.6388","td","null","null","null","null","null","null","[3,2]","440.51294143380056","521.7216941906446","504.7141992478019"
"","canvas-keyboard-response","116","111929","0.0-6.0-5.15","509","","","","","make choice","246","3","","","critical","c","d","t","164","240","220.0396","154.6796","240","164","trueblood","0.14","w","240","164","164","240","220.0396","154.6796","39360","39360","34035.6388","td","null","null","null","null","null","null","[3,2]","","",""
"","canvas-keyboard-response","117","111946","0.0-6.0-6.15","509","","","","","clear_screen","null","null","","","critical","c","d","t","164","240","220.0396","154.6796","240","164","trueblood","0.14","w","240","164","164","240","220.0396","154.6796","39360","39360","34035.6388","td","null","null","null","null","null","null","[3,2]","","",""
"","canvas-keyboard-response","118","112147","0.0-6.0-0.16","509","","","","","pre trial waiting period","null","null","","","catch","sh","l","sw","219","189","208","243","152","174","trueblood","null","null","null","null","null","null","null","null","null","null","null","","180","200","260","200","36000","52000","[2,3]","485.50495749494524","417.8548050830213","474.3047604138222"
"","canvas-keyboard-response","119","112168","0.0-6.0-1.16","509","","","","","clear_screen","null","null","","","catch","sh","l","sw","219","189","208","243","152","174","trueblood","null","null","null","null","null","null","null","null","null","null","null","","180","200","260","200","36000","52000","[2,3]","485.50495749494524","417.8548050830213","474.3047604138222"
"","canvas-keyboard-response","120","112680","0.0-6.0-2.16","509","","","","","rectangles no change","null","null","","","catch","sh","l","sw","219","189","208","243","152","174","trueblood","null","null","null","null","null","null","null","null","null","null","null","","180","200","260","200","36000","52000","[2,3]","485.50495749494524","417.8548050830213","474.3047604138222"
"","canvas-keyboard-response","121","114016","0.0-6.0-3.16","509","","","","","rectangles with change","null","null","","","catch","sh","l","sw","219","189","208","243","152","174","trueblood","null","null","null","null","null","null","null","null","null","null","null","","180","200","260","200","36000","52000","[2,3]","485.50495749494524","417.8548050830213","474.3047604138222"
"","canvas-keyboard-response","122","114035","0.0-6.0-4.16","509","","","","","clear_screen","null","null","","","catch","sh","l","sw","219","189","208","243","152","174","trueblood","null","null","null","null","null","null","null","null","null","null","null","","180","200","260","200","36000","52000","[2,3]","485.50495749494524","417.8548050830213","474.3047604138222"
"","canvas-keyboard-response","123","114303","0.0-6.0-5.16","509","","","","","make choice","261","2","","","catch","sh","l","sw","219","189","208","243","152","174","trueblood","null","null","null","null","null","null","null","null","null","null","null","","180","200","260","200","36000","52000","[2,3]","","",""
"","canvas-keyboard-response","124","114322","0.0-6.0-6.16","509","","","","","clear_screen","null","null","","","catch","sh","l","sw","219","189","208","243","152","174","trueblood","null","null","null","null","null","null","null","null","null","null","null","","180","200","260","200","36000","52000","[2,3]","","",""
"","canvas-keyboard-response","125","114522","0.0-6.0-0.17","509","","","","","pre trial waiting period","null","null","","","catch","sh","l","sw","227","147","209","269","149","191","spektor","null","null","null","null","null","null","null","null","null","null","null","","180","200","260","200","36000","52000","[2,3]","549.4850532123155","126.97371085164508","508.9777042122071"
"","canvas-keyboard-response","126","114542","0.0-6.0-1.17","509","","","","","clear_screen","null","null","","","catch","sh","l","sw","227","147","209","269","149","191","spektor","null","null","null","null","null","null","null","null","null","null","null","","180","200","260","200","36000","52000","[2,3]","549.4850532123155","126.97371085164508","508.9777042122071"
"","canvas-keyboard-response","127","115050","0.0-6.0-2.17","509","","","","","rectangles no change","null","null","","","catch","sh","l","sw","227","147","209","269","149","191","spektor","null","null","null","null","null","null","null","null","null","null","null","","180","200","260","200","36000","52000","[2,3]","549.4850532123155","126.97371085164508","508.9777042122071"
"","canvas-keyboard-response","128","116384","0.0-6.0-3.17","509","","","","","rectangles with change","null","null","","","catch","sh","l","sw","227","147","209","269","149","191","spektor","null","null","null","null","null","null","null","null","null","null","null","","180","200","260","200","36000","52000","[2,3]","549.4850532123155","126.97371085164508","508.9777042122071"
"","canvas-keyboard-response","129","116403","0.0-6.0-4.17","509","","","","","clear_screen","null","null","","","catch","sh","l","sw","227","147","209","269","149","191","spektor","null","null","null","null","null","null","null","null","null","null","null","","180","200","260","200","36000","52000","[2,3]","549.4850532123155","126.97371085164508","508.9777042122071"
"","canvas-keyboard-response","130","116831","0.0-6.0-5.17","509","","","","","make choice","421","2","","","catch","sh","l","sw","227","147","209","269","149","191","spektor","null","null","null","null","null","null","null","null","null","null","null","","180","200","260","200","36000","52000","[2,3]","","",""
"","canvas-keyboard-response","131","116850","0.0-6.0-6.17","509","","","","","clear_screen","null","null","","","catch","sh","l","sw","227","147","209","269","149","191","spektor","null","null","null","null","null","null","null","null","null","null","null","","180","200","260","200","36000","52000","[2,3]","","",""
"","canvas-keyboard-response","132","117051","0.0-6.0-0.18","509","","","","","pre trial waiting period","null","null","","","critical","d","c","t","162.6685","237.1485","240","164","164","240","spektor","0.02","h","164","240","240","164","162.6685","237.1485","39360","39360","38576.5967","td","null","null","null","null","null","null","[3,1]","476.9888139965011","189.73194522464053","499.72540285578987"
"","canvas-keyboard-response","133","117070","0.0-6.0-1.18","509","","","","","clear_screen","null","null","","","critical","d","c","t","162.6685","237.1485","240","164","164","240","spektor","0.02","h","164","240","240","164","162.6685","237.1485","39360","39360","38576.5967","td","null","null","null","null","null","null","[3,1]","476.9888139965011","189.73194522464053","499.72540285578987"
"","canvas-keyboard-response","134","117579","0.0-6.0-2.18","509","","","","","rectangles no change","null","null","","","critical","d","c","t","162.6685","237.1485","240","164","164","240","spektor","0.02","h","164","240","240","164","162.6685","237.1485","39360","39360","38576.5967","td","null","null","null","null","null","null","[3,1]","476.9888139965011","189.73194522464053","499.72540285578987"
"","canvas-keyboard-response","135","118914","0.0-6.0-3.18","509","","","","","rectangles with change","null","null","","","critical","d","c","t","162.6685","237.1485","240","164","164","240","spektor","0.02","h","164","240","240","164","162.6685","237.1485","39360","39360","38576.5967","td","null","null","null","null","null","null","[3,1]","476.9888139965011","189.73194522464053","499.72540285578987"
"","canvas-keyboard-response","136","118934","0.0-6.0-4.18","509","","","","","clear_screen","null","null","","","critical","d","c","t","162.6685","237.1485","240","164","164","240","spektor","0.02","h","164","240","240","164","162.6685","237.1485","39360","39360","38576.5967","td","null","null","null","null","null","null","[3,1]","476.9888139965011","189.73194522464053","499.72540285578987"
"","canvas-keyboard-response","137","119326","0.0-6.0-5.18","509","","","","","make choice","388","1","","","critical","d","c","t","162.6685","237.1485","240","164","164","240","spektor","0.02","h","164","240","240","164","162.6685","237.1485","39360","39360","38576.5967","td","null","null","null","null","null","null","[3,1]","","",""
"","canvas-keyboard-response","138","119345","0.0-6.0-6.18","509","","","","","clear_screen","null","null","","","critical","d","c","t","162.6685","237.1485","240","164","164","240","spektor","0.02","h","164","240","240","164","162.6685","237.1485","39360","39360","38576.5967","td","null","null","null","null","null","null","[3,1]","","",""
"","canvas-keyboard-response","139","119547","0.0-6.0-0.19","509","","","","","pre trial waiting period","null","null","","","critical","c","t","d","164","240","240","164","237.1485","162.6685","trueblood","0.02","w","240","164","164","240","237.1485","162.6685","39360","39360","38576.5967","tc","null","null","null","null","null","null","[2,1]","461.62199971515713","487.00514777261054","492.33918830675"
"","canvas-keyboard-response","140","119566","0.0-6.0-1.19","509","","","","","clear_screen","null","null","","","critical","c","t","d","164","240","240","164","237.1485","162.6685","trueblood","0.02","w","240","164","164","240","237.1485","162.6685","39360","39360","38576.5967","tc","null","null","null","null","null","null","[2,1]","461.62199971515713","487.00514777261054","492.33918830675"
"","canvas-keyboard-response","141","120073","0.0-6.0-2.19","509","","","","","rectangles no change","null","null","","","critical","c","t","d","164","240","240","164","237.1485","162.6685","trueblood","0.02","w","240","164","164","240","237.1485","162.6685","39360","39360","38576.5967","tc","null","null","null","null","null","null","[2,1]","461.62199971515713","487.00514777261054","492.33918830675"
"","canvas-keyboard-response","142","121410","0.0-6.0-3.19","509","","","","","rectangles with change","null","null","","","critical","c","t","d","164","240","240","164","237.1485","162.6685","trueblood","0.02","w","240","164","164","240","237.1485","162.6685","39360","39360","38576.5967","tc","null","null","null","null","null","null","[2,1]","461.62199971515713","487.00514777261054","492.33918830675"
"","canvas-keyboard-response","143","121428","0.0-6.0-4.19","509","","","","","clear_screen","null","null","","","critical","c","t","d","164","240","240","164","237.1485","162.6685","trueblood","0.02","w","240","164","164","240","237.1485","162.6685","39360","39360","38576.5967","tc","null","null","null","null","null","null","[2,1]","461.62199971515713","487.00514777261054","492.33918830675"
"","canvas-keyboard-response","144","122192","0.0-6.0-5.19","509","","","","","make choice","755","1","","","critical","c","t","d","164","240","240","164","237.1485","162.6685","trueblood","0.02","w","240","164","164","240","237.1485","162.6685","39360","39360","38576.5967","tc","null","null","null","null","null","null","[2,1]","","",""
"","canvas-keyboard-response","145","122211","0.0-6.0-6.19","509","","","","","clear_screen","null","null","","","critical","c","t","d","164","240","240","164","237.1485","162.6685","trueblood","0.02","w","240","164","164","240","237.1485","162.6685","39360","39360","38576.5967","tc","null","null","null","null","null","null","[2,1]","","",""
"","canvas-keyboard-response","146","122412","0.0-6.0-0.20","509","","","","","pre trial waiting period","null","null","","","catch","sh","sw","l","193","199","179","185","251","218","trueblood","null","null","null","null","null","null","null","null","null","null","null","","180","200","260","200","36000","52000","[2,3]","476.53718058498373","459.87805349312447","466.14399299457034"
"","canvas-keyboard-response","147","122431","0.0-6.0-1.20","509","","","","","clear_screen","null","null","","","catch","sh","sw","l","193","199","179","185","251","218","trueblood","null","null","null","null","null","null","null","null","null","null","null","","180","200","260","200","36000","52000","[2,3]","476.53718058498373","459.87805349312447","466.14399299457034"
"","canvas-keyboard-response","148","122938","0.0-6.0-2.20","509","","","","","rectangles no change","null","null","","","catch","sh","sw","l","193","199","179","185","251","218","trueblood","null","null","null","null","null","null","null","null","null","null","null","","180","200","260","200","36000","52000","[2,3]","476.53718058498373","459.87805349312447","466.14399299457034"
"","canvas-keyboard-response","149","124273","0.0-6.0-3.20","509","","","","","rectangles with change","null","null","","","catch","sh","sw","l","193","199","179","185","251","218","trueblood","null","null","null","null","null","null","null","null","null","null","null","","180","200","260","200","36000","52000","[2,3]","476.53718058498373","459.87805349312447","466.14399299457034"
"","canvas-keyboard-response","150","124290","0.0-6.0-4.20","509","","","","","clear_screen","null","null","","","catch","sh","sw","l","193","199","179","185","251","218","trueblood","null","null","null","null","null","null","null","null","null","null","null","","180","200","260","200","36000","52000","[2,3]","476.53718058498373","459.87805349312447","466.14399299457034"
"","canvas-keyboard-response","151","125008","0.0-6.0-5.20","509","","","","","make choice","710","3","","","catch","sh","sw","l","193","199","179","185","251","218","trueblood","null","null","null","null","null","null","null","null","null","null","null","","180","200","260","200","36000","52000","[2,3]","","",""
"","canvas-keyboard-response","152","125026","0.0-6.0-6.20","509","","","","","clear_screen","null","null","","","catch","sh","sw","l","193","199","179","185","251","218","trueblood","null","null","null","null","null","null","null","null","null","null","null","","180","200","260","200","36000","52000","[2,3]","","",""
"","canvas-keyboard-response","153","125227","0.0-6.0-0.21","509","","","","","pre trial waiting period","null","null","","","catch","sh","sw","l","208","180","179","170","192","225","trueblood","null","null","null","null","null","null","null","null","null","null","null","","180","200","260","200","36000","52000","[1,3]","478.3871682735142","509.40869794509354","433.2776235741923"
"","canvas-keyboard-response","154","125247","0.0-6.0-1.21","509","","","","","clear_screen","null","null","","","catch","sh","sw","l","208","180","179","170","192","225","trueblood","null","null","null","null","null","null","null","null","null","null","null","","180","200","260","200","36000","52000","[1,3]","478.3871682735142","509.40869794509354","433.2776235741923"
"","canvas-keyboard-response","155","125755","0.0-6.0-2.21","509","","","","","rectangles no change","null","null","","","catch","sh","sw","l","208","180","179","170","192","225","trueblood","null","null","null","null","null","null","null","null","null","null","null","","180","200","260","200","36000","52000","[1,3]","478.3871682735142","509.40869794509354","433.2776235741923"
"","canvas-keyboard-response","156","127090","0.0-6.0-3.21","509","","","","","rectangles with change","null","null","","","catch","sh","sw","l","208","180","179","170","192","225","trueblood","null","null","null","null","null","null","null","null","null","null","null","","180","200","260","200","36000","52000","[1,3]","478.3871682735142","509.40869794509354","433.2776235741923"
"","canvas-keyboard-response","157","127111","0.0-6.0-4.21","509","","","","","clear_screen","null","null","","","catch","sh","sw","l","208","180","179","170","192","225","trueblood","null","null","null","null","null","null","null","null","null","null","null","","180","200","260","200","36000","52000","[1,3]","478.3871682735142","509.40869794509354","433.2776235741923"
"","canvas-keyboard-response","158","127896","0.0-6.0-5.21","509","","","","","make choice","775","3","","","catch","sh","sw","l","208","180","179","170","192","225","trueblood","null","null","null","null","null","null","null","null","null","null","null","","180","200","260","200","36000","52000","[1,3]","","",""
"","canvas-keyboard-response","159","127914","0.0-6.0-6.21","509","","","","","clear_screen","null","null","","","catch","sh","sw","l","208","180","179","170","192","225","trueblood","null","null","null","null","null","null","null","null","null","null","null","","180","200","260","200","36000","52000","[1,3]","","",""
"","canvas-keyboard-response","160","128115","0.0-6.0-0.22","509","","","","","pre trial waiting period","null","null","","","critical","c","t","d","164","240","240","164","227.1683","158.0083","trueblood","0.09","w","240","164","164","240","227.1683","158.0083","39360","39360","35894.4834","td","null","null","null","null","null","null","[2,3]","440.22819475870284","491.75867623819073","481.5650254664073"
"","canvas-keyboard-response","161","128138","0.0-6.0-1.22","509","","","","","clear_screen","null","null","","","critical","c","t","d","164","240","240","164","227.1683","158.0083","trueblood","0.09","w","240","164","164","240","227.1683","158.0083","39360","39360","35894.4834","td","null","null","null","null","null","null","[2,3]","440.22819475870284","491.75867623819073","481.5650254664073"
"","canvas-keyboard-response","162","128646","0.0-6.0-2.22","509","","","","","rectangles no change","null","null","","","critical","c","t","d","164","240","240","164","227.1683","158.0083","trueblood","0.09","w","240","164","164","240","227.1683","158.0083","39360","39360","35894.4834","td","null","null","null","null","null","null","[2,3]","440.22819475870284","491.75867623819073","481.5650254664073"
"","canvas-keyboard-response","163","129983","0.0-6.0-3.22","509","","","","","rectangles with change","null","null","","","critical","c","t","d","164","240","240","164","227.1683","158.0083","trueblood","0.09","w","240","164","164","240","227.1683","158.0083","39360","39360","35894.4834","td","null","null","null","null","null","null","[2,3]","440.22819475870284","491.75867623819073","481.5650254664073"
"","canvas-keyboard-response","164","130000","0.0-6.0-4.22","509","","","","","clear_screen","null","null","","","critical","c","t","d","164","240","240","164","227.1683","158.0083","trueblood","0.09","w","240","164","164","240","227.1683","158.0083","39360","39360","35894.4834","td","null","null","null","null","null","null","[2,3]","440.22819475870284","491.75867623819073","481.5650254664073"
"","canvas-keyboard-response","165","130735","0.0-6.0-5.22","509","","","","","make choice","728","2","","","critical","c","t","d","164","240","240","164","227.1683","158.0083","trueblood","0.09","w","240","164","164","240","227.1683","158.0083","39360","39360","35894.4834","td","null","null","null","null","null","null","[2,3]","","",""
"","canvas-keyboard-response","166","130754","0.0-6.0-6.22","509","","","","","clear_screen","null","null","","","critical","c","t","d","164","240","240","164","227.1683","158.0083","trueblood","0.09","w","240","164","164","240","227.1683","158.0083","39360","39360","35894.4834","td","null","null","null","null","null","null","[2,3]","","",""
"","canvas-keyboard-response","167","130955","0.0-6.0-0.23","509","","","","","pre trial waiting period","null","null","","","critical","t","d","c","164","240","154.6796","220.0396","240","164","trueblood","0.14","h","164","240","240","164","154.6796","220.0396","39360","39360","34035.6388","td","null","null","null","null","null","null","[1,2]","466.25895541331266","452.88751770209024","506.26281734806054"
"","canvas-keyboard-response","168","130975","0.0-6.0-1.23","509","","","","","clear_screen","null","null","","","critical","t","d","c","164","240","154.6796","220.0396","240","164","trueblood","0.14","h","164","240","240","164","154.6796","220.0396","39360","39360","34035.6388","td","null","null","null","null","null","null","[1,2]","466.25895541331266","452.88751770209024","506.26281734806054"
"","canvas-keyboard-response","169","131483","0.0-6.0-2.23","509","","","","","rectangles no change","null","null","","","critical","t","d","c","164","240","154.6796","220.0396","240","164","trueblood","0.14","h","164","240","240","164","154.6796","220.0396","39360","39360","34035.6388","td","null","null","null","null","null","null","[1,2]","466.25895541331266","452.88751770209024","506.26281734806054"
"","canvas-keyboard-response","170","132820","0.0-6.0-3.23","509","","","","","rectangles with change","null","null","","","critical","t","d","c","164","240","154.6796","220.0396","240","164","trueblood","0.14","h","164","240","240","164","154.6796","220.0396","39360","39360","34035.6388","td","null","null","null","null","null","null","[1,2]","466.25895541331266","452.88751770209024","506.26281734806054"
"","canvas-keyboard-response","171","132839","0.0-6.0-4.23","509","","","","","clear_screen","null","null","","","critical","t","d","c","164","240","154.6796","220.0396","240","164","trueblood","0.14","h","164","240","240","164","154.6796","220.0396","39360","39360","34035.6388","td","null","null","null","null","null","null","[1,2]","466.25895541331266","452.88751770209024","506.26281734806054"
"","canvas-keyboard-response","172","133000","0.0-6.0-5.23","509","","","","","make choice","155","1","","","critical","t","d","c","164","240","154.6796","220.0396","240","164","trueblood","0.14","h","164","240","240","164","154.6796","220.0396","39360","39360","34035.6388","td","null","null","null","null","null","null","[1,2]","","",""
"","canvas-keyboard-response","173","133019","0.0-6.0-6.23","509","","","","","clear_screen","null","null","","","critical","t","d","c","164","240","154.6796","220.0396","240","164","trueblood","0.14","h","164","240","240","164","154.6796","220.0396","39360","39360","34035.6388","td","null","null","null","null","null","null","[1,2]","","",""
"","canvas-keyboard-response","174","133221","0.0-6.0-0.24","509","","","","","pre trial waiting period","null","null","","","critical","c","t","d","240","164","164","240","154.6796","220.0396","trueblood","0.14","h","164","240","240","164","154.6796","220.0396","39360","39360","34035.6388","tc","null","null","null","null","null","null","[2,1]","472.93442393453523","424.936327473354","448.87827952860425"
"","canvas-keyboard-response","175","133243","0.0-6.0-1.24","509","","","","","clear_screen","null","null","","","critical","c","t","d","240","164","164","240","154.6796","220.0396","trueblood","0.14","h","164","240","240","164","154.6796","220.0396","39360","39360","34035.6388","tc","null","null","null","null","null","null","[2,1]","472.93442393453523","424.936327473354","448.87827952860425"
"","canvas-keyboard-response","176","133753","0.0-6.0-2.24","509","","","","","rectangles no change","null","null","","","critical","c","t","d","240","164","164","240","154.6796","220.0396","trueblood","0.14","h","164","240","240","164","154.6796","220.0396","39360","39360","34035.6388","tc","null","null","null","null","null","null","[2,1]","472.93442393453523","424.936327473354","448.87827952860425"
"","canvas-keyboard-response","177","135090","0.0-6.0-3.24","509","","","","","rectangles with change","null","null","","","critical","c","t","d","240","164","164","240","154.6796","220.0396","trueblood","0.14","h","164","240","240","164","154.6796","220.0396","39360","39360","34035.6388","tc","null","null","null","null","null","null","[2,1]","472.93442393453523","424.936327473354","448.87827952860425"
"","canvas-keyboard-response","178","135114","0.0-6.0-4.24","509","","","","","clear_screen","null","null","","","critical","c","t","d","240","164","164","240","154.6796","220.0396","trueblood","0.14","h","164","240","240","164","154.6796","220.0396","39360","39360","34035.6388","tc","null","null","null","null","null","null","[2,1]","472.93442393453523","424.936327473354","448.87827952860425"
"","canvas-keyboard-response","179","135496","0.0-6.0-5.24","509","","","","","make choice","375","1","","","critical","c","t","d","240","164","164","240","154.6796","220.0396","trueblood","0.14","h","164","240","240","164","154.6796","220.0396","39360","39360","34035.6388","tc","null","null","null","null","null","null","[2,1]","","",""
"","canvas-keyboard-response","180","135518","0.0-6.0-6.24","509","","","","","clear_screen","null","null","","","critical","c","t","d","240","164","164","240","154.6796","220.0396","trueblood","0.14","h","164","240","240","164","154.6796","220.0396","39360","39360","34035.6388","tc","null","null","null","null","null","null","[2,1]","","",""
"","canvas-keyboard-response","181","135719","0.0-6.0-0.25","509","","","","","pre trial waiting period","null","null","","","catch","l","sh","sw","229","259","207","210","159","229","spektor","null","null","null","null","null","null","null","null","null","null","null","","180","200","260","200","36000","52000","[1,3]","457.10079828229595","115.61677167139962","466.7979018502134"
"","canvas-keyboard-response","182","135739","0.0-6.0-1.25","509","","","","","clear_screen","null","null","","","catch","l","sh","sw","229","259","207","210","159","229","spektor","null","null","null","null","null","null","null","null","null","null","null","","180","200","260","200","36000","52000","[1,3]","457.10079828229595","115.61677167139962","466.7979018502134"
"","canvas-keyboard-response","183","136245","0.0-6.0-2.25","509","","","","","rectangles no change","null","null","","","catch","l","sh","sw","229","259","207","210","159","229","spektor","null","null","null","null","null","null","null","null","null","null","null","","180","200","260","200","36000","52000","[1,3]","457.10079828229595","115.61677167139962","466.7979018502134"
"","canvas-keyboard-response","184","137581","0.0-6.0-3.25","509","","","","","rectangles with change","null","null","","","catch","l","sh","sw","229","259","207","210","159","229","spektor","null","null","null","null","null","null","null","null","null","null","null","","180","200","260","200","36000","52000","[1,3]","457.10079828229595","115.61677167139962","466.7979018502134"
"","canvas-keyboard-response","185","137601","0.0-6.0-4.25","509","","","","","clear_screen","null","null","","","catch","l","sh","sw","229","259","207","210","159","229","spektor","null","null","null","null","null","null","null","null","null","null","null","","180","200","260","200","36000","52000","[1,3]","457.10079828229595","115.61677167139962","466.7979018502134"
"","canvas-keyboard-response","186","147384","0.0-6.0-5.25","509","","","","","make choice","9776","1","","","catch","l","sh","sw","229","259","207","210","159","229","spektor","null","null","null","null","null","null","null","null","null","null","null","","180","200","260","200","36000","52000","[1,3]","","",""
"","canvas-keyboard-response","187","147402","0.0-6.0-6.25","509","","","","","clear_screen","null","null","","","catch","l","sh","sw","229","259","207","210","159","229","spektor","null","null","null","null","null","null","null","null","null","null","null","","180","200","260","200","36000","52000","[1,3]","","",""
"","canvas-keyboard-response","188","147603","0.0-6.0-0.26","509","","","","","pre trial waiting period","null","null","","","critical","c","d","t","164","240","220.0396","154.6796","240","164","spektor","0.14","w","240","164","164","240","220.0396","154.6796","39360","39360","34035.6388","tc","null","null","null","null","null","null","[3,1]","462.0588266802516","214.81626310085016","502.6419305855629"
"","canvas-keyboard-response","189","147624","0.0-6.0-1.26","509","","","","","clear_screen","null","null","","","critical","c","d","t","164","240","220.0396","154.6796","240","164","spektor","0.14","w","240","164","164","240","220.0396","154.6796","39360","39360","34035.6388","tc","null","null","null","null","null","null","[3,1]","462.0588266802516","214.81626310085016","502.6419305855629"
"","canvas-keyboard-response","190","148133","0.0-6.0-2.26","509","","","","","rectangles no change","null","null","","","critical","c","d","t","164","240","220.0396","154.6796","240","164","spektor","0.14","w","240","164","164","240","220.0396","154.6796","39360","39360","34035.6388","tc","null","null","null","null","null","null","[3,1]","462.0588266802516","214.81626310085016","502.6419305855629"
"","canvas-keyboard-response","191","149471","0.0-6.0-3.26","509","","","","","rectangles with change","null","null","","","critical","c","d","t","164","240","220.0396","154.6796","240","164","spektor","0.14","w","240","164","164","240","220.0396","154.6796","39360","39360","34035.6388","tc","null","null","null","null","null","null","[3,1]","462.0588266802516","214.81626310085016","502.6419305855629"
"","canvas-keyboard-response","192","149489","0.0-6.0-4.26","509","","","","","clear_screen","null","null","","","critical","c","d","t","164","240","220.0396","154.6796","240","164","spektor","0.14","w","240","164","164","240","220.0396","154.6796","39360","39360","34035.6388","tc","null","null","null","null","null","null","[3,1]","462.0588266802516","214.81626310085016","502.6419305855629"
"","canvas-keyboard-response","193","149905","0.0-6.0-5.26","509","","","","","make choice","408","1","","","critical","c","d","t","164","240","220.0396","154.6796","240","164","spektor","0.14","w","240","164","164","240","220.0396","154.6796","39360","39360","34035.6388","tc","null","null","null","null","null","null","[3,1]","","",""
"","canvas-keyboard-response","194","149923","0.0-6.0-6.26","509","","","","","clear_screen","null","null","","","critical","c","d","t","164","240","220.0396","154.6796","240","164","spektor","0.14","w","240","164","164","240","220.0396","154.6796","39360","39360","34035.6388","tc","null","null","null","null","null","null","[3,1]","","",""
"","canvas-keyboard-response","195","150124","0.0-6.0-0.27","509","","","","","pre trial waiting period","null","null","","","catch","l","sh","sw","220","280","213","184","200","200","trueblood","null","null","null","null","null","null","null","null","null","null","null","","180","200","260","200","36000","52000","[1,2]","425.52146150896044","481.05110471207655","461.53744231841273"
"","canvas-keyboard-response","196","150144","0.0-6.0-1.27","509","","","","","clear_screen","null","null","","","catch","l","sh","sw","220","280","213","184","200","200","trueblood","null","null","null","null","null","null","null","null","null","null","null","","180","200","260","200","36000","52000","[1,2]","425.52146150896044","481.05110471207655","461.53744231841273"
"","canvas-keyboard-response","197","150659","0.0-6.0-2.27","509","","","","","rectangles no change","null","null","","","catch","l","sh","sw","220","280","213","184","200","200","trueblood","null","null","null","null","null","null","null","null","null","null","null","","180","200","260","200","36000","52000","[1,2]","425.52146150896044","481.05110471207655","461.53744231841273"
"","canvas-keyboard-response","198","151994","0.0-6.0-3.27","509","","","","","rectangles with change","null","null","","","catch","l","sh","sw","220","280","213","184","200","200","trueblood","null","null","null","null","null","null","null","null","null","null","null","","180","200","260","200","36000","52000","[1,2]","425.52146150896044","481.05110471207655","461.53744231841273"
"","canvas-keyboard-response","199","152015","0.0-6.0-4.27","509","","","","","clear_screen","null","null","","","catch","l","sh","sw","220","280","213","184","200","200","trueblood","null","null","null","null","null","null","null","null","null","null","null","","180","200","260","200","36000","52000","[1,2]","425.52146150896044","481.05110471207655","461.53744231841273"
"","canvas-keyboard-response","200","152704","0.0-6.0-5.27","509","","","","","make choice","682","1","","","catch","l","sh","sw","220","280","213","184","200","200","trueblood","null","null","null","null","null","null","null","null","null","null","null","","180","200","260","200","36000","52000","[1,2]","","",""
"","canvas-keyboard-response","201","152721","0.0-6.0-6.27","509","","","","","clear_screen","null","null","","","catch","l","sh","sw","220","280","213","184","200","200","trueblood","null","null","null","null","null","null","null","null","null","null","null","","180","200","260","200","36000","52000","[1,2]","","",""
"","canvas-keyboard-response","202","152923","0.0-6.0-0.28","509","","","","","pre trial waiting period","null","null","","","critical","t","d","c","240","164","240","164","164","240","trueblood","0","w","240","164","164","240","240","164","39360","39360","39360","tc","null","null","null","null","null","null","[1,3]","472.15466139481254","474.1040095661313","441.5567641327274"
"","canvas-keyboard-response","203","152944","0.0-6.0-1.28","509","","","","","clear_screen","null","null","","","critical","t","d","c","240","164","240","164","164","240","trueblood","0","w","240","164","164","240","240","164","39360","39360","39360","tc","null","null","null","null","null","null","[1,3]","472.15466139481254","474.1040095661313","441.5567641327274"
"","canvas-keyboard-response","204","153452","0.0-6.0-2.28","509","","","","","rectangles no change","null","null","","","critical","t","d","c","240","164","240","164","164","240","trueblood","0","w","240","164","164","240","240","164","39360","39360","39360","tc","null","null","null","null","null","null","[1,3]","472.15466139481254","474.1040095661313","441.5567641327274"
"","canvas-keyboard-response","205","154787","0.0-6.0-3.28","509","","","","","rectangles with change","null","null","","","critical","t","d","c","240","164","240","164","164","240","trueblood","0","w","240","164","164","240","240","164","39360","39360","39360","tc","null","null","null","null","null","null","[1,3]","472.15466139481254","474.1040095661313","441.5567641327274"
"","canvas-keyboard-response","206","154808","0.0-6.0-4.28","509","","","","","clear_screen","null","null","","","critical","t","d","c","240","164","240","164","164","240","trueblood","0","w","240","164","164","240","240","164","39360","39360","39360","tc","null","null","null","null","null","null","[1,3]","472.15466139481254","474.1040095661313","441.5567641327274"
"","canvas-keyboard-response","207","155375","0.0-6.0-5.28","509","","","","","make choice","563","1","","","critical","t","d","c","240","164","240","164","164","240","trueblood","0","w","240","164","164","240","240","164","39360","39360","39360","tc","null","null","null","null","null","null","[1,3]","","",""
"","canvas-keyboard-response","208","155391","0.0-6.0-6.28","509","","","","","clear_screen","null","null","","","critical","t","d","c","240","164","240","164","164","240","trueblood","0","w","240","164","164","240","240","164","39360","39360","39360","tc","null","null","null","null","null","null","[1,3]","","",""
"","canvas-keyboard-response","209","155592","0.0-6.0-0.29","509","","","","","pre trial waiting period","null","null","","","catch","sh","sw","l","225","183","201","233","297","200","trueblood","null","null","null","null","null","null","null","null","null","null","null","","180","200","260","200","36000","52000","[1,3]","489.2584946922617","428.90854852447865","457.19777249007666"
"","canvas-keyboard-response","210","155612","0.0-6.0-1.29","509","","","","","clear_screen","null","null","","","catch","sh","sw","l","225","183","201","233","297","200","trueblood","null","null","null","null","null","null","null","null","null","null","null","","180","200","260","200","36000","52000","[1,3]","489.2584946922617","428.90854852447865","457.19777249007666"
"","canvas-keyboard-response","211","156119","0.0-6.0-2.29","509","","","","","rectangles no change","null","null","","","catch","sh","sw","l","225","183","201","233","297","200","trueblood","null","null","null","null","null","null","null","null","null","null","null","","180","200","260","200","36000","52000","[1,3]","489.2584946922617","428.90854852447865","457.19777249007666"
"","canvas-keyboard-response","212","157453","0.0-6.0-3.29","509","","","","","rectangles with change","null","null","","","catch","sh","sw","l","225","183","201","233","297","200","trueblood","null","null","null","null","null","null","null","null","null","null","null","","180","200","260","200","36000","52000","[1,3]","489.2584946922617","428.90854852447865","457.19777249007666"
"","canvas-keyboard-response","213","157474","0.0-6.0-4.29","509","","","","","clear_screen","null","null","","","catch","sh","sw","l","225","183","201","233","297","200","trueblood","null","null","null","null","null","null","null","null","null","null","null","","180","200","260","200","36000","52000","[1,3]","489.2584946922617","428.90854852447865","457.19777249007666"
"","canvas-keyboard-response","214","157792","0.0-6.0-5.29","509","","","","","make choice","313","3","","","catch","sh","sw","l","225","183","201","233","297","200","trueblood","null","null","null","null","null","null","null","null","null","null","null","","180","200","260","200","36000","52000","[1,3]","","",""
"","canvas-keyboard-response","215","157810","0.0-6.0-6.29","509","","","","","clear_screen","null","null","","","catch","sh","sw","l","225","183","201","233","297","200","trueblood","null","null","null","null","null","null","null","null","null","null","null","","180","200","260","200","36000","52000","[1,3]","","",""
"","canvas-keyboard-response","216","158011","0.0-6.0-0.30","509","","","","","pre trial waiting period","null","null","","","catch","sh","l","sw","182","159","253","193","218","213","trueblood","null","null","null","null","null","null","null","null","null","null","null","","180","200","260","200","36000","52000","[2,3]","479.19330919752895","497.14319900258454","454.73598374442184"
"","canvas-keyboard-response","217","158031","0.0-6.0-1.30","509","","","","","clear_screen","null","null","","","catch","sh","l","sw","182","159","253","193","218","213","trueblood","null","null","null","null","null","null","null","null","null","null","null","","180","200","260","200","36000","52000","[2,3]","479.19330919752895","497.14319900258454","454.73598374442184"
"","canvas-keyboard-response","218","158537","0.0-6.0-2.30","509","","","","","rectangles no change","null","null","","","catch","sh","l","sw","182","159","253","193","218","213","trueblood","null","null","null","null","null","null","null","null","null","null","null","","180","200","260","200","36000","52000","[2,3]","479.19330919752895","497.14319900258454","454.73598374442184"
"","canvas-keyboard-response","219","159874","0.0-6.0-3.30","509","","","","","rectangles with change","null","null","","","catch","sh","l","sw","182","159","253","193","218","213","trueblood","null","null","null","null","null","null","null","null","null","null","null","","180","200","260","200","36000","52000","[2,3]","479.19330919752895","497.14319900258454","454.73598374442184"
"","canvas-keyboard-response","220","159894","0.0-6.0-4.30","509","","","","","clear_screen","null","null","","","catch","sh","l","sw","182","159","253","193","218","213","trueblood","null","null","null","null","null","null","null","null","null","null","null","","180","200","260","200","36000","52000","[2,3]","479.19330919752895","497.14319900258454","454.73598374442184"
"","canvas-keyboard-response","221","160167","0.0-6.0-5.30","509","","","","","make choice","266","2","","","catch","sh","l","sw","182","159","253","193","218","213","trueblood","null","null","null","null","null","null","null","null","null","null","null","","180","200","260","200","36000","52000","[2,3]","","",""
"","canvas-keyboard-response","222","160186","0.0-6.0-6.30","509","","","","","clear_screen","null","null","","","catch","sh","l","sw","182","159","253","193","218","213","trueblood","null","null","null","null","null","null","null","null","null","null","null","","180","200","260","200","36000","52000","[2,3]","","",""
"","canvas-keyboard-response","223","160386","0.0-6.0-0.31","509","","","","","pre trial waiting period","null","null","","","critical","d","t","c","227.1683","158.0083","240","164","164","240","trueblood","0.09","w","240","164","164","240","227.1683","158.0083","39360","39360","35894.4834","dc","null","null","null","null","null","null","[1,3]","494.3848015310896","486.6587227088622","437.4628780168324"
"","canvas-keyboard-response","224","160406","0.0-6.0-1.31","509","","","","","clear_screen","null","null","","","critical","d","t","c","227.1683","158.0083","240","164","164","240","trueblood","0.09","w","240","164","164","240","227.1683","158.0083","39360","39360","35894.4834","dc","null","null","null","null","null","null","[1,3]","494.3848015310896","486.6587227088622","437.4628780168324"
"","canvas-keyboard-response","225","160915","0.0-6.0-2.31","509","","","","","rectangles no change","null","null","","","critical","d","t","c","227.1683","158.0083","240","164","164","240","trueblood","0.09","w","240","164","164","240","227.1683","158.0083","39360","39360","35894.4834","dc","null","null","null","null","null","null","[1,3]","494.3848015310896","486.6587227088622","437.4628780168324"
"","canvas-keyboard-response","226","162251","0.0-6.0-3.31","509","","","","","rectangles with change","null","null","","","critical","d","t","c","227.1683","158.0083","240","164","164","240","trueblood","0.09","w","240","164","164","240","227.1683","158.0083","39360","39360","35894.4834","dc","null","null","null","null","null","null","[1,3]","494.3848015310896","486.6587227088622","437.4628780168324"
"","canvas-keyboard-response","227","162275","0.0-6.0-4.31","509","","","","","clear_screen","null","null","","","critical","d","t","c","227.1683","158.0083","240","164","164","240","trueblood","0.09","w","240","164","164","240","227.1683","158.0083","39360","39360","35894.4834","dc","null","null","null","null","null","null","[1,3]","494.3848015310896","486.6587227088622","437.4628780168324"
"","canvas-keyboard-response","228","162872","0.0-6.0-5.31","509","","","","","make choice","591","1","","","critical","d","t","c","227.1683","158.0083","240","164","164","240","trueblood","0.09","w","240","164","164","240","227.1683","158.0083","39360","39360","35894.4834","dc","null","null","null","null","null","null","[1,3]","","",""
"","canvas-keyboard-response","229","162891","0.0-6.0-6.31","509","","","","","clear_screen","null","null","","","critical","d","t","c","227.1683","158.0083","240","164","164","240","trueblood","0.09","w","240","164","164","240","227.1683","158.0083","39360","39360","35894.4834","dc","null","null","null","null","null","null","[1,3]","","",""
"","canvas-keyboard-response","230","163091","0.0-6.0-0.32","509","","","","","pre trial waiting period","null","null","","","catch","sh","l","sw","224","185","243","176","200","168","spektor","null","null","null","null","null","null","null","null","null","null","null","","180","200","260","200","36000","52000","[2,3]","511.1219670046727","189.31965346103945","526.8257502678143"
"","canvas-keyboard-response","231","163112","0.0-6.0-1.32","509","","","","","clear_screen","null","null","","","catch","sh","l","sw","224","185","243","176","200","168","spektor","null","null","null","null","null","null","null","null","null","null","null","","180","200","260","200","36000","52000","[2,3]","511.1219670046727","189.31965346103945","526.8257502678143"
"","canvas-keyboard-response","232","163617","0.0-6.0-2.32","509","","","","","rectangles no change","null","null","","","catch","sh","l","sw","224","185","243","176","200","168","spektor","null","null","null","null","null","null","null","null","null","null","null","","180","200","260","200","36000","52000","[2,3]","511.1219670046727","189.31965346103945","526.8257502678143"
"","canvas-keyboard-response","233","164955","0.0-6.0-3.32","509","","","","","rectangles with change","null","null","","","catch","sh","l","sw","224","185","243","176","200","168","spektor","null","null","null","null","null","null","null","null","null","null","null","","180","200","260","200","36000","52000","[2,3]","511.1219670046727","189.31965346103945","526.8257502678143"
"","canvas-keyboard-response","234","164975","0.0-6.0-4.32","509","","","","","clear_screen","null","null","","","catch","sh","l","sw","224","185","243","176","200","168","spektor","null","null","null","null","null","null","null","null","null","null","null","","180","200","260","200","36000","52000","[2,3]","511.1219670046727","189.31965346103945","526.8257502678143"
"","canvas-keyboard-response","235","165289","0.0-6.0-5.32","509","","","","","make choice","304","2","","","catch","sh","l","sw","224","185","243","176","200","168","spektor","null","null","null","null","null","null","null","null","null","null","null","","180","200","260","200","36000","52000","[2,3]","","",""
"","canvas-keyboard-response","236","165306","0.0-6.0-6.32","509","","","","","clear_screen","null","null","","","catch","sh","l","sw","224","185","243","176","200","168","spektor","null","null","null","null","null","null","null","null","null","null","null","","180","200","260","200","36000","52000","[2,3]","","",""
"","canvas-keyboard-response","237","165507","0.0-6.0-0.33","509","","","","","pre trial waiting period","null","null","","","critical","c","d","t","240","164","162.6685","237.1485","164","240","trueblood","0.02","h","164","240","240","164","162.6685","237.1485","39360","39360","38576.5967","dc","null","null","null","null","null","null","[2,1]","514.7953002299447","432.32777558709495","434.5636340857217"
"","canvas-keyboard-response","238","165525","0.0-6.0-1.33","509","","","","","clear_screen","null","null","","","critical","c","d","t","240","164","162.6685","237.1485","164","240","trueblood","0.02","h","164","240","240","164","162.6685","237.1485","39360","39360","38576.5967","dc","null","null","null","null","null","null","[2,1]","514.7953002299447","432.32777558709495","434.5636340857217"
"","canvas-keyboard-response","239","166032","0.0-6.0-2.33","509","","","","","rectangles no change","null","null","","","critical","c","d","t","240","164","162.6685","237.1485","164","240","trueblood","0.02","h","164","240","240","164","162.6685","237.1485","39360","39360","38576.5967","dc","null","null","null","null","null","null","[2,1]","514.7953002299447","432.32777558709495","434.5636340857217"
"","canvas-keyboard-response","240","167370","0.0-6.0-3.33","509","","","","","rectangles with change","null","null","","","critical","c","d","t","240","164","162.6685","237.1485","164","240","trueblood","0.02","h","164","240","240","164","162.6685","237.1485","39360","39360","38576.5967","dc","null","null","null","null","null","null","[2,1]","514.7953002299447","432.32777558709495","434.5636340857217"
"","canvas-keyboard-response","241","167392","0.0-6.0-4.33","509","","","","","clear_screen","null","null","","","critical","c","d","t","240","164","162.6685","237.1485","164","240","trueblood","0.02","h","164","240","240","164","162.6685","237.1485","39360","39360","38576.5967","dc","null","null","null","null","null","null","[2,1]","514.7953002299447","432.32777558709495","434.5636340857217"
"","canvas-keyboard-response","242","167833","0.0-6.0-5.33","509","","","","","make choice","432","2","","","critical","c","d","t","240","164","162.6685","237.1485","164","240","trueblood","0.02","h","164","240","240","164","162.6685","237.1485","39360","39360","38576.5967","dc","null","null","null","null","null","null","[2,1]","","",""
"","canvas-keyboard-response","243","167852","0.0-6.0-6.33","509","","","","","clear_screen","null","null","","","critical","c","d","t","240","164","162.6685","237.1485","164","240","trueblood","0.02","h","164","240","240","164","162.6685","237.1485","39360","39360","38576.5967","dc","null","null","null","null","null","null","[2,1]","","",""
"","canvas-keyboard-response","244","168053","0.0-6.0-0.34","509","","","","","pre trial waiting period","null","null","","","critical","t","c","d","164","240","240","164","154.6796","220.0396","spektor","0.14","h","164","240","240","164","154.6796","220.0396","39360","39360","34035.6388","td","null","null","null","null","null","null","[1,3]","457.9770436545281","198.85317981985872","487.839349738729"
"","canvas-keyboard-response","245","168075","0.0-6.0-1.34","509","","","","","clear_screen","null","null","","","critical","t","c","d","164","240","240","164","154.6796","220.0396","spektor","0.14","h","164","240","240","164","154.6796","220.0396","39360","39360","34035.6388","td","null","null","null","null","null","null","[1,3]","457.9770436545281","198.85317981985872","487.839349738729"
"","canvas-keyboard-response","246","168584","0.0-6.0-2.34","509","","","","","rectangles no change","null","null","","","critical","t","c","d","164","240","240","164","154.6796","220.0396","spektor","0.14","h","164","240","240","164","154.6796","220.0396","39360","39360","34035.6388","td","null","null","null","null","null","null","[1,3]","457.9770436545281","198.85317981985872","487.839349738729"
"","canvas-keyboard-response","247","169921","0.0-6.0-3.34","509","","","","","rectangles with change","null","null","","","critical","t","c","d","164","240","240","164","154.6796","220.0396","spektor","0.14","h","164","240","240","164","154.6796","220.0396","39360","39360","34035.6388","td","null","null","null","null","null","null","[1,3]","457.9770436545281","198.85317981985872","487.839349738729"
"","canvas-keyboard-response","248","169942","0.0-6.0-4.34","509","","","","","clear_screen","null","null","","","critical","t","c","d","164","240","240","164","154.6796","220.0396","spektor","0.14","h","164","240","240","164","154.6796","220.0396","39360","39360","34035.6388","td","null","null","null","null","null","null","[1,3]","457.9770436545281","198.85317981985872","487.839349738729"
"","canvas-keyboard-response","249","170239","0.0-6.0-5.34","509","","","","","make choice","290","1","","","critical","t","c","d","164","240","240","164","154.6796","220.0396","spektor","0.14","h","164","240","240","164","154.6796","220.0396","39360","39360","34035.6388","td","null","null","null","null","null","null","[1,3]","","",""
"","canvas-keyboard-response","250","170257","0.0-6.0-6.34","509","","","","","clear_screen","null","null","","","critical","t","c","d","164","240","240","164","154.6796","220.0396","spektor","0.14","h","164","240","240","164","154.6796","220.0396","39360","39360","34035.6388","td","null","null","null","null","null","null","[1,3]","","",""
"","canvas-keyboard-response","251","170457","0.0-6.0-0.35","509","","","","","pre trial waiting period","null","null","","","catch","sw","l","sh","180","200","236","239","209","201","spektor","null","null","null","null","null","null","null","null","null","null","null","","180","200","260","200","36000","52000","[1,2]","505.1380364792289","112.22939932721948","514.3641578223445"
"","canvas-keyboard-response","252","170477","0.0-6.0-1.35","509","","","","","clear_screen","null","null","","","catch","sw","l","sh","180","200","236","239","209","201","spektor","null","null","null","null","null","null","null","null","null","null","null","","180","200","260","200","36000","52000","[1,2]","505.1380364792289","112.22939932721948","514.3641578223445"
"","canvas-keyboard-response","253","170987","0.0-6.0-2.35","509","","","","","rectangles no change","null","null","","","catch","sw","l","sh","180","200","236","239","209","201","spektor","null","null","null","null","null","null","null","null","null","null","null","","180","200","260","200","36000","52000","[1,2]","505.1380364792289","112.22939932721948","514.3641578223445"
"","canvas-keyboard-response","254","172326","0.0-6.0-3.35","509","","","","","rectangles with change","null","null","","","catch","sw","l","sh","180","200","236","239","209","201","spektor","null","null","null","null","null","null","null","null","null","null","null","","180","200","260","200","36000","52000","[1,2]","505.1380364792289","112.22939932721948","514.3641578223445"
"","canvas-keyboard-response","255","172347","0.0-6.0-4.35","509","","","","","clear_screen","null","null","","","catch","sw","l","sh","180","200","236","239","209","201","spektor","null","null","null","null","null","null","null","null","null","null","null","","180","200","260","200","36000","52000","[1,2]","505.1380364792289","112.22939932721948","514.3641578223445"
"","canvas-keyboard-response","256","172919","0.0-6.0-5.35","509","","","","","make choice","565","2","","","catch","sw","l","sh","180","200","236","239","209","201","spektor","null","null","null","null","null","null","null","null","null","null","null","","180","200","260","200","36000","52000","[1,2]","","",""
"","canvas-keyboard-response","257","172938","0.0-6.0-6.35","509","","","","","clear_screen","null","null","","","catch","sw","l","sh","180","200","236","239","209","201","spektor","null","null","null","null","null","null","null","null","null","null","null","","180","200","260","200","36000","52000","[1,2]","","",""
"","canvas-keyboard-response","258","173139","0.0-6.0-0.36","509","","","","","pre trial waiting period","null","null","","","catch","l","sh","sw","239","289","234","203","144","213","trueblood","null","null","null","null","null","null","null","null","null","null","null","","180","200","260","200","36000","52000","[1,3]","397.69183326043594","487.5895334379472","471.81359709655715"
"","canvas-keyboard-response","259","173158","0.0-6.0-1.36","509","","","","","clear_screen","null","null","","","catch","l","sh","sw","239","289","234","203","144","213","trueblood","null","null","null","null","null","null","null","null","null","null","null","","180","200","260","200","36000","52000","[1,3]","397.69183326043594","487.5895334379472","471.81359709655715"
"","canvas-keyboard-response","260","173668","0.0-6.0-2.36","509","","","","","rectangles no change","null","null","","","catch","l","sh","sw","239","289","234","203","144","213","trueblood","null","null","null","null","null","null","null","null","null","null","null","","180","200","260","200","36000","52000","[1,3]","397.69183326043594","487.5895334379472","471.81359709655715"
"","canvas-keyboard-response","261","175004","0.0-6.0-3.36","509","","","","","rectangles with change","null","null","","","catch","l","sh","sw","239","289","234","203","144","213","trueblood","null","null","null","null","null","null","null","null","null","null","null","","180","200","260","200","36000","52000","[1,3]","397.69183326043594","487.5895334379472","471.81359709655715"
"","canvas-keyboard-response","262","175022","0.0-6.0-4.36","509","","","","","clear_screen","null","null","","","catch","l","sh","sw","239","289","234","203","144","213","trueblood","null","null","null","null","null","null","null","null","null","null","null","","180","200","260","200","36000","52000","[1,3]","397.69183326043594","487.5895334379472","471.81359709655715"
"","canvas-keyboard-response","263","178151","0.0-6.0-5.36","509","","","","","make choice","3121","1","","","catch","l","sh","sw","239","289","234","203","144","213","trueblood","null","null","null","null","null","null","null","null","null","null","null","","180","200","260","200","36000","52000","[1,3]","","",""
"","canvas-keyboard-response","264","178170","0.0-6.0-6.36","509","","","","","clear_screen","null","null","","","catch","l","sh","sw","239","289","234","203","144","213","trueblood","null","null","null","null","null","null","null","null","null","null","null","","180","200","260","200","36000","52000","[1,3]","","",""
"","canvas-keyboard-response","265","178372","0.0-6.0-0.37","509","","","","","pre trial waiting period","null","null","","","critical","d","t","c","227.1683","158.0083","240","164","164","240","spektor","0.09","w","240","164","164","240","227.1683","158.0083","39360","39360","35894.4834","dc","null","null","null","null","null","null","[1,3]","529.9131533761965","193.53688406764286","476.3650263222528"
"","canvas-keyboard-response","266","178391","0.0-6.0-1.37","509","","","","","clear_screen","null","null","","","critical","d","t","c","227.1683","158.0083","240","164","164","240","spektor","0.09","w","240","164","164","240","227.1683","158.0083","39360","39360","35894.4834","dc","null","null","null","null","null","null","[1,3]","529.9131533761965","193.53688406764286","476.3650263222528"
