"success","trial_type","trial_index","time_elapsed","internal_node_id","sub_n","timeout","failed_images","failed_audio","failed_video","screen_id","rt","response","stimulus","view_history","trial","r1","r2","r3","w1","h1","w2","h2","w3","h3","display","tdd","tdo","tw","th","cw","ch","dw","dh","ta","ca","da","probe","csls","csss","clls","clss","sa","la","probe_rects","r1yloc","r2yloc","r3yloc"
"true","fullscreen","0","3493","0.0-0.0","530","","","","","","","","","","","","","","","","","","","","","","","","","","","","","","","","","","","","","","","","","",""
"true","preload","1","3514","0.0-1.0","530","false","[]","[]","[]","img preload","","","","","","","","","","","","","","","","","","","","","","","","","","","","","","","","","","","","",""
"","survey-html-form","2","6889","0.0-2.0","530","","","","","enter-sub-number","3368","{""response"":""530""}","","","","","","","","","","","","","","","","","","","","","","","","","","","","","","","","","","",""
"","image-button-response","3","33179","0.0-3.0","530","","","","","","26223","0","consent.png","","","","","","","","","","","","","","","","","","","","","","","","","","","","","","","","","",""
"","html-button-response","4","45876","0.0-4.0","530","","","","","intro mssg","12692","0","<div style= ""font-size:25px;"" <p> <strong> Welcome! </strong><br> <p style=""color:#8B0000; font-size:25px;""><strong> Please do NOT exit full screen until you are done with the experiment. </strong> </p><p style=""font-size:25px;color:#8B0000;""> <strong> Your data will be lost <br> if you try to go back or refresh the page after the experiment starts. Feel free to click ""previous"" during the instructions, however.</strong> </p><br><p> <strong> Thanks in advance for your contribution to our research! </strong></p>","","","","","","","","","","","","","","","","","","","","","","","","","","","","","","","","","",""
"","instructions","5","72439","0.0-5.0","530","","","","","instructions","26557","","","[{""page_index"":0,""viewing_time"":3244},{""page_index"":1,""viewing_time"":3471},{""page_index"":2,""viewing_time"":6247},{""page_index"":3,""viewing_time"":6033},{""page_index"":4,""viewing_time"":4696},{""page_index"":5,""viewing_time"":1151},{""page_index"":6,""viewing_time"":808},{""page_index"":7,""viewing_time"":906}]","","","","","","","","","","","","","","","","","","","","","","","","","","","","","","","","",""
"","canvas-keyboard-response","6","72646","0.0-6.0-0.0","530","","","","","pre trial waiting period","null","null","","","critical","c","d","t","240","164","160.6713","232.8713","164","240","trueblood","0.05","h","164","240","240","164","160.6713","232.8713","39360","39360","37415.7294","td","null","null","null","null","null","null","[3,2]","490.7255892546965","472.80848720976314","450.1674023608808"
"","canvas-keyboard-response","7","72675","0.0-6.0-1.0","530","","","","","clear_screen","null","null","","","critical","c","d","t","240","164","160.6713","232.8713","164","240","trueblood","0.05","h","164","240","240","164","160.6713","232.8713","39360","39360","37415.7294","td","null","null","null","null","null","null","[3,2]","490.7255892546965","472.80848720976314","450.1674023608808"
"","canvas-keyboard-response","8","73187","0.0-6.0-2.0","530","","","","","rectangles no change","null","null","","","critical","c","d","t","240","164","160.6713","232.8713","164","240","trueblood","0.05","h","164","240","240","164","160.6713","232.8713","39360","39360","37415.7294","td","null","null","null","null","null","null","[3,2]","490.7255892546965","472.80848720976314","450.1674023608808"
"","canvas-keyboard-response","9","74528","0.0-6.0-3.0","530","","","","","rectangles with change","null","null","","","critical","c","d","t","240","164","160.6713","232.8713","164","240","trueblood","0.05","h","164","240","240","164","160.6713","232.8713","39360","39360","37415.7294","td","null","null","null","null","null","null","[3,2]","490.7255892546965","472.80848720976314","450.1674023608808"
"","canvas-keyboard-response","10","74551","0.0-6.0-4.0","530","","","","","clear_screen","null","null","","","critical","c","d","t","240","164","160.6713","232.8713","164","240","trueblood","0.05","h","164","240","240","164","160.6713","232.8713","39360","39360","37415.7294","td","null","null","null","null","null","null","[3,2]","490.7255892546965","472.80848720976314","450.1674023608808"
"","canvas-keyboard-response","11","77421","0.0-6.0-5.0","530","","","","","make choice","2861","3","","","critical","c","d","t","240","164","160.6713","232.8713","164","240","trueblood","0.05","h","164","240","240","164","160.6713","232.8713","39360","39360","37415.7294","td","null","null","null","null","null","null","[3,2]","","",""
"","canvas-keyboard-response","12","77441","0.0-6.0-6.0","530","","","","","clear_screen","null","null","","","critical","c","d","t","240","164","160.6713","232.8713","164","240","trueblood","0.05","h","164","240","240","164","160.6713","232.8713","39360","39360","37415.7294","td","null","null","null","null","null","null","[3,2]","","",""
"","canvas-keyboard-response","13","77644","0.0-6.0-0.1","530","","","","","pre trial waiting period","null","null","","","catch","sw","l","sh","180","200","267","213","194","162","trueblood","null","null","null","null","null","null","null","null","null","null","null","","180","200","260","200","36000","52000","[2,3]","476.83673199915904","467.63853039438493","502.11424848329614"
"","canvas-keyboard-response","14","77668","0.0-6.0-1.1","530","","","","","clear_screen","null","null","","","catch","sw","l","sh","180","200","267","213","194","162","trueblood","null","null","null","null","null","null","null","null","null","null","null","","180","200","260","200","36000","52000","[2,3]","476.83673199915904","467.63853039438493","502.11424848329614"
"","canvas-keyboard-response","15","78175","0.0-6.0-2.1","530","","","","","rectangles no change","null","null","","","catch","sw","l","sh","180","200","267","213","194","162","trueblood","null","null","null","null","null","null","null","null","null","null","null","","180","200","260","200","36000","52000","[2,3]","476.83673199915904","467.63853039438493","502.11424848329614"
"","canvas-keyboard-response","16","79514","0.0-6.0-3.1","530","","","","","rectangles with change","null","null","","","catch","sw","l","sh","180","200","267","213","194","162","trueblood","null","null","null","null","null","null","null","null","null","null","null","","180","200","260","200","36000","52000","[2,3]","476.83673199915904","467.63853039438493","502.11424848329614"
"","canvas-keyboard-response","17","79539","0.0-6.0-4.1","530","","","","","clear_screen","null","null","","","catch","sw","l","sh","180","200","267","213","194","162","trueblood","null","null","null","null","null","null","null","null","null","null","null","","180","200","260","200","36000","52000","[2,3]","476.83673199915904","467.63853039438493","502.11424848329614"
"","canvas-keyboard-response","18","79996","0.0-6.0-5.1","530","","","","","make choice","446","2","","","catch","sw","l","sh","180","200","267","213","194","162","trueblood","null","null","null","null","null","null","null","null","null","null","null","","180","200","260","200","36000","52000","[2,3]","","",""
"","canvas-keyboard-response","19","80015","0.0-6.0-6.1","530","","","","","clear_screen","null","null","","","catch","sw","l","sh","180","200","267","213","194","162","trueblood","null","null","null","null","null","null","null","null","null","null","null","","180","200","260","200","36000","52000","[2,3]","","",""
"","canvas-keyboard-response","20","80216","0.0-6.0-0.2","530","","","","","pre trial waiting period","null","null","","","critical","c","t","d","164","240","240","164","240","164","spektor","0","w","240","164","164","240","240","164","39360","39360","39360","td","null","null","null","null","null","null","[2,3]","502.6436385730323","189.36297846072435","512.5600537767033"
"","canvas-keyboard-response","21","80239","0.0-6.0-1.2","530","","","","","clear_screen","null","null","","","critical","c","t","d","164","240","240","164","240","164","spektor","0","w","240","164","164","240","240","164","39360","39360","39360","td","null","null","null","null","null","null","[2,3]","502.6436385730323","189.36297846072435","512.5600537767033"
"","canvas-keyboard-response","22","80749","0.0-6.0-2.2","530","","","","","rectangles no change","null","null","","","critical","c","t","d","164","240","240","164","240","164","spektor","0","w","240","164","164","240","240","164","39360","39360","39360","td","null","null","null","null","null","null","[2,3]","502.6436385730323","189.36297846072435","512.5600537767033"
"","canvas-keyboard-response","23","82086","0.0-6.0-3.2","530","","","","","rectangles with change","null","null","","","critical","c","t","d","164","240","240","164","240","164","spektor","0","w","240","164","164","240","240","164","39360","39360","39360","td","null","null","null","null","null","null","[2,3]","502.6436385730323","189.36297846072435","512.5600537767033"
"","canvas-keyboard-response","24","82109","0.0-6.0-4.2","530","","","","","clear_screen","null","null","","","critical","c","t","d","164","240","240","164","240","164","spektor","0","w","240","164","164","240","240","164","39360","39360","39360","td","null","null","null","null","null","null","[2,3]","502.6436385730323","189.36297846072435","512.5600537767033"
"","canvas-keyboard-response","25","83340","0.0-6.0-5.2","530","","","","","make choice","1224","3","","","critical","c","t","d","164","240","240","164","240","164","spektor","0","w","240","164","164","240","240","164","39360","39360","39360","td","null","null","null","null","null","null","[2,3]","","",""
"","canvas-keyboard-response","26","83363","0.0-6.0-6.2","530","","","","","clear_screen","null","null","","","critical","c","t","d","164","240","240","164","240","164","spektor","0","w","240","164","164","240","240","164","39360","39360","39360","td","null","null","null","null","null","null","[2,3]","","",""
"","canvas-keyboard-response","27","83564","0.0-6.0-0.3","530","","","","","pre trial waiting period","null","null","","","catch","sw","sh","l","180","200","170","146","269","189","trueblood","null","null","null","null","null","null","null","null","null","null","null","","180","200","260","200","36000","52000","[2,3]","494.55906926344534","484.69761475213147","465.1922431445293"
"","canvas-keyboard-response","28","83584","0.0-6.0-1.3","530","","","","","clear_screen","null","null","","","catch","sw","sh","l","180","200","170","146","269","189","trueblood","null","null","null","null","null","null","null","null","null","null","null","","180","200","260","200","36000","52000","[2,3]","494.55906926344534","484.69761475213147","465.1922431445293"
"","canvas-keyboard-response","29","84089","0.0-6.0-2.3","530","","","","","rectangles no change","null","null","","","catch","sw","sh","l","180","200","170","146","269","189","trueblood","null","null","null","null","null","null","null","null","null","null","null","","180","200","260","200","36000","52000","[2,3]","494.55906926344534","484.69761475213147","465.1922431445293"
"","canvas-keyboard-response","30","85427","0.0-6.0-3.3","530","","","","","rectangles with change","null","null","","","catch","sw","sh","l","180","200","170","146","269","189","trueblood","null","null","null","null","null","null","null","null","null","null","null","","180","200","260","200","36000","52000","[2,3]","494.55906926344534","484.69761475213147","465.1922431445293"
"","canvas-keyboard-response","31","85451","0.0-6.0-4.3","530","","","","","clear_screen","null","null","","","catch","sw","sh","l","180","200","170","146","269","189","trueblood","null","null","null","null","null","null","null","null","null","null","null","","180","200","260","200","36000","52000","[2,3]","494.55906926344534","484.69761475213147","465.1922431445293"
"","canvas-keyboard-response","32","85901","0.0-6.0-5.3","530","","","","","make choice","444","3","","","catch","sw","sh","l","180","200","170","146","269","189","trueblood","null","null","null","null","null","null","null","null","null","null","null","","180","200","260","200","36000","52000","[2,3]","","",""
"","canvas-keyboard-response","33","85920","0.0-6.0-6.3","530","","","","","clear_screen","null","null","","","catch","sw","sh","l","180","200","170","146","269","189","trueblood","null","null","null","null","null","null","null","null","null","null","null","","180","200","260","200","36000","52000","[2,3]","","",""
"","canvas-keyboard-response","34","86121","0.0-6.0-0.4","530","","","","","pre trial waiting period","null","null","","","critical","t","c","d","164","240","240","164","154.6796","220.0396","spektor","0.14","h","164","240","240","164","154.6796","220.0396","39360","39360","34035.6388","dc","null","null","null","null","null","null","[3,2]","503.8088219459698","172.14010927299893","475.5655545372556"
"","canvas-keyboard-response","35","86146","0.0-6.0-1.4","530","","","","","clear_screen","null","null","","","critical","t","c","d","164","240","240","164","154.6796","220.0396","spektor","0.14","h","164","240","240","164","154.6796","220.0396","39360","39360","34035.6388","dc","null","null","null","null","null","null","[3,2]","503.8088219459698","172.14010927299893","475.5655545372556"
"","canvas-keyboard-response","36","86654","0.0-6.0-2.4","530","","","","","rectangles no change","null","null","","","critical","t","c","d","164","240","240","164","154.6796","220.0396","spektor","0.14","h","164","240","240","164","154.6796","220.0396","39360","39360","34035.6388","dc","null","null","null","null","null","null","[3,2]","503.8088219459698","172.14010927299893","475.5655545372556"
"","canvas-keyboard-response","37","87990","0.0-6.0-3.4","530","","","","","rectangles with change","null","null","","","critical","t","c","d","164","240","240","164","154.6796","220.0396","spektor","0.14","h","164","240","240","164","154.6796","220.0396","39360","39360","34035.6388","dc","null","null","null","null","null","null","[3,2]","503.8088219459698","172.14010927299893","475.5655545372556"
"","canvas-keyboard-response","38","88008","0.0-6.0-4.4","530","","","","","clear_screen","null","null","","","critical","t","c","d","164","240","240","164","154.6796","220.0396","spektor","0.14","h","164","240","240","164","154.6796","220.0396","39360","39360","34035.6388","dc","null","null","null","null","null","null","[3,2]","503.8088219459698","172.14010927299893","475.5655545372556"
"","canvas-keyboard-response","39","88444","0.0-6.0-5.4","530","","","","","make choice","429","2","","","critical","t","c","d","164","240","240","164","154.6796","220.0396","spektor","0.14","h","164","240","240","164","154.6796","220.0396","39360","39360","34035.6388","dc","null","null","null","null","null","null","[3,2]","","",""
"","canvas-keyboard-response","40","88463","0.0-6.0-6.4","530","","","","","clear_screen","null","null","","","critical","t","c","d","164","240","240","164","154.6796","220.0396","spektor","0.14","h","164","240","240","164","154.6796","220.0396","39360","39360","34035.6388","dc","null","null","null","null","null","null","[3,2]","","",""
"","canvas-keyboard-response","41","88665","0.0-6.0-0.5","530","","","","","pre trial waiting period","null","null","","","critical","c","d","t","240","164","164","240","164","240","spektor","0","h","164","240","240","164","164","240","39360","39360","39360","dc","null","null","null","null","null","null","[2,1]","514.375998237273","135.22878822271068","488.93508137508024"
"","canvas-keyboard-response","42","88684","0.0-6.0-1.5","530","","","","","clear_screen","null","null","","","critical","c","d","t","240","164","164","240","164","240","spektor","0","h","164","240","240","164","164","240","39360","39360","39360","dc","null","null","null","null","null","null","[2,1]","514.375998237273","135.22878822271068","488.93508137508024"
"","canvas-keyboard-response","43","89191","0.0-6.0-2.5","530","","","","","rectangles no change","null","null","","","critical","c","d","t","240","164","164","240","164","240","spektor","0","h","164","240","240","164","164","240","39360","39360","39360","dc","null","null","null","null","null","null","[2,1]","514.375998237273","135.22878822271068","488.93508137508024"
"","canvas-keyboard-response","44","90527","0.0-6.0-3.5","530","","","","","rectangles with change","null","null","","","critical","c","d","t","240","164","164","240","164","240","spektor","0","h","164","240","240","164","164","240","39360","39360","39360","dc","null","null","null","null","null","null","[2,1]","514.375998237273","135.22878822271068","488.93508137508024"
"","canvas-keyboard-response","45","90546","0.0-6.0-4.5","530","","","","","clear_screen","null","null","","","critical","c","d","t","240","164","164","240","164","240","spektor","0","h","164","240","240","164","164","240","39360","39360","39360","dc","null","null","null","null","null","null","[2,1]","514.375998237273","135.22878822271068","488.93508137508024"
"","canvas-keyboard-response","46","91228","0.0-6.0-5.5","530","","","","","make choice","674","2","","","critical","c","d","t","240","164","164","240","164","240","spektor","0","h","164","240","240","164","164","240","39360","39360","39360","dc","null","null","null","null","null","null","[2,1]","","",""
"","canvas-keyboard-response","47","91248","0.0-6.0-6.5","530","","","","","clear_screen","null","null","","","critical","c","d","t","240","164","164","240","164","240","spektor","0","h","164","240","240","164","164","240","39360","39360","39360","dc","null","null","null","null","null","null","[2,1]","","",""
"","canvas-keyboard-response","48","91449","0.0-6.0-0.6","530","","","","","pre trial waiting period","null","null","","","critical","d","c","t","240","164","164","240","240","164","trueblood","0","w","240","164","164","240","240","164","39360","39360","39360","td","null","null","null","null","null","null","[3,1]","485.93249897100486","453.2404131790594","514.7055557020841"
"","canvas-keyboard-response","49","91469","0.0-6.0-1.6","530","","","","","clear_screen","null","null","","","critical","d","c","t","240","164","164","240","240","164","trueblood","0","w","240","164","164","240","240","164","39360","39360","39360","td","null","null","null","null","null","null","[3,1]","485.93249897100486","453.2404131790594","514.7055557020841"
"","canvas-keyboard-response","50","91977","0.0-6.0-2.6","530","","","","","rectangles no change","null","null","","","critical","d","c","t","240","164","164","240","240","164","trueblood","0","w","240","164","164","240","240","164","39360","39360","39360","td","null","null","null","null","null","null","[3,1]","485.93249897100486","453.2404131790594","514.7055557020841"
"","canvas-keyboard-response","51","93314","0.0-6.0-3.6","530","","","","","rectangles with change","null","null","","","critical","d","c","t","240","164","164","240","240","164","trueblood","0","w","240","164","164","240","240","164","39360","39360","39360","td","null","null","null","null","null","null","[3,1]","485.93249897100486","453.2404131790594","514.7055557020841"
"","canvas-keyboard-response","52","93333","0.0-6.0-4.6","530","","","","","clear_screen","null","null","","","critical","d","c","t","240","164","164","240","240","164","trueblood","0","w","240","164","164","240","240","164","39360","39360","39360","td","null","null","null","null","null","null","[3,1]","485.93249897100486","453.2404131790594","514.7055557020841"
"","canvas-keyboard-response","53","96276","0.0-6.0-5.6","530","","","","","make choice","2934","1","","","critical","d","c","t","240","164","164","240","240","164","trueblood","0","w","240","164","164","240","240","164","39360","39360","39360","td","null","null","null","null","null","null","[3,1]","","",""
"","canvas-keyboard-response","54","96297","0.0-6.0-6.6","530","","","","","clear_screen","null","null","","","critical","d","c","t","240","164","164","240","240","164","trueblood","0","w","240","164","164","240","240","164","39360","39360","39360","td","null","null","null","null","null","null","[3,1]","","",""
"","canvas-keyboard-response","55","96499","0.0-6.0-0.7","530","","","","","pre trial waiting period","null","null","","","critical","c","d","t","240","164","164","240","164","240","spektor","0","h","164","240","240","164","164","240","39360","39360","39360","td","null","null","null","null","null","null","[3,2]","506.07529570048456","95.84931280044376","461.81098157973537"
"","canvas-keyboard-response","56","96520","0.0-6.0-1.7","530","","","","","clear_screen","null","null","","","critical","c","d","t","240","164","164","240","164","240","spektor","0","h","164","240","240","164","164","240","39360","39360","39360","td","null","null","null","null","null","null","[3,2]","506.07529570048456","95.84931280044376","461.81098157973537"
"","canvas-keyboard-response","57","97031","0.0-6.0-2.7","530","","","","","rectangles no change","null","null","","","critical","c","d","t","240","164","164","240","164","240","spektor","0","h","164","240","240","164","164","240","39360","39360","39360","td","null","null","null","null","null","null","[3,2]","506.07529570048456","95.84931280044376","461.81098157973537"
"","canvas-keyboard-response","58","98365","0.0-6.0-3.7","530","","","","","rectangles with change","null","null","","","critical","c","d","t","240","164","164","240","164","240","spektor","0","h","164","240","240","164","164","240","39360","39360","39360","td","null","null","null","null","null","null","[3,2]","506.07529570048456","95.84931280044376","461.81098157973537"
"","canvas-keyboard-response","59","98389","0.0-6.0-4.7","530","","","","","clear_screen","null","null","","","critical","c","d","t","240","164","164","240","164","240","spektor","0","h","164","240","240","164","164","240","39360","39360","39360","td","null","null","null","null","null","null","[3,2]","506.07529570048456","95.84931280044376","461.81098157973537"
"","canvas-keyboard-response","60","99708","0.0-6.0-5.7","530","","","","","make choice","1312","2","","","critical","c","d","t","240","164","164","240","164","240","spektor","0","h","164","240","240","164","164","240","39360","39360","39360","td","null","null","null","null","null","null","[3,2]","","",""
"","canvas-keyboard-response","61","99728","0.0-6.0-6.7","530","","","","","clear_screen","null","null","","","critical","c","d","t","240","164","164","240","164","240","spektor","0","h","164","240","240","164","164","240","39360","39360","39360","td","null","null","null","null","null","null","[3,2]","","",""
"","canvas-keyboard-response","62","99929","0.0-6.0-0.8","530","","","","","pre trial waiting period","null","null","","","critical","d","c","t","164","240","240","164","164","240","trueblood","0","h","164","240","240","164","164","240","39360","39360","39360","td","null","null","null","null","null","null","[3,1]","444.4214895124354","493.79794346391355","436.57136363951736"
"","canvas-keyboard-response","63","99951","0.0-6.0-1.8","530","","","","","clear_screen","null","null","","","critical","d","c","t","164","240","240","164","164","240","trueblood","0","h","164","240","240","164","164","240","39360","39360","39360","td","null","null","null","null","null","null","[3,1]","444.4214895124354","493.79794346391355","436.57136363951736"
"","canvas-keyboard-response","64","100456","0.0-6.0-2.8","530","","","","","rectangles no change","null","null","","","critical","d","c","t","164","240","240","164","164","240","trueblood","0","h","164","240","240","164","164","240","39360","39360","39360","td","null","null","null","null","null","null","[3,1]","444.4214895124354","493.79794346391355","436.57136363951736"
"","canvas-keyboard-response","65","101795","0.0-6.0-3.8","530","","","","","rectangles with change","null","null","","","critical","d","c","t","164","240","240","164","164","240","trueblood","0","h","164","240","240","164","164","240","39360","39360","39360","td","null","null","null","null","null","null","[3,1]","444.4214895124354","493.79794346391355","436.57136363951736"
"","canvas-keyboard-response","66","101816","0.0-6.0-4.8","530","","","","","clear_screen","null","null","","","critical","d","c","t","164","240","240","164","164","240","trueblood","0","h","164","240","240","164","164","240","39360","39360","39360","td","null","null","null","null","null","null","[3,1]","444.4214895124354","493.79794346391355","436.57136363951736"
"","canvas-keyboard-response","67","102196","0.0-6.0-5.8","530","","","","","make choice","373","3","","","critical","d","c","t","164","240","240","164","164","240","trueblood","0","h","164","240","240","164","164","240","39360","39360","39360","td","null","null","null","null","null","null","[3,1]","","",""
"","canvas-keyboard-response","68","102214","0.0-6.0-6.8","530","","","","","clear_screen","null","null","","","critical","d","c","t","164","240","240","164","164","240","trueblood","0","h","164","240","240","164","164","240","39360","39360","39360","td","null","null","null","null","null","null","[3,1]","","",""
"","canvas-keyboard-response","69","102415","0.0-6.0-0.9","530","","","","","pre trial waiting period","null","null","","","critical","t","d","c","164","240","158.0083","227.1683","240","164","trueblood","0.09","h","164","240","240","164","158.0083","227.1683","39360","39360","35894.4834","dc","null","null","null","null","null","null","[2,3]","447.45988676955477","447.75933912006434","485.01085441407196"
"","canvas-keyboard-response","70","102439","0.0-6.0-1.9","530","","","","","clear_screen","null","null","","","critical","t","d","c","164","240","158.0083","227.1683","240","164","trueblood","0.09","h","164","240","240","164","158.0083","227.1683","39360","39360","35894.4834","dc","null","null","null","null","null","null","[2,3]","447.45988676955477","447.75933912006434","485.01085441407196"
"","canvas-keyboard-response","71","102947","0.0-6.0-2.9","530","","","","","rectangles no change","null","null","","","critical","t","d","c","164","240","158.0083","227.1683","240","164","trueblood","0.09","h","164","240","240","164","158.0083","227.1683","39360","39360","35894.4834","dc","null","null","null","null","null","null","[2,3]","447.45988676955477","447.75933912006434","485.01085441407196"
"","canvas-keyboard-response","72","104286","0.0-6.0-3.9","530","","","","","rectangles with change","null","null","","","critical","t","d","c","164","240","158.0083","227.1683","240","164","trueblood","0.09","h","164","240","240","164","158.0083","227.1683","39360","39360","35894.4834","dc","null","null","null","null","null","null","[2,3]","447.45988676955477","447.75933912006434","485.01085441407196"
"","canvas-keyboard-response","73","104307","0.0-6.0-4.9","530","","","","","clear_screen","null","null","","","critical","t","d","c","164","240","158.0083","227.1683","240","164","trueblood","0.09","h","164","240","240","164","158.0083","227.1683","39360","39360","35894.4834","dc","null","null","null","null","null","null","[2,3]","447.45988676955477","447.75933912006434","485.01085441407196"
"","canvas-keyboard-response","74","104732","0.0-6.0-5.9","530","","","","","make choice","419","3","","","critical","t","d","c","164","240","158.0083","227.1683","240","164","trueblood","0.09","h","164","240","240","164","158.0083","227.1683","39360","39360","35894.4834","dc","null","null","null","null","null","null","[2,3]","","",""
"","canvas-keyboard-response","75","104750","0.0-6.0-6.9","530","","","","","clear_screen","null","null","","","critical","t","d","c","164","240","158.0083","227.1683","240","164","trueblood","0.09","h","164","240","240","164","158.0083","227.1683","39360","39360","35894.4834","dc","null","null","null","null","null","null","[2,3]","","",""
"","canvas-keyboard-response","76","104952","0.0-6.0-0.10","530","","","","","pre trial waiting period","null","null","","","catch","sh","l","sw","164","149","280","235","168","206","trueblood","null","null","null","null","null","null","null","null","null","null","null","","180","200","260","200","36000","52000","[1,2]","526.240448262196","471.0432005903389","448.33558642111575"
"","canvas-keyboard-response","77","104976","0.0-6.0-1.10","530","","","","","clear_screen","null","null","","","catch","sh","l","sw","164","149","280","235","168","206","trueblood","null","null","null","null","null","null","null","null","null","null","null","","180","200","260","200","36000","52000","[1,2]","526.240448262196","471.0432005903389","448.33558642111575"
"","canvas-keyboard-response","78","105483","0.0-6.0-2.10","530","","","","","rectangles no change","null","null","","","catch","sh","l","sw","164","149","280","235","168","206","trueblood","null","null","null","null","null","null","null","null","null","null","null","","180","200","260","200","36000","52000","[1,2]","526.240448262196","471.0432005903389","448.33558642111575"
"","canvas-keyboard-response","79","106819","0.0-6.0-3.10","530","","","","","rectangles with change","null","null","","","catch","sh","l","sw","164","149","280","235","168","206","trueblood","null","null","null","null","null","null","null","null","null","null","null","","180","200","260","200","36000","52000","[1,2]","526.240448262196","471.0432005903389","448.33558642111575"
"","canvas-keyboard-response","80","106840","0.0-6.0-4.10","530","","","","","clear_screen","null","null","","","catch","sh","l","sw","164","149","280","235","168","206","trueblood","null","null","null","null","null","null","null","null","null","null","null","","180","200","260","200","36000","52000","[1,2]","526.240448262196","471.0432005903389","448.33558642111575"
"","canvas-keyboard-response","81","107140","0.0-6.0-5.10","530","","","","","make choice","292","2","","","catch","sh","l","sw","164","149","280","235","168","206","trueblood","null","null","null","null","null","null","null","null","null","null","null","","180","200","260","200","36000","52000","[1,2]","","",""
"","canvas-keyboard-response","82","107159","0.0-6.0-6.10","530","","","","","clear_screen","null","null","","","catch","sh","l","sw","164","149","280","235","168","206","trueblood","null","null","null","null","null","null","null","null","null","null","null","","180","200","260","200","36000","52000","[1,2]","","",""
"","canvas-keyboard-response","83","107360","0.0-6.0-0.11","530","","","","","pre trial waiting period","null","null","","","critical","d","t","c","158.0083","227.1683","164","240","240","164","spektor","0.09","h","164","240","240","164","158.0083","227.1683","39360","39360","35894.4834","tc","null","null","null","null","null","null","[2,3]","497.7204032544478","142.27987262299837","527.1322280786784"
"","canvas-keyboard-response","84","107380","0.0-6.0-1.11","530","","","","","clear_screen","null","null","","","critical","d","t","c","158.0083","227.1683","164","240","240","164","spektor","0.09","h","164","240","240","164","158.0083","227.1683","39360","39360","35894.4834","tc","null","null","null","null","null","null","[2,3]","497.7204032544478","142.27987262299837","527.1322280786784"
"","canvas-keyboard-response","85","107891","0.0-6.0-2.11","530","","","","","rectangles no change","null","null","","","critical","d","t","c","158.0083","227.1683","164","240","240","164","spektor","0.09","h","164","240","240","164","158.0083","227.1683","39360","39360","35894.4834","tc","null","null","null","null","null","null","[2,3]","497.7204032544478","142.27987262299837","527.1322280786784"
"","canvas-keyboard-response","86","109230","0.0-6.0-3.11","530","","","","","rectangles with change","null","null","","","critical","d","t","c","158.0083","227.1683","164","240","240","164","spektor","0.09","h","164","240","240","164","158.0083","227.1683","39360","39360","35894.4834","tc","null","null","null","null","null","null","[2,3]","497.7204032544478","142.27987262299837","527.1322280786784"
"","canvas-keyboard-response","87","109252","0.0-6.0-4.11","530","","","","","clear_screen","null","null","","","critical","d","t","c","158.0083","227.1683","164","240","240","164","spektor","0.09","h","164","240","240","164","158.0083","227.1683","39360","39360","35894.4834","tc","null","null","null","null","null","null","[2,3]","497.7204032544478","142.27987262299837","527.1322280786784"
"","canvas-keyboard-response","88","109419","0.0-6.0-5.11","530","","","","","make choice","161","3","","","critical","d","t","c","158.0083","227.1683","164","240","240","164","spektor","0.09","h","164","240","240","164","158.0083","227.1683","39360","39360","35894.4834","tc","null","null","null","null","null","null","[2,3]","","",""
"","canvas-keyboard-response","89","109439","0.0-6.0-6.11","530","","","","","clear_screen","null","null","","","critical","d","t","c","158.0083","227.1683","164","240","240","164","spektor","0.09","h","164","240","240","164","158.0083","227.1683","39360","39360","35894.4834","tc","null","null","null","null","null","null","[2,3]","","",""
"","canvas-keyboard-response","90","109639","0.0-6.0-0.12","530","","","","","pre trial waiting period","null","null","","","catch","l","sw","sh","215","264","170","165","162","148","spektor","null","null","null","null","null","null","null","null","null","null","null","","180","200","260","200","36000","52000","[1,2]","460.01407685678265","175.20737626960576","514.6271794382882"
"","canvas-keyboard-response","91","109663","0.0-6.0-1.12","530","","","","","clear_screen","null","null","","","catch","l","sw","sh","215","264","170","165","162","148","spektor","null","null","null","null","null","null","null","null","null","null","null","","180","200","260","200","36000","52000","[1,2]","460.01407685678265","175.20737626960576","514.6271794382882"
"","canvas-keyboard-response","92","110171","0.0-6.0-2.12","530","","","","","rectangles no change","null","null","","","catch","l","sw","sh","215","264","170","165","162","148","spektor","null","null","null","null","null","null","null","null","null","null","null","","180","200","260","200","36000","52000","[1,2]","460.01407685678265","175.20737626960576","514.6271794382882"
"","canvas-keyboard-response","93","111507","0.0-6.0-3.12","530","","","","","rectangles with change","null","null","","","catch","l","sw","sh","215","264","170","165","162","148","spektor","null","null","null","null","null","null","null","null","null","null","null","","180","200","260","200","36000","52000","[1,2]","460.01407685678265","175.20737626960576","514.6271794382882"
"","canvas-keyboard-response","94","111527","0.0-6.0-4.12","530","","","","","clear_screen","null","null","","","catch","l","sw","sh","215","264","170","165","162","148","spektor","null","null","null","null","null","null","null","null","null","null","null","","180","200","260","200","36000","52000","[1,2]","460.01407685678265","175.20737626960576","514.6271794382882"
"","canvas-keyboard-response","95","111819","0.0-6.0-5.12","530","","","","","make choice","283","1","","","catch","l","sw","sh","215","264","170","165","162","148","spektor","null","null","null","null","null","null","null","null","null","null","null","","180","200","260","200","36000","52000","[1,2]","","",""
"","canvas-keyboard-response","96","111838","0.0-6.0-6.12","530","","","","","clear_screen","null","null","","","catch","l","sw","sh","215","264","170","165","162","148","spektor","null","null","null","null","null","null","null","null","null","null","null","","180","200","260","200","36000","52000","[1,2]","","",""
"","canvas-keyboard-response","97","112039","0.0-6.0-0.13","530","","","","","pre trial waiting period","null","null","","","catch","l","sh","sw","248","216","227","201","187","239","trueblood","null","null","null","null","null","null","null","null","null","null","null","","180","200","260","200","36000","52000","[1,2]","446.7667485710681","448.6588283180778","460.06768364699735"
"","canvas-keyboard-response","98","112059","0.0-6.0-1.13","530","","","","","clear_screen","null","null","","","catch","l","sh","sw","248","216","227","201","187","239","trueblood","null","null","null","null","null","null","null","null","null","null","null","","180","200","260","200","36000","52000","[1,2]","446.7667485710681","448.6588283180778","460.06768364699735"
"","canvas-keyboard-response","99","112565","0.0-6.0-2.13","530","","","","","rectangles no change","null","null","","","catch","l","sh","sw","248","216","227","201","187","239","trueblood","null","null","null","null","null","null","null","null","null","null","null","","180","200","260","200","36000","52000","[1,2]","446.7667485710681","448.6588283180778","460.06768364699735"
"","canvas-keyboard-response","100","113903","0.0-6.0-3.13","530","","","","","rectangles with change","null","null","","","catch","l","sh","sw","248","216","227","201","187","239","trueblood","null","null","null","null","null","null","null","null","null","null","null","","180","200","260","200","36000","52000","[1,2]","446.7667485710681","448.6588283180778","460.06768364699735"
"","canvas-keyboard-response","101","113926","0.0-6.0-4.13","530","","","","","clear_screen","null","null","","","catch","l","sh","sw","248","216","227","201","187","239","trueblood","null","null","null","null","null","null","null","null","null","null","null","","180","200","260","200","36000","52000","[1,2]","446.7667485710681","448.6588283180778","460.06768364699735"
"","canvas-keyboard-response","102","117060","0.0-6.0-5.13","530","","","","","make choice","3128","2","","","catch","l","sh","sw","248","216","227","201","187","239","trueblood","null","null","null","null","null","null","null","null","null","null","null","","180","200","260","200","36000","52000","[1,2]","","",""
"","canvas-keyboard-response","103","117080","0.0-6.0-6.13","530","","","","","clear_screen","null","null","","","catch","l","sh","sw","248","216","227","201","187","239","trueblood","null","null","null","null","null","null","null","null","null","null","null","","180","200","260","200","36000","52000","[1,2]","","",""
"","canvas-keyboard-response","104","117281","0.0-6.0-0.14","530","","","","","pre trial waiting period","null","null","","","catch","sw","l","sh","180","200","184","277","188","141","trueblood","null","null","null","null","null","null","null","null","null","null","null","","180","200","260","200","36000","52000","[1,2]","476.2909750360129","441.3866070029898","492.96556990978576"
"","canvas-keyboard-response","105","117301","0.0-6.0-1.14","530","","","","","clear_screen","null","null","","","catch","sw","l","sh","180","200","184","277","188","141","trueblood","null","null","null","null","null","null","null","null","null","null","null","","180","200","260","200","36000","52000","[1,2]","476.2909750360129","441.3866070029898","492.96556990978576"
"","canvas-keyboard-response","106","117810","0.0-6.0-2.14","530","","","","","rectangles no change","null","null","","","catch","sw","l","sh","180","200","184","277","188","141","trueblood","null","null","null","null","null","null","null","null","null","null","null","","180","200","260","200","36000","52000","[1,2]","476.2909750360129","441.3866070029898","492.96556990978576"
"","canvas-keyboard-response","107","119144","0.0-6.0-3.14","530","","","","","rectangles with change","null","null","","","catch","sw","l","sh","180","200","184","277","188","141","trueblood","null","null","null","null","null","null","null","null","null","null","null","","180","200","260","200","36000","52000","[1,2]","476.2909750360129","441.3866070029898","492.96556990978576"
"","canvas-keyboard-response","108","119164","0.0-6.0-4.14","530","","","","","clear_screen","null","null","","","catch","sw","l","sh","180","200","184","277","188","141","trueblood","null","null","null","null","null","null","null","null","null","null","null","","180","200","260","200","36000","52000","[1,2]","476.2909750360129","441.3866070029898","492.96556990978576"
"","canvas-keyboard-response","109","119692","0.0-6.0-5.14","530","","","","","make choice","521","2","","","catch","sw","l","sh","180","200","184","277","188","141","trueblood","null","null","null","null","null","null","null","null","null","null","null","","180","200","260","200","36000","52000","[1,2]","","",""
"","canvas-keyboard-response","110","119712","0.0-6.0-6.14","530","","","","","clear_screen","null","null","","","catch","sw","l","sh","180","200","184","277","188","141","trueblood","null","null","null","null","null","null","null","null","null","null","null","","180","200","260","200","36000","52000","[1,2]","","",""
"","canvas-keyboard-response","111","119913","0.0-6.0-0.15","530","","","","","pre trial waiting period","null","null","","","critical","t","c","d","164","240","240","164","160.6713","232.8713","spektor","0.05","h","164","240","240","164","160.6713","232.8713","39360","39360","37415.7294","td","null","null","null","null","null","null","[1,3]","462.3284515065579","189.13635909157182","464.9086714653154"
"","canvas-keyboard-response","112","119935","0.0-6.0-1.15","530","","","","","clear_screen","null","null","","","critical","t","c","d","164","240","240","164","160.6713","232.8713","spektor","0.05","h","164","240","240","164","160.6713","232.8713","39360","39360","37415.7294","td","null","null","null","null","null","null","[1,3]","462.3284515065579","189.13635909157182","464.9086714653154"
"","canvas-keyboard-response","113","120442","0.0-6.0-2.15","530","","","","","rectangles no change","null","null","","","critical","t","c","d","164","240","240","164","160.6713","232.8713","spektor","0.05","h","164","240","240","164","160.6713","232.8713","39360","39360","37415.7294","td","null","null","null","null","null","null","[1,3]","462.3284515065579","189.13635909157182","464.9086714653154"
"","canvas-keyboard-response","114","121780","0.0-6.0-3.15","530","","","","","rectangles with change","null","null","","","critical","t","c","d","164","240","240","164","160.6713","232.8713","spektor","0.05","h","164","240","240","164","160.6713","232.8713","39360","39360","37415.7294","td","null","null","null","null","null","null","[1,3]","462.3284515065579","189.13635909157182","464.9086714653154"
"","canvas-keyboard-response","115","121803","0.0-6.0-4.15","530","","","","","clear_screen","null","null","","","critical","t","c","d","164","240","240","164","160.6713","232.8713","spektor","0.05","h","164","240","240","164","160.6713","232.8713","39360","39360","37415.7294","td","null","null","null","null","null","null","[1,3]","462.3284515065579","189.13635909157182","464.9086714653154"
"","canvas-keyboard-response","116","125684","0.0-6.0-5.15","530","","","","","make choice","3875","1","","","critical","t","c","d","164","240","240","164","160.6713","232.8713","spektor","0.05","h","164","240","240","164","160.6713","232.8713","39360","39360","37415.7294","td","null","null","null","null","null","null","[1,3]","","",""
"","canvas-keyboard-response","117","125703","0.0-6.0-6.15","530","","","","","clear_screen","null","null","","","critical","t","c","d","164","240","240","164","160.6713","232.8713","spektor","0.05","h","164","240","240","164","160.6713","232.8713","39360","39360","37415.7294","td","null","null","null","null","null","null","[1,3]","","",""
"","canvas-keyboard-response","118","125904","0.0-6.0-0.16","530","","","","","pre trial waiting period","null","null","","","catch","l","sh","sw","275","230","233","167","192","187","spektor","null","null","null","null","null","null","null","null","null","null","null","","180","200","260","200","36000","52000","[1,3]","503.0292522547556","199.88339699834984","485.28979801582494"
"","canvas-keyboard-response","119","125925","0.0-6.0-1.16","530","","","","","clear_screen","null","null","","","catch","l","sh","sw","275","230","233","167","192","187","spektor","null","null","null","null","null","null","null","null","null","null","null","","180","200","260","200","36000","52000","[1,3]","503.0292522547556","199.88339699834984","485.28979801582494"
"","canvas-keyboard-response","120","126432","0.0-6.0-2.16","530","","","","","rectangles no change","null","null","","","catch","l","sh","sw","275","230","233","167","192","187","spektor","null","null","null","null","null","null","null","null","null","null","null","","180","200","260","200","36000","52000","[1,3]","503.0292522547556","199.88339699834984","485.28979801582494"
"","canvas-keyboard-response","121","127774","0.0-6.0-3.16","530","","","","","rectangles with change","null","null","","","catch","l","sh","sw","275","230","233","167","192","187","spektor","null","null","null","null","null","null","null","null","null","null","null","","180","200","260","200","36000","52000","[1,3]","503.0292522547556","199.88339699834984","485.28979801582494"
"","canvas-keyboard-response","122","127797","0.0-6.0-4.16","530","","","","","clear_screen","null","null","","","catch","l","sh","sw","275","230","233","167","192","187","spektor","null","null","null","null","null","null","null","null","null","null","null","","180","200","260","200","36000","52000","[1,3]","503.0292522547556","199.88339699834984","485.28979801582494"
"","canvas-keyboard-response","123","128187","0.0-6.0-5.16","530","","","","","make choice","385","1","","","catch","l","sh","sw","275","230","233","167","192","187","spektor","null","null","null","null","null","null","null","null","null","null","null","","180","200","260","200","36000","52000","[1,3]","","",""
"","canvas-keyboard-response","124","128209","0.0-6.0-6.16","530","","","","","clear_screen","null","null","","","catch","l","sh","sw","275","230","233","167","192","187","spektor","null","null","null","null","null","null","null","null","null","null","null","","180","200","260","200","36000","52000","[1,3]","","",""
"","canvas-keyboard-response","125","128410","0.0-6.0-0.17","530","","","","","pre trial waiting period","null","null","","","critical","t","c","d","240","164","164","240","240","164","spektor","0","w","240","164","164","240","240","164","39360","39360","39360","tc","null","null","null","null","null","null","[1,2]","538.5145970502333","145.58686586520366","501.1599988492462"
"","canvas-keyboard-response","126","128435","0.0-6.0-1.17","530","","","","","clear_screen","null","null","","","critical","t","c","d","240","164","164","240","240","164","spektor","0","w","240","164","164","240","240","164","39360","39360","39360","tc","null","null","null","null","null","null","[1,2]","538.5145970502333","145.58686586520366","501.1599988492462"
"","canvas-keyboard-response","127","128943","0.0-6.0-2.17","530","","","","","rectangles no change","null","null","","","critical","t","c","d","240","164","164","240","240","164","spektor","0","w","240","164","164","240","240","164","39360","39360","39360","tc","null","null","null","null","null","null","[1,2]","538.5145970502333","145.58686586520366","501.1599988492462"
"","canvas-keyboard-response","128","130281","0.0-6.0-3.17","530","","","","","rectangles with change","null","null","","","critical","t","c","d","240","164","164","240","240","164","spektor","0","w","240","164","164","240","240","164","39360","39360","39360","tc","null","null","null","null","null","null","[1,2]","538.5145970502333","145.58686586520366","501.1599988492462"
"","canvas-keyboard-response","129","130300","0.0-6.0-4.17","530","","","","","clear_screen","null","null","","","critical","t","c","d","240","164","164","240","240","164","spektor","0","w","240","164","164","240","240","164","39360","39360","39360","tc","null","null","null","null","null","null","[1,2]","538.5145970502333","145.58686586520366","501.1599988492462"
"","canvas-keyboard-response","130","132178","0.0-6.0-5.17","530","","","","","make choice","1875","1","","","critical","t","c","d","240","164","164","240","240","164","spektor","0","w","240","164","164","240","240","164","39360","39360","39360","tc","null","null","null","null","null","null","[1,2]","","",""
"","canvas-keyboard-response","131","132197","0.0-6.0-6.17","530","","","","","clear_screen","null","null","","","critical","t","c","d","240","164","164","240","240","164","spektor","0","w","240","164","164","240","240","164","39360","39360","39360","tc","null","null","null","null","null","null","[1,2]","","",""
"","canvas-keyboard-response","132","132398","0.0-6.0-0.18","530","","","","","pre trial waiting period","null","null","","","catch","sw","l","sh","180","200","215","260","189","175","spektor","null","null","null","null","null","null","null","null","null","null","null","","180","200","260","200","36000","52000","[2,3]","493.29282107805125","126.92991833632118","492.9672055471784"
"","canvas-keyboard-response","133","132417","0.0-6.0-1.18","530","","","","","clear_screen","null","null","","","catch","sw","l","sh","180","200","215","260","189","175","spektor","null","null","null","null","null","null","null","null","null","null","null","","180","200","260","200","36000","52000","[2,3]","493.29282107805125","126.92991833632118","492.9672055471784"
"","canvas-keyboard-response","134","132930","0.0-6.0-2.18","530","","","","","rectangles no change","null","null","","","catch","sw","l","sh","180","200","215","260","189","175","spektor","null","null","null","null","null","null","null","null","null","null","null","","180","200","260","200","36000","52000","[2,3]","493.29282107805125","126.92991833632118","492.9672055471784"
"","canvas-keyboard-response","135","134265","0.0-6.0-3.18","530","","","","","rectangles with change","null","null","","","catch","sw","l","sh","180","200","215","260","189","175","spektor","null","null","null","null","null","null","null","null","null","null","null","","180","200","260","200","36000","52000","[2,3]","493.29282107805125","126.92991833632118","492.9672055471784"
"","canvas-keyboard-response","136","134286","0.0-6.0-4.18","530","","","","","clear_screen","null","null","","","catch","sw","l","sh","180","200","215","260","189","175","spektor","null","null","null","null","null","null","null","null","null","null","null","","180","200","260","200","36000","52000","[2,3]","493.29282107805125","126.92991833632118","492.9672055471784"
"","canvas-keyboard-response","137","134716","0.0-6.0-5.18","530","","","","","make choice","425","2","","","catch","sw","l","sh","180","200","215","260","189","175","spektor","null","null","null","null","null","null","null","null","null","null","null","","180","200","260","200","36000","52000","[2,3]","","",""
"","canvas-keyboard-response","138","134735","0.0-6.0-6.18","530","","","","","clear_screen","null","null","","","catch","sw","l","sh","180","200","215","260","189","175","spektor","null","null","null","null","null","null","null","null","null","null","null","","180","200","260","200","36000","52000","[2,3]","","",""
"","canvas-keyboard-response","139","134937","0.0-6.0-0.19","530","","","","","pre trial waiting period","null","null","","","critical","d","t","c","232.8713","160.6713","240","164","164","240","spektor","0.05","w","240","164","164","240","232.8713","160.6713","39360","39360","37415.7294","td","null","null","null","null","null","null","[2,1]","535.8515766049386","212.62431568886598","464.9821184597064"
"","canvas-keyboard-response","140","134956","0.0-6.0-1.19","530","","","","","clear_screen","null","null","","","critical","d","t","c","232.8713","160.6713","240","164","164","240","spektor","0.05","w","240","164","164","240","232.8713","160.6713","39360","39360","37415.7294","td","null","null","null","null","null","null","[2,1]","535.8515766049386","212.62431568886598","464.9821184597064"
"","canvas-keyboard-response","141","135465","0.0-6.0-2.19","530","","","","","rectangles no change","null","null","","","critical","d","t","c","232.8713","160.6713","240","164","164","240","spektor","0.05","w","240","164","164","240","232.8713","160.6713","39360","39360","37415.7294","td","null","null","null","null","null","null","[2,1]","535.8515766049386","212.62431568886598","464.9821184597064"
"","canvas-keyboard-response","142","136800","0.0-6.0-3.19","530","","","","","rectangles with change","null","null","","","critical","d","t","c","232.8713","160.6713","240","164","164","240","spektor","0.05","w","240","164","164","240","232.8713","160.6713","39360","39360","37415.7294","td","null","null","null","null","null","null","[2,1]","535.8515766049386","212.62431568886598","464.9821184597064"
"","canvas-keyboard-response","143","136823","0.0-6.0-4.19","530","","","","","clear_screen","null","null","","","critical","d","t","c","232.8713","160.6713","240","164","164","240","spektor","0.05","w","240","164","164","240","232.8713","160.6713","39360","39360","37415.7294","td","null","null","null","null","null","null","[2,1]","535.8515766049386","212.62431568886598","464.9821184597064"
"","canvas-keyboard-response","144","137596","0.0-6.0-5.19","530","","","","","make choice","766","1","","","critical","d","t","c","232.8713","160.6713","240","164","164","240","spektor","0.05","w","240","164","164","240","232.8713","160.6713","39360","39360","37415.7294","td","null","null","null","null","null","null","[2,1]","","",""
"","canvas-keyboard-response","145","137615","0.0-6.0-6.19","530","","","","","clear_screen","null","null","","","critical","d","t","c","232.8713","160.6713","240","164","164","240","spektor","0.05","w","240","164","164","240","232.8713","160.6713","39360","39360","37415.7294","td","null","null","null","null","null","null","[2,1]","","",""
"","canvas-keyboard-response","146","137816","0.0-6.0-0.20","530","","","","","pre trial waiting period","null","null","","","critical","d","c","t","220.0396","154.6796","164","240","240","164","trueblood","0.14","w","240","164","164","240","220.0396","154.6796","39360","39360","34035.6388","tc","null","null","null","null","null","null","[3,2]","483.5446019581979","465.2386469922615","500.2433701836719"
"","canvas-keyboard-response","147","137838","0.0-6.0-1.20","530","","","","","clear_screen","null","null","","","critical","d","c","t","220.0396","154.6796","164","240","240","164","trueblood","0.14","w","240","164","164","240","220.0396","154.6796","39360","39360","34035.6388","tc","null","null","null","null","null","null","[3,2]","483.5446019581979","465.2386469922615","500.2433701836719"
"","canvas-keyboard-response","148","138346","0.0-6.0-2.20","530","","","","","rectangles no change","null","null","","","critical","d","c","t","220.0396","154.6796","164","240","240","164","trueblood","0.14","w","240","164","164","240","220.0396","154.6796","39360","39360","34035.6388","tc","null","null","null","null","null","null","[3,2]","483.5446019581979","465.2386469922615","500.2433701836719"
"","canvas-keyboard-response","149","139681","0.0-6.0-3.20","530","","","","","rectangles with change","null","null","","","critical","d","c","t","220.0396","154.6796","164","240","240","164","trueblood","0.14","w","240","164","164","240","220.0396","154.6796","39360","39360","34035.6388","tc","null","null","null","null","null","null","[3,2]","483.5446019581979","465.2386469922615","500.2433701836719"
"","canvas-keyboard-response","150","139696","0.0-6.0-4.20","530","","","","","clear_screen","null","null","","","critical","d","c","t","220.0396","154.6796","164","240","240","164","trueblood","0.14","w","240","164","164","240","220.0396","154.6796","39360","39360","34035.6388","tc","null","null","null","null","null","null","[3,2]","483.5446019581979","465.2386469922615","500.2433701836719"
"","canvas-keyboard-response","151","140324","0.0-6.0-5.20","530","","","","","make choice","622","2","","","critical","d","c","t","220.0396","154.6796","164","240","240","164","trueblood","0.14","w","240","164","164","240","220.0396","154.6796","39360","39360","34035.6388","tc","null","null","null","null","null","null","[3,2]","","",""
"","canvas-keyboard-response","152","140343","0.0-6.0-6.20","530","","","","","clear_screen","null","null","","","critical","d","c","t","220.0396","154.6796","164","240","240","164","trueblood","0.14","w","240","164","164","240","220.0396","154.6796","39360","39360","34035.6388","tc","null","null","null","null","null","null","[3,2]","","",""
"","canvas-keyboard-response","153","140545","0.0-6.0-0.21","530","","","","","pre trial waiting period","null","null","","","critical","t","c","d","240","164","164","240","227.1683","158.0083","trueblood","0.09","w","240","164","164","240","227.1683","158.0083","39360","39360","35894.4834","tc","null","null","null","null","null","null","[1,2]","477.56959779394157","442.6905332590368","501.7357340442467"
"","canvas-keyboard-response","154","140568","0.0-6.0-1.21","530","","","","","clear_screen","null","null","","","critical","t","c","d","240","164","164","240","227.1683","158.0083","trueblood","0.09","w","240","164","164","240","227.1683","158.0083","39360","39360","35894.4834","tc","null","null","null","null","null","null","[1,2]","477.56959779394157","442.6905332590368","501.7357340442467"
"","canvas-keyboard-response","155","141076","0.0-6.0-2.21","530","","","","","rectangles no change","null","null","","","critical","t","c","d","240","164","164","240","227.1683","158.0083","trueblood","0.09","w","240","164","164","240","227.1683","158.0083","39360","39360","35894.4834","tc","null","null","null","null","null","null","[1,2]","477.56959779394157","442.6905332590368","501.7357340442467"
"","canvas-keyboard-response","156","142411","0.0-6.0-3.21","530","","","","","rectangles with change","null","null","","","critical","t","c","d","240","164","164","240","227.1683","158.0083","trueblood","0.09","w","240","164","164","240","227.1683","158.0083","39360","39360","35894.4834","tc","null","null","null","null","null","null","[1,2]","477.56959779394157","442.6905332590368","501.7357340442467"
"","canvas-keyboard-response","157","142431","0.0-6.0-4.21","530","","","","","clear_screen","null","null","","","critical","t","c","d","240","164","164","240","227.1683","158.0083","trueblood","0.09","w","240","164","164","240","227.1683","158.0083","39360","39360","35894.4834","tc","null","null","null","null","null","null","[1,2]","477.56959779394157","442.6905332590368","501.7357340442467"
"","canvas-keyboard-response","158","144684","0.0-6.0-5.21","530","","","","","make choice","2244","2","","","critical","t","c","d","240","164","164","240","227.1683","158.0083","trueblood","0.09","w","240","164","164","240","227.1683","158.0083","39360","39360","35894.4834","tc","null","null","null","null","null","null","[1,2]","","",""
"","canvas-keyboard-response","159","144703","0.0-6.0-6.21","530","","","","","clear_screen","null","null","","","critical","t","c","d","240","164","164","240","227.1683","158.0083","trueblood","0.09","w","240","164","164","240","227.1683","158.0083","39360","39360","35894.4834","tc","null","null","null","null","null","null","[1,2]","","",""
"","canvas-keyboard-response","160","144904","0.0-6.0-0.22","530","","","","","pre trial waiting period","null","null","","","catch","sw","sh","l","180","200","187","159","163","279","spektor","null","null","null","null","null","null","null","null","null","null","null","","180","200","260","200","36000","52000","[2,3]","486.17760391425526","158.97732985396962","474.40514489074644"
"","canvas-keyboard-response","161","144928","0.0-6.0-1.22","530","","","","","clear_screen","null","null","","","catch","sw","sh","l","180","200","187","159","163","279","spektor","null","null","null","null","null","null","null","null","null","null","null","","180","200","260","200","36000","52000","[2,3]","486.17760391425526","158.97732985396962","474.40514489074644"
"","canvas-keyboard-response","162","145437","0.0-6.0-2.22","530","","","","","rectangles no change","null","null","","","catch","sw","sh","l","180","200","187","159","163","279","spektor","null","null","null","null","null","null","null","null","null","null","null","","180","200","260","200","36000","52000","[2,3]","486.17760391425526","158.97732985396962","474.40514489074644"
"","canvas-keyboard-response","163","146776","0.0-6.0-3.22","530","","","","","rectangles with change","null","null","","","catch","sw","sh","l","180","200","187","159","163","279","spektor","null","null","null","null","null","null","null","null","null","null","null","","180","200","260","200","36000","52000","[2,3]","486.17760391425526","158.97732985396962","474.40514489074644"
"","canvas-keyboard-response","164","146798","0.0-6.0-4.22","530","","","","","clear_screen","null","null","","","catch","sw","sh","l","180","200","187","159","163","279","spektor","null","null","null","null","null","null","null","null","null","null","null","","180","200","260","200","36000","52000","[2,3]","486.17760391425526","158.97732985396962","474.40514489074644"
"","canvas-keyboard-response","165","153053","0.0-6.0-5.22","530","","","","","make choice","6248","3","","","catch","sw","sh","l","180","200","187","159","163","279","spektor","null","null","null","null","null","null","null","null","null","null","null","","180","200","260","200","36000","52000","[2,3]","","",""
"","canvas-keyboard-response","166","153074","0.0-6.0-6.22","530","","","","","clear_screen","null","null","","","catch","sw","sh","l","180","200","187","159","163","279","spektor","null","null","null","null","null","null","null","null","null","null","null","","180","200","260","200","36000","52000","[2,3]","","",""
"","canvas-keyboard-response","167","153275","0.0-6.0-0.23","530","","","","","pre trial waiting period","null","null","","","catch","l","sw","sh","238","229","161","165","161","219","spektor","null","null","null","null","null","null","null","null","null","null","null","","180","200","260","200","36000","52000","[1,3]","501.21820739762364","164.76863735874568","496.3131083642348"
"","canvas-keyboard-response","168","153296","0.0-6.0-1.23","530","","","","","clear_screen","null","null","","","catch","l","sw","sh","238","229","161","165","161","219","spektor","null","null","null","null","null","null","null","null","null","null","null","","180","200","260","200","36000","52000","[1,3]","501.21820739762364","164.76863735874568","496.3131083642348"
"","canvas-keyboard-response","169","153804","0.0-6.0-2.23","530","","","","","rectangles no change","null","null","","","catch","l","sw","sh","238","229","161","165","161","219","spektor","null","null","null","null","null","null","null","null","null","null","null","","180","200","260","200","36000","52000","[1,3]","501.21820739762364","164.76863735874568","496.3131083642348"
"","canvas-keyboard-response","170","155140","0.0-6.0-3.23","530","","","","","rectangles with change","null","null","","","catch","l","sw","sh","238","229","161","165","161","219","spektor","null","null","null","null","null","null","null","null","null","null","null","","180","200","260","200","36000","52000","[1,3]","501.21820739762364","164.76863735874568","496.3131083642348"
"","canvas-keyboard-response","171","155160","0.0-6.0-4.23","530","","","","","clear_screen","null","null","","","catch","l","sw","sh","238","229","161","165","161","219","spektor","null","null","null","null","null","null","null","null","null","null","null","","180","200","260","200","36000","52000","[1,3]","501.21820739762364","164.76863735874568","496.3131083642348"
"","canvas-keyboard-response","172","155533","0.0-6.0-5.23","530","","","","","make choice","364","1","","","catch","l","sw","sh","238","229","161","165","161","219","spektor","null","null","null","null","null","null","null","null","null","null","null","","180","200","260","200","36000","52000","[1,3]","","",""
"","canvas-keyboard-response","173","155552","0.0-6.0-6.23","530","","","","","clear_screen","null","null","","","catch","l","sw","sh","238","229","161","165","161","219","spektor","null","null","null","null","null","null","null","null","null","null","null","","180","200","260","200","36000","52000","[1,3]","","",""
"","canvas-keyboard-response","174","155753","0.0-6.0-0.24","530","","","","","pre trial waiting period","null","null","","","critical","c","t","d","164","240","240","164","232.8713","160.6713","spektor","0.05","w","240","164","164","240","232.8713","160.6713","39360","39360","37415.7294","tc","null","null","null","null","null","null","[2,1]","489.3462604817234","209.55842310399498","497.4181173702839"
"","canvas-keyboard-response","175","155776","0.0-6.0-1.24","530","","","","","clear_screen","null","null","","","critical","c","t","d","164","240","240","164","232.8713","160.6713","spektor","0.05","w","240","164","164","240","232.8713","160.6713","39360","39360","37415.7294","tc","null","null","null","null","null","null","[2,1]","489.3462604817234","209.55842310399498","497.4181173702839"
"","canvas-keyboard-response","176","156285","0.0-6.0-2.24","530","","","","","rectangles no change","null","null","","","critical","c","t","d","164","240","240","164","232.8713","160.6713","spektor","0.05","w","240","164","164","240","232.8713","160.6713","39360","39360","37415.7294","tc","null","null","null","null","null","null","[2,1]","489.3462604817234","209.55842310399498","497.4181173702839"
"","canvas-keyboard-response","177","157625","0.0-6.0-3.24","530","","","","","rectangles with change","null","null","","","critical","c","t","d","164","240","240","164","232.8713","160.6713","spektor","0.05","w","240","164","164","240","232.8713","160.6713","39360","39360","37415.7294","tc","null","null","null","null","null","null","[2,1]","489.3462604817234","209.55842310399498","497.4181173702839"
"","canvas-keyboard-response","178","157645","0.0-6.0-4.24","530","","","","","clear_screen","null","null","","","critical","c","t","d","164","240","240","164","232.8713","160.6713","spektor","0.05","w","240","164","164","240","232.8713","160.6713","39360","39360","37415.7294","tc","null","null","null","null","null","null","[2,1]","489.3462604817234","209.55842310399498","497.4181173702839"
"","canvas-keyboard-response","179","160404","0.0-6.0-5.24","530","","","","","make choice","2746","2","","","critical","c","t","d","164","240","240","164","232.8713","160.6713","spektor","0.05","w","240","164","164","240","232.8713","160.6713","39360","39360","37415.7294","tc","null","null","null","null","null","null","[2,1]","","",""
"","canvas-keyboard-response","180","160422","0.0-6.0-6.24","530","","","","","clear_screen","null","null","","","critical","c","t","d","164","240","240","164","232.8713","160.6713","spektor","0.05","w","240","164","164","240","232.8713","160.6713","39360","39360","37415.7294","tc","null","null","null","null","null","null","[2,1]","","",""
"","canvas-keyboard-response","181","160624","0.0-6.0-0.25","530","","","","","pre trial waiting period","null","null","","","critical","d","c","t","227.1683","158.0083","164","240","240","164","trueblood","0.09","w","240","164","164","240","227.1683","158.0083","39360","39360","35894.4834","td","null","null","null","null","null","null","[3,1]","475.96110662633356","468.8391718339565","478.10574077173584"
"","canvas-keyboard-response","182","160648","0.0-6.0-1.25","530","","","","","clear_screen","null","null","","","critical","d","c","t","227.1683","158.0083","164","240","240","164","trueblood","0.09","w","240","164","164","240","227.1683","158.0083","39360","39360","35894.4834","td","null","null","null","null","null","null","[3,1]","475.96110662633356","468.8391718339565","478.10574077173584"
"","canvas-keyboard-response","183","161156","0.0-6.0-2.25","530","","","","","rectangles no change","null","null","","","critical","d","c","t","227.1683","158.0083","164","240","240","164","trueblood","0.09","w","240","164","164","240","227.1683","158.0083","39360","39360","35894.4834","td","null","null","null","null","null","null","[3,1]","475.96110662633356","468.8391718339565","478.10574077173584"
"","canvas-keyboard-response","184","162493","0.0-6.0-3.25","530","","","","","rectangles with change","null","null","","","critical","d","c","t","227.1683","158.0083","164","240","240","164","trueblood","0.09","w","240","164","164","240","227.1683","158.0083","39360","39360","35894.4834","td","null","null","null","null","null","null","[3,1]","475.96110662633356","468.8391718339565","478.10574077173584"
"","canvas-keyboard-response","185","162511","0.0-6.0-4.25","530","","","","","clear_screen","null","null","","","critical","d","c","t","227.1683","158.0083","164","240","240","164","trueblood","0.09","w","240","164","164","240","227.1683","158.0083","39360","39360","35894.4834","td","null","null","null","null","null","null","[3,1]","475.96110662633356","468.8391718339565","478.10574077173584"
"","canvas-keyboard-response","186","162924","0.0-6.0-5.25","530","","","","","make choice","406","1","","","critical","d","c","t","227.1683","158.0083","164","240","240","164","trueblood","0.09","w","240","164","164","240","227.1683","158.0083","39360","39360","35894.4834","td","null","null","null","null","null","null","[3,1]","","",""
"","canvas-keyboard-response","187","162943","0.0-6.0-6.25","530","","","","","clear_screen","null","null","","","critical","d","c","t","227.1683","158.0083","164","240","240","164","trueblood","0.09","w","240","164","164","240","227.1683","158.0083","39360","39360","35894.4834","td","null","null","null","null","null","null","[3,1]","","",""
"","canvas-keyboard-response","188","163145","0.0-6.0-0.26","530","","","","","pre trial waiting period","null","null","","","catch","sw","sh","l","180","200","221","210","217","253","trueblood","null","null","null","null","null","null","null","null","null","null","null","","180","200","260","200","36000","52000","[2,3]","450.820446247095","440.36781514472443","436.6032832266793"
"","canvas-keyboard-response","189","163167","0.0-6.0-1.26","530","","","","","clear_screen","null","null","","","catch","sw","sh","l","180","200","221","210","217","253","trueblood","null","null","null","null","null","null","null","null","null","null","null","","180","200","260","200","36000","52000","[2,3]","450.820446247095","440.36781514472443","436.6032832266793"
"","canvas-keyboard-response","190","163675","0.0-6.0-2.26","530","","","","","rectangles no change","null","null","","","catch","sw","sh","l","180","200","221","210","217","253","trueblood","null","null","null","null","null","null","null","null","null","null","null","","180","200","260","200","36000","52000","[2,3]","450.820446247095","440.36781514472443","436.6032832266793"
"","canvas-keyboard-response","191","165011","0.0-6.0-3.26","530","","","","","rectangles with change","null","null","","","catch","sw","sh","l","180","200","221","210","217","253","trueblood","null","null","null","null","null","null","null","null","null","null","null","","180","200","260","200","36000","52000","[2,3]","450.820446247095","440.36781514472443","436.6032832266793"
"","canvas-keyboard-response","192","165026","0.0-6.0-4.26","530","","","","","clear_screen","6","3","","","catch","sw","sh","l","180","200","221","210","217","253","trueblood","null","null","null","null","null","null","null","null","null","null","null","","180","200","260","200","36000","52000","[2,3]","450.820446247095","440.36781514472443","436.6032832266793"
"","canvas-keyboard-response","193","169444","0.0-6.0-5.26","530","","","","","make choice","4410","3","","","catch","sw","sh","l","180","200","221","210","217","253","trueblood","null","null","null","null","null","null","null","null","null","null","null","","180","200","260","200","36000","52000","[2,3]","","",""
"","canvas-keyboard-response","194","169465","0.0-6.0-6.26","530","","","","","clear_screen","null","null","","","catch","sw","sh","l","180","200","221","210","217","253","trueblood","null","null","null","null","null","null","null","null","null","null","null","","180","200","260","200","36000","52000","[2,3]","","",""
"","canvas-keyboard-response","195","169666","0.0-6.0-0.27","530","","","","","pre trial waiting period","null","null","","","critical","c","t","d","164","240","240","164","237.1485","162.6685","trueblood","0.02","w","240","164","164","240","237.1485","162.6685","39360","39360","38576.5967","td","null","null","null","null","null","null","[2,3]","421.5330259867361","501.66657655309757","479.09503327679585"
"","canvas-keyboard-response","196","169688","0.0-6.0-1.27","530","","","","","clear_screen","null","null","","","critical","c","t","d","164","240","240","164","237.1485","162.6685","trueblood","0.02","w","240","164","164","240","237.1485","162.6685","39360","39360","38576.5967","td","null","null","null","null","null","null","[2,3]","421.5330259867361","501.66657655309757","479.09503327679585"
"","canvas-keyboard-response","197","170196","0.0-6.0-2.27","530","","","","","rectangles no change","null","null","","","critical","c","t","d","164","240","240","164","237.1485","162.6685","trueblood","0.02","w","240","164","164","240","237.1485","162.6685","39360","39360","38576.5967","td","null","null","null","null","null","null","[2,3]","421.5330259867361","501.66657655309757","479.09503327679585"
"","canvas-keyboard-response","198","171535","0.0-6.0-3.27","530","","","","","rectangles with change","null","null","","","critical","c","t","d","164","240","240","164","237.1485","162.6685","trueblood","0.02","w","240","164","164","240","237.1485","162.6685","39360","39360","38576.5967","td","null","null","null","null","null","null","[2,3]","421.5330259867361","501.66657655309757","479.09503327679585"
"","canvas-keyboard-response","199","171558","0.0-6.0-4.27","530","","","","","clear_screen","null","null","","","critical","c","t","d","164","240","240","164","237.1485","162.6685","trueblood","0.02","w","240","164","164","240","237.1485","162.6685","39360","39360","38576.5967","td","null","null","null","null","null","null","[2,3]","421.5330259867361","501.66657655309757","479.09503327679585"
"","canvas-keyboard-response","200","172708","0.0-6.0-5.27","530","","","","","make choice","1144","2","","","critical","c","t","d","164","240","240","164","237.1485","162.6685","trueblood","0.02","w","240","164","164","240","237.1485","162.6685","39360","39360","38576.5967","td","null","null","null","null","null","null","[2,3]","","",""
"","canvas-keyboard-response","201","172731","0.0-6.0-6.27","530","","","","","clear_screen","null","null","","","critical","c","t","d","164","240","240","164","237.1485","162.6685","trueblood","0.02","w","240","164","164","240","237.1485","162.6685","39360","39360","38576.5967","td","null","null","null","null","null","null","[2,3]","","",""
"","canvas-keyboard-response","202","172932","0.0-6.0-0.28","530","","","","","pre trial waiting period","null","null","","","critical","d","c","t","220.0396","154.6796","164","240","240","164","trueblood","0.14","w","240","164","164","240","220.0396","154.6796","39360","39360","34035.6388","td","null","null","null","null","null","null","[3,1]","487.54518838467595","443.70242903511627","517.4970118325824"
"","canvas-keyboard-response","203","172955","0.0-6.0-1.28","530","","","","","clear_screen","null","null","","","critical","d","c","t","220.0396","154.6796","164","240","240","164","trueblood","0.14","w","240","164","164","240","220.0396","154.6796","39360","39360","34035.6388","td","null","null","null","null","null","null","[3,1]","487.54518838467595","443.70242903511627","517.4970118325824"
"","canvas-keyboard-response","204","173464","0.0-6.0-2.28","530","","","","","rectangles no change","null","null","","","critical","d","c","t","220.0396","154.6796","164","240","240","164","trueblood","0.14","w","240","164","164","240","220.0396","154.6796","39360","39360","34035.6388","td","null","null","null","null","null","null","[3,1]","487.54518838467595","443.70242903511627","517.4970118325824"
"","canvas-keyboard-response","205","174803","0.0-6.0-3.28","530","","","","","rectangles with change","null","null","","","critical","d","c","t","220.0396","154.6796","164","240","240","164","trueblood","0.14","w","240","164","164","240","220.0396","154.6796","39360","39360","34035.6388","td","null","null","null","null","null","null","[3,1]","487.54518838467595","443.70242903511627","517.4970118325824"
"","canvas-keyboard-response","206","174822","0.0-6.0-4.28","530","","","","","clear_screen","null","null","","","critical","d","c","t","220.0396","154.6796","164","240","240","164","trueblood","0.14","w","240","164","164","240","220.0396","154.6796","39360","39360","34035.6388","td","null","null","null","null","null","null","[3,1]","487.54518838467595","443.70242903511627","517.4970118325824"
"","canvas-keyboard-response","207","174832","0.0-6.0-5.28","530","","","","","make choice","1","3","","","critical","d","c","t","220.0396","154.6796","164","240","240","164","trueblood","0.14","w","240","164","164","240","220.0396","154.6796","39360","39360","34035.6388","td","null","null","null","null","null","null","[3,1]","","",""
"","canvas-keyboard-response","208","174845","0.0-6.0-6.28","530","","","","","clear_screen","null","null","","","critical","d","c","t","220.0396","154.6796","164","240","240","164","trueblood","0.14","w","240","164","164","240","220.0396","154.6796","39360","39360","34035.6388","td","null","null","null","null","null","null","[3,1]","","",""
"","canvas-keyboard-response","209","175046","0.0-6.0-0.29","530","","","","","pre trial waiting period","null","null","","","critical","t","c","d","240","164","164","240","227.1683","158.0083","spektor","0.09","w","240","164","164","240","227.1683","158.0083","39360","39360","35894.4834","tc","null","null","null","null","null","null","[1,2]","499.56431760954393","110.57269774295258","519.4692947776134"
"","canvas-keyboard-response","210","175065","0.0-6.0-1.29","530","","","","","clear_screen","null","null","","","critical","t","c","d","240","164","164","240","227.1683","158.0083","spektor","0.09","w","240","164","164","240","227.1683","158.0083","39360","39360","35894.4834","tc","null","null","null","null","null","null","[1,2]","499.56431760954393","110.57269774295258","519.4692947776134"
"","canvas-keyboard-response","211","175575","0.0-6.0-2.29","530","","","","","rectangles no change","null","null","","","critical","t","c","d","240","164","164","240","227.1683","158.0083","spektor","0.09","w","240","164","164","240","227.1683","158.0083","39360","39360","35894.4834","tc","null","null","null","null","null","null","[1,2]","499.56431760954393","110.57269774295258","519.4692947776134"
"","canvas-keyboard-response","212","176912","0.0-6.0-3.29","530","","","","","rectangles with change","null","null","","","critical","t","c","d","240","164","164","240","227.1683","158.0083","spektor","0.09","w","240","164","164","240","227.1683","158.0083","39360","39360","35894.4834","tc","null","null","null","null","null","null","[1,2]","499.56431760954393","110.57269774295258","519.4692947776134"
"","canvas-keyboard-response","213","176931","0.0-6.0-4.29","530","","","","","clear_screen","null","null","","","critical","t","c","d","240","164","164","240","227.1683","158.0083","spektor","0.09","w","240","164","164","240","227.1683","158.0083","39360","39360","35894.4834","tc","null","null","null","null","null","null","[1,2]","499.56431760954393","110.57269774295258","519.4692947776134"
"","canvas-keyboard-response","214","177916","0.0-6.0-5.29","530","","","","","make choice","977","1","","","critical","t","c","d","240","164","164","240","227.1683","158.0083","spektor","0.09","w","240","164","164","240","227.1683","158.0083","39360","39360","35894.4834","tc","null","null","null","null","null","null","[1,2]","","",""
"","canvas-keyboard-response","215","177933","0.0-6.0-6.29","530","","","","","clear_screen","null","null","","","critical","t","c","d","240","164","164","240","227.1683","158.0083","spektor","0.09","w","240","164","164","240","227.1683","158.0083","39360","39360","35894.4834","tc","null","null","null","null","null","null","[1,2]","","",""
"","canvas-keyboard-response","216","178135","0.0-6.0-0.30","530","","","","","pre trial waiting period","null","null","","","critical","d","t","c","162.6685","237.1485","164","240","240","164","spektor","0.02","h","164","240","240","164","162.6685","237.1485","39360","39360","38576.5967","tc","null","null","null","null","null","null","[2,3]","492.57324610605946","139.7331528300134","522.0722594414462"
"","canvas-keyboard-response","217","178159","0.0-6.0-1.30","530","","","","","clear_screen","null","null","","","critical","d","t","c","162.6685","237.1485","164","240","240","164","spektor","0.02","h","164","240","240","164","162.6685","237.1485","39360","39360","38576.5967","tc","null","null","null","null","null","null","[2,3]","492.57324610605946","139.7331528300134","522.0722594414462"
"","canvas-keyboard-response","218","178669","0.0-6.0-2.30","530","","","","","rectangles no change","null","null","","","critical","d","t","c","162.6685","237.1485","164","240","240","164","spektor","0.02","h","164","240","240","164","162.6685","237.1485","39360","39360","38576.5967","tc","null","null","null","null","null","null","[2,3]","492.57324610605946","139.7331528300134","522.0722594414462"
"","canvas-keyboard-response","219","180006","0.0-6.0-3.30","530","","","","","rectangles with change","null","null","","","critical","d","t","c","162.6685","237.1485","164","240","240","164","spektor","0.02","h","164","240","240","164","162.6685","237.1485","39360","39360","38576.5967","tc","null","null","null","null","null","null","[2,3]","492.57324610605946","139.7331528300134","522.0722594414462"
"","canvas-keyboard-response","220","180027","0.0-6.0-4.30","530","","","","","clear_screen","null","null","","","critical","d","t","c","162.6685","237.1485","164","240","240","164","spektor","0.02","h","164","240","240","164","162.6685","237.1485","39360","39360","38576.5967","tc","null","null","null","null","null","null","[2,3]","492.57324610605946","139.7331528300134","522.0722594414462"
"","canvas-keyboard-response","221","182164","0.0-6.0-5.30","530","","","","","make choice","2129","3","","","critical","d","t","c","162.6685","237.1485","164","240","240","164","spektor","0.02","h","164","240","240","164","162.6685","237.1485","39360","39360","38576.5967","tc","null","null","null","null","null","null","[2,3]","","",""
"","canvas-keyboard-response","222","182182","0.0-6.0-6.30","530","","","","","clear_screen","null","null","","","critical","d","t","c","162.6685","237.1485","164","240","240","164","spektor","0.02","h","164","240","240","164","162.6685","237.1485","39360","39360","38576.5967","tc","null","null","null","null","null","null","[2,3]","","",""
"","canvas-keyboard-response","223","182382","0.0-6.0-0.31","530","","","","","pre trial waiting period","null","null","","","catch","sw","l","sh","180","200","227","172","170","218","trueblood","null","null","null","null","null","null","null","null","null","null","null","","180","200","260","200","36000","52000","[2,3]","491.7499072852928","493.3519159706013","447.61880345099416"
"","canvas-keyboard-response","224","182399","0.0-6.0-1.31","530","","","","","clear_screen","null","null","","","catch","sw","l","sh","180","200","227","172","170","218","trueblood","null","null","null","null","null","null","null","null","null","null","null","","180","200","260","200","36000","52000","[2,3]","491.7499072852928","493.3519159706013","447.61880345099416"
"","canvas-keyboard-response","225","182905","0.0-6.0-2.31","530","","","","","rectangles no change","null","null","","","catch","sw","l","sh","180","200","227","172","170","218","trueblood","null","null","null","null","null","null","null","null","null","null","null","","180","200","260","200","36000","52000","[2,3]","491.7499072852928","493.3519159706013","447.61880345099416"
"","canvas-keyboard-response","226","184243","0.0-6.0-3.31","530","","","","","rectangles with change","null","null","","","catch","sw","l","sh","180","200","227","172","170","218","trueblood","null","null","null","null","null","null","null","null","null","null","null","","180","200","260","200","36000","52000","[2,3]","491.7499072852928","493.3519159706013","447.61880345099416"
"","canvas-keyboard-response","227","184262","0.0-6.0-4.31","530","","","","","clear_screen","null","null","","","catch","sw","l","sh","180","200","227","172","170","218","trueblood","null","null","null","null","null","null","null","null","null","null","null","","180","200","260","200","36000","52000","[2,3]","491.7499072852928","493.3519159706013","447.61880345099416"
"","canvas-keyboard-response","228","185092","0.0-6.0-5.31","530","","","","","make choice","824","2","","","catch","sw","l","sh","180","200","227","172","170","218","trueblood","null","null","null","null","null","null","null","null","null","null","null","","180","200","260","200","36000","52000","[2,3]","","",""
"","canvas-keyboard-response","229","185112","0.0-6.0-6.31","530","","","","","clear_screen","null","null","","","catch","sw","l","sh","180","200","227","172","170","218","trueblood","null","null","null","null","null","null","null","null","null","null","null","","180","200","260","200","36000","52000","[2,3]","","",""
"","canvas-keyboard-response","230","185313","0.0-6.0-0.32","530","","","","","pre trial waiting period","null","null","","","catch","sw","sh","l","180","200","200","198","234","216","spektor","null","null","null","null","null","null","null","null","null","null","null","","180","200","260","200","36000","52000","[1,3]","512.9098832017788","177.8098464146212","477.33555621358744"
"","canvas-keyboard-response","231","185331","0.0-6.0-1.32","530","","","","","clear_screen","null","null","","","catch","sw","sh","l","180","200","200","198","234","216","spektor","null","null","null","null","null","null","null","null","null","null","null","","180","200","260","200","36000","52000","[1,3]","512.9098832017788","177.8098464146212","477.33555621358744"
"","canvas-keyboard-response","232","185838","0.0-6.0-2.32","530","","","","","rectangles no change","null","null","","","catch","sw","sh","l","180","200","200","198","234","216","spektor","null","null","null","null","null","null","null","null","null","null","null","","180","200","260","200","36000","52000","[1,3]","512.9098832017788","177.8098464146212","477.33555621358744"
"","canvas-keyboard-response","233","187179","0.0-6.0-3.32","530","","","","","rectangles with change","null","null","","","catch","sw","sh","l","180","200","200","198","234","216","spektor","null","null","null","null","null","null","null","null","null","null","null","","180","200","260","200","36000","52000","[1,3]","512.9098832017788","177.8098464146212","477.33555621358744"
"","canvas-keyboard-response","234","187202","0.0-6.0-4.32","530","","","","","clear_screen","null","null","","","catch","sw","sh","l","180","200","200","198","234","216","spektor","null","null","null","null","null","null","null","null","null","null","null","","180","200","260","200","36000","52000","[1,3]","512.9098832017788","177.8098464146212","477.33555621358744"
"","canvas-keyboard-response","235","187892","0.0-6.0-5.32","530","","","","","make choice","684","3","","","catch","sw","sh","l","180","200","200","198","234","216","spektor","null","null","null","null","null","null","null","null","null","null","null","","180","200","260","200","36000","52000","[1,3]","","",""
"","canvas-keyboard-response","236","187911","0.0-6.0-6.32","530","","","","","clear_screen","null","null","","","catch","sw","sh","l","180","200","200","198","234","216","spektor","null","null","null","null","null","null","null","null","null","null","null","","180","200","260","200","36000","52000","[1,3]","","",""
"","canvas-keyboard-response","237","188112","0.0-6.0-0.33","530","","","","","pre trial waiting period","null","null","","","critical","c","t","d","164","240","240","164","220.0396","154.6796","spektor","0.14","w","240","164","164","240","220.0396","154.6796","39360","39360","34035.6388","tc","null","null","null","null","null","null","[2,1]","468.4400473667064","192.0943610621695","538.5099457619748"
"","canvas-keyboard-response","238","188132","0.0-6.0-1.33","530","","","","","clear_screen","null","null","","","critical","c","t","d","164","240","240","164","220.0396","154.6796","spektor","0.14","w","240","164","164","240","220.0396","154.6796","39360","39360","34035.6388","tc","null","null","null","null","null","null","[2,1]","468.4400473667064","192.0943610621695","538.5099457619748"
"","canvas-keyboard-response","239","188639","0.0-6.0-2.33","530","","","","","rectangles no change","null","null","","","critical","c","t","d","164","240","240","164","220.0396","154.6796","spektor","0.14","w","240","164","164","240","220.0396","154.6796","39360","39360","34035.6388","tc","null","null","null","null","null","null","[2,1]","468.4400473667064","192.0943610621695","538.5099457619748"
"","canvas-keyboard-response","240","189977","0.0-6.0-3.33","530","","","","","rectangles with change","null","null","","","critical","c","t","d","164","240","240","164","220.0396","154.6796","spektor","0.14","w","240","164","164","240","220.0396","154.6796","39360","39360","34035.6388","tc","null","null","null","null","null","null","[2,1]","468.4400473667064","192.0943610621695","538.5099457619748"
"","canvas-keyboard-response","241","190001","0.0-6.0-4.33","530","","","","","clear_screen","null","null","","","critical","c","t","d","164","240","240","164","220.0396","154.6796","spektor","0.14","w","240","164","164","240","220.0396","154.6796","39360","39360","34035.6388","tc","null","null","null","null","null","null","[2,1]","468.4400473667064","192.0943610621695","538.5099457619748"
"","canvas-keyboard-response","242","190675","0.0-6.0-5.33","530","","","","","make choice","668","1","","","critical","c","t","d","164","240","240","164","220.0396","154.6796","spektor","0.14","w","240","164","164","240","220.0396","154.6796","39360","39360","34035.6388","tc","null","null","null","null","null","null","[2,1]","","",""
"","canvas-keyboard-response","243","190695","0.0-6.0-6.33","530","","","","","clear_screen","null","null","","","critical","c","t","d","164","240","240","164","220.0396","154.6796","spektor","0.14","w","240","164","164","240","220.0396","154.6796","39360","39360","34035.6388","tc","null","null","null","null","null","null","[2,1]","","",""
"","canvas-keyboard-response","244","190896","0.0-6.0-0.34","530","","","","","pre trial waiting period","null","null","","","critical","d","c","t","220.0396","154.6796","164","240","240","164","trueblood","0.14","w","240","164","164","240","220.0396","154.6796","39360","39360","34035.6388","dc","null","null","null","null","null","null","[1,2]","492.34326384753047","448.57587382358423","488.3778658841192"
"","canvas-keyboard-response","245","190919","0.0-6.0-1.34","530","","","","","clear_screen","null","null","","","critical","d","c","t","220.0396","154.6796","164","240","240","164","trueblood","0.14","w","240","164","164","240","220.0396","154.6796","39360","39360","34035.6388","dc","null","null","null","null","null","null","[1,2]","492.34326384753047","448.57587382358423","488.3778658841192"
"","canvas-keyboard-response","246","191426","0.0-6.0-2.34","530","","","","","rectangles no change","null","null","","","critical","d","c","t","220.0396","154.6796","164","240","240","164","trueblood","0.14","w","240","164","164","240","220.0396","154.6796","39360","39360","34035.6388","dc","null","null","null","null","null","null","[1,2]","492.34326384753047","448.57587382358423","488.3778658841192"
"","canvas-keyboard-response","247","192760","0.0-6.0-3.34","530","","","","","rectangles with change","null","null","","","critical","d","c","t","220.0396","154.6796","164","240","240","164","trueblood","0.14","w","240","164","164","240","220.0396","154.6796","39360","39360","34035.6388","dc","null","null","null","null","null","null","[1,2]","492.34326384753047","448.57587382358423","488.3778658841192"
"","canvas-keyboard-response","248","192779","0.0-6.0-4.34","530","","","","","clear_screen","null","null","","","critical","d","c","t","220.0396","154.6796","164","240","240","164","trueblood","0.14","w","240","164","164","240","220.0396","154.6796","39360","39360","34035.6388","dc","null","null","null","null","null","null","[1,2]","492.34326384753047","448.57587382358423","488.3778658841192"
"","canvas-keyboard-response","249","193467","0.0-6.0-5.34","530","","","","","make choice","681","2","","","critical","d","c","t","220.0396","154.6796","164","240","240","164","trueblood","0.14","w","240","164","164","240","220.0396","154.6796","39360","39360","34035.6388","dc","null","null","null","null","null","null","[1,2]","","",""
"","canvas-keyboard-response","250","193484","0.0-6.0-6.34","530","","","","","clear_screen","null","null","","","critical","d","c","t","220.0396","154.6796","164","240","240","164","trueblood","0.14","w","240","164","164","240","220.0396","154.6796","39360","39360","34035.6388","dc","null","null","null","null","null","null","[1,2]","","",""
"","canvas-keyboard-response","251","193685","0.0-6.0-0.35","530","","","","","pre trial waiting period","null","null","","","catch","sw","l","sh","180","200","188","231","164","189","trueblood","null","null","null","null","null","null","null","null","null","null","null","","180","200","260","200","36000","52000","[1,2]","491.77865555312724","455.64653429431786","461.336932905604"
"","canvas-keyboard-response","252","193705","0.0-6.0-1.35","530","","","","","clear_screen","null","null","","","catch","sw","l","sh","180","200","188","231","164","189","trueblood","null","null","null","null","null","null","null","null","null","null","null","","180","200","260","200","36000","52000","[1,2]","491.77865555312724","455.64653429431786","461.336932905604"
"","canvas-keyboard-response","253","194211","0.0-6.0-2.35","530","","","","","rectangles no change","null","null","","","catch","sw","l","sh","180","200","188","231","164","189","trueblood","null","null","null","null","null","null","null","null","null","null","null","","180","200","260","200","36000","52000","[1,2]","491.77865555312724","455.64653429431786","461.336932905604"
"","canvas-keyboard-response","254","195547","0.0-6.0-3.35","530","","","","","rectangles with change","null","null","","","catch","sw","l","sh","180","200","188","231","164","189","trueblood","null","null","null","null","null","null","null","null","null","null","null","","180","200","260","200","36000","52000","[1,2]","491.77865555312724","455.64653429431786","461.336932905604"
"","canvas-keyboard-response","255","195566","0.0-6.0-4.35","530","","","","","clear_screen","null","null","","","catch","sw","l","sh","180","200","188","231","164","189","trueblood","null","null","null","null","null","null","null","null","null","null","null","","180","200","260","200","36000","52000","[1,2]","491.77865555312724","455.64653429431786","461.336932905604"
"","canvas-keyboard-response","256","196244","0.0-6.0-5.35","530","","","","","make choice","670","2","","","catch","sw","l","sh","180","200","188","231","164","189","trueblood","null","null","null","null","null","null","null","null","null","null","null","","180","200","260","200","36000","52000","[1,2]","","",""
"","canvas-keyboard-response","257","196262","0.0-6.0-6.35","530","","","","","clear_screen","null","null","","","catch","sw","l","sh","180","200","188","231","164","189","trueblood","null","null","null","null","null","null","null","null","null","null","null","","180","200","260","200","36000","52000","[1,2]","","",""
"","canvas-keyboard-response","258","196463","0.0-6.0-0.36","530","","","","","pre trial waiting period","null","null","","","catch","l","sw","sh","252","178","149","202","181","151","trueblood","null","null","null","null","null","null","null","null","null","null","null","","180","200","260","200","36000","52000","[1,3]","488.2306960435624","480.9892255868989","507.7269803195155"
"","canvas-keyboard-response","259","196482","0.0-6.0-1.36","530","","","","","clear_screen","null","null","","","catch","l","sw","sh","252","178","149","202","181","151","trueblood","null","null","null","null","null","null","null","null","null","null","null","","180","200","260","200","36000","52000","[1,3]","488.2306960435624","480.9892255868989","507.7269803195155"
"","canvas-keyboard-response","260","196989","0.0-6.0-2.36","530","","","","","rectangles no change","null","null","","","catch","l","sw","sh","252","178","149","202","181","151","trueblood","null","null","null","null","null","null","null","null","null","null","null","","180","200","260","200","36000","52000","[1,3]","488.2306960435624","480.9892255868989","507.7269803195155"
"","canvas-keyboard-response","261","198330","0.0-6.0-3.36","530","","","","","rectangles with change","null","null","","","catch","l","sw","sh","252","178","149","202","181","151","trueblood","null","null","null","null","null","null","null","null","null","null","null","","180","200","260","200","36000","52000","[1,3]","488.2306960435624","480.9892255868989","507.7269803195155"
"","canvas-keyboard-response","262","198354","0.0-6.0-4.36","530","","","","","clear_screen","null","null","","","catch","l","sw","sh","252","178","149","202","181","151","trueblood","null","null","null","null","null","null","null","null","null","null","null","","180","200","260","200","36000","52000","[1,3]","488.2306960435624","480.9892255868989","507.7269803195155"
"","canvas-keyboard-response","263","199076","0.0-6.0-5.36","530","","","","","make choice","716","1","","","catch","l","sw","sh","252","178","149","202","181","151","trueblood","null","null","null","null","null","null","null","null","null","null","null","","180","200","260","200","36000","52000","[1,3]","","",""
"","canvas-keyboard-response","264","199095","0.0-6.0-6.36","530","","","","","clear_screen","null","null","","","catch","l","sw","sh","252","178","149","202","181","151","trueblood","null","null","null","null","null","null","null","null","null","null","null","","180","200","260","200","36000","52000","[1,3]","","",""
"","canvas-keyboard-response","265","199296","0.0-6.0-0.37","530","","","","","pre trial waiting period","null","null","","","critical","t","c","d","240","164","164","240","227.1683","158.0083","spektor","0.09","w","240","164","164","240","227.1683","158.0083","39360","39360","35894.4834","dc","null","null","null","null","null","null","[3,2]","516.4483397835393","120.39503548155194","523.5776229209756"
"","canvas-keyboard-response","266","199317","0.0-6.0-1.37","530","","","","","clear_screen","null","null","","","critical","t","c","d","240","164","164","240","227.1683","158.0083","spektor","0.09","w","240","164","164","240","227.1683","158.0083","39360","39360","35894.4834","dc","null","null","null","null","null","null","[3,2]","516.4483397835393","120.39503548155194","523.5776229209756"
"","canvas-keyboard-response","267","199824","0.0-6.0-2.37","530","","","","","rectangles no change","null","null","","","critical","t","c","d","240","164","164","240","227.1683","158.0083","spektor","0.09","w","240","164","164","240","227.1683","158.0083","39360","39360","35894.4834","dc","null","null","null","null","null","null","[3,2]","516.4483397835393","120.39503548155194","523.5776229209756"
"","canvas-keyboard-response","268","201160","0.0-6.0-3.37","530","","","","","rectangles with change","null","null","","","critical","t","c","d","240","164","164","240","227.1683","158.0083","spektor","0.09","w","240","164","164","240","227.1683","158.0083","39360","39360","35894.4834","dc","null","null","null","null","null","null","[3,2]","516.4483397835393","120.39503548155194","523.5776229209756"
