"success","trial_type","trial_index","time_elapsed","internal_node_id","sub_n","timeout","failed_images","failed_audio","failed_video","screen_id","rt","response","stimulus","view_history","trial","r1","r2","r3","w1","h1","w2","h2","w3","h3","display","tdd","tdo","tw","th","cw","ch","dw","dh","ta","ca","da","probe","csls","csss","clls","clss","sa","la","probe_rects","r1yloc","r2yloc","r3yloc"
"true","fullscreen","0","3890","0.0-0.0","61","","","","","","","","","","","","","","","","","","","","","","","","","","","","","","","","","","","","","","","","","",""
"true","preload","1","3898","0.0-1.0","61","false","[]","[]","[]","img preload","","","","","","","","","","","","","","","","","","","","","","","","","","","","","","","","","","","","",""
"","survey-html-form","2","9350","0.0-2.0","61","","","","","enter-sub-number","5449","{""response"":""61""}","","","","","","","","","","","","","","","","","","","","","","","","","","","","","","","","","","",""
"","image-button-response","3","15458","0.0-3.0","61","","","","","","6038","0","consent.png","","","","","","","","","","","","","","","","","","","","","","","","","","","","","","","","","",""
"","html-button-response","4","21489","0.0-4.0","61","","","","","intro mssg","6026","0","<div style= ""font-size:25px;"" <p> <strong> Welcome! </strong><br> <p style=""color:#8B0000; font-size:25px;""><strong> Please do NOT exit full screen until you are done with the experiment. </strong> </p><p style=""font-size:25px;color:#8B0000;""> <strong> Your data will be lost <br> if you try to go back or refresh the page after the experiment starts. Feel free to click ""previous"" during the instructions, however.</strong> </p><br><p> <strong> Thanks in advance for your contribution to our research! </strong></p>","","","","","","","","","","","","","","","","","","","","","","","","","","","","","","","","","",""
"","instructions","5","97667","0.0-5.0","61","","","","","instructions","76172","","","[{""page_index"":0,""viewing_time"":5835},{""page_index"":1,""viewing_time"":10215},{""page_index"":2,""viewing_time"":7679},{""page_index"":3,""viewing_time"":40154},{""page_index"":4,""viewing_time"":6063},{""page_index"":5,""viewing_time"":2592},{""page_index"":6,""viewing_time"":2465},{""page_index"":7,""viewing_time"":1168}]","","","","","","","","","","","","","","","","","","","","","","","","","","","","","","","","",""
"","canvas-keyboard-response","6","97874","0.0-6.0-0.0","61","","","","","pre trial waiting period","null","null","","","critical","c","d","t","164","240","237.1485","162.6685","240","164","spektor","0.02","w","240","164","164","240","237.1485","162.6685","39360","39360","38576.5967","tc","null","null","null","null","null","null","[3,1]","457.4972000078923","184.15436450545457","504.1855396474843"
"","canvas-keyboard-response","7","97898","0.0-6.0-1.0","61","","","","","clear_screen","null","null","","","critical","c","d","t","164","240","237.1485","162.6685","240","164","spektor","0.02","w","240","164","164","240","237.1485","162.6685","39360","39360","38576.5967","tc","null","null","null","null","null","null","[3,1]","457.4972000078923","184.15436450545457","504.1855396474843"
"","canvas-keyboard-response","8","98412","0.0-6.0-2.0","61","","","","","rectangles no change","null","null","","","critical","c","d","t","164","240","237.1485","162.6685","240","164","spektor","0.02","w","240","164","164","240","237.1485","162.6685","39360","39360","38576.5967","tc","null","null","null","null","null","null","[3,1]","457.4972000078923","184.15436450545457","504.1855396474843"
"","canvas-keyboard-response","9","99749","0.0-6.0-3.0","61","","","","","rectangles with change","null","null","","","critical","c","d","t","164","240","237.1485","162.6685","240","164","spektor","0.02","w","240","164","164","240","237.1485","162.6685","39360","39360","38576.5967","tc","null","null","null","null","null","null","[3,1]","457.4972000078923","184.15436450545457","504.1855396474843"
"","canvas-keyboard-response","10","99768","0.0-6.0-4.0","61","","","","","clear_screen","null","null","","","critical","c","d","t","164","240","237.1485","162.6685","240","164","spektor","0.02","w","240","164","164","240","237.1485","162.6685","39360","39360","38576.5967","tc","null","null","null","null","null","null","[3,1]","457.4972000078923","184.15436450545457","504.1855396474843"
"","canvas-keyboard-response","11","104433","0.0-6.0-5.0","61","","","","","make choice","4655","3","","","critical","c","d","t","164","240","237.1485","162.6685","240","164","spektor","0.02","w","240","164","164","240","237.1485","162.6685","39360","39360","38576.5967","tc","null","null","null","null","null","null","[3,1]","","",""
"","canvas-keyboard-response","12","104452","0.0-6.0-6.0","61","","","","","clear_screen","null","null","","","critical","c","d","t","164","240","237.1485","162.6685","240","164","spektor","0.02","w","240","164","164","240","237.1485","162.6685","39360","39360","38576.5967","tc","null","null","null","null","null","null","[3,1]","","",""
"","canvas-keyboard-response","13","104654","0.0-6.0-0.1","61","","","","","pre trial waiting period","null","null","","","critical","d","t","c","160.6713","232.8713","164","240","240","164","spektor","0.05","h","164","240","240","164","160.6713","232.8713","39360","39360","37415.7294","tc","null","null","null","null","null","null","[2,3]","486.9228620961926","131.6193266987897","537.7708729324664"
"","canvas-keyboard-response","14","104676","0.0-6.0-1.1","61","","","","","clear_screen","null","null","","","critical","d","t","c","160.6713","232.8713","164","240","240","164","spektor","0.05","h","164","240","240","164","160.6713","232.8713","39360","39360","37415.7294","tc","null","null","null","null","null","null","[2,3]","486.9228620961926","131.6193266987897","537.7708729324664"
"","canvas-keyboard-response","15","105185","0.0-6.0-2.1","61","","","","","rectangles no change","null","null","","","critical","d","t","c","160.6713","232.8713","164","240","240","164","spektor","0.05","h","164","240","240","164","160.6713","232.8713","39360","39360","37415.7294","tc","null","null","null","null","null","null","[2,3]","486.9228620961926","131.6193266987897","537.7708729324664"
"","canvas-keyboard-response","16","106524","0.0-6.0-3.1","61","","","","","rectangles with change","null","null","","","critical","d","t","c","160.6713","232.8713","164","240","240","164","spektor","0.05","h","164","240","240","164","160.6713","232.8713","39360","39360","37415.7294","tc","null","null","null","null","null","null","[2,3]","486.9228620961926","131.6193266987897","537.7708729324664"
"","canvas-keyboard-response","17","106543","0.0-6.0-4.1","61","","","","","clear_screen","null","null","","","critical","d","t","c","160.6713","232.8713","164","240","240","164","spektor","0.05","h","164","240","240","164","160.6713","232.8713","39360","39360","37415.7294","tc","null","null","null","null","null","null","[2,3]","486.9228620961926","131.6193266987897","537.7708729324664"
"","canvas-keyboard-response","18","111287","0.0-6.0-5.1","61","","","","","make choice","4734","3","","","critical","d","t","c","160.6713","232.8713","164","240","240","164","spektor","0.05","h","164","240","240","164","160.6713","232.8713","39360","39360","37415.7294","tc","null","null","null","null","null","null","[2,3]","","",""
"","canvas-keyboard-response","19","111305","0.0-6.0-6.1","61","","","","","clear_screen","null","null","","","critical","d","t","c","160.6713","232.8713","164","240","240","164","spektor","0.05","h","164","240","240","164","160.6713","232.8713","39360","39360","37415.7294","tc","null","null","null","null","null","null","[2,3]","","",""
"","canvas-keyboard-response","20","111506","0.0-6.0-0.2","61","","","","","pre trial waiting period","null","null","","","critical","t","c","d","240","164","164","240","232.8713","160.6713","spektor","0.05","w","240","164","164","240","232.8713","160.6713","39360","39360","37415.7294","dc","null","null","null","null","null","null","[3,2]","504.55844991258994","113.32762383885093","507.8692433770442"
"","canvas-keyboard-response","21","111526","0.0-6.0-1.2","61","","","","","clear_screen","null","null","","","critical","t","c","d","240","164","164","240","232.8713","160.6713","spektor","0.05","w","240","164","164","240","232.8713","160.6713","39360","39360","37415.7294","dc","null","null","null","null","null","null","[3,2]","504.55844991258994","113.32762383885093","507.8692433770442"
"","canvas-keyboard-response","22","112033","0.0-6.0-2.2","61","","","","","rectangles no change","null","null","","","critical","t","c","d","240","164","164","240","232.8713","160.6713","spektor","0.05","w","240","164","164","240","232.8713","160.6713","39360","39360","37415.7294","dc","null","null","null","null","null","null","[3,2]","504.55844991258994","113.32762383885093","507.8692433770442"
"","canvas-keyboard-response","23","113371","0.0-6.0-3.2","61","","","","","rectangles with change","null","null","","","critical","t","c","d","240","164","164","240","232.8713","160.6713","spektor","0.05","w","240","164","164","240","232.8713","160.6713","39360","39360","37415.7294","dc","null","null","null","null","null","null","[3,2]","504.55844991258994","113.32762383885093","507.8692433770442"
"","canvas-keyboard-response","24","113389","0.0-6.0-4.2","61","","","","","clear_screen","null","null","","","critical","t","c","d","240","164","164","240","232.8713","160.6713","spektor","0.05","w","240","164","164","240","232.8713","160.6713","39360","39360","37415.7294","dc","null","null","null","null","null","null","[3,2]","504.55844991258994","113.32762383885093","507.8692433770442"
"","canvas-keyboard-response","25","117258","0.0-6.0-5.2","61","","","","","make choice","3861","2","","","critical","t","c","d","240","164","164","240","232.8713","160.6713","spektor","0.05","w","240","164","164","240","232.8713","160.6713","39360","39360","37415.7294","dc","null","null","null","null","null","null","[3,2]","","",""
"","canvas-keyboard-response","26","117276","0.0-6.0-6.2","61","","","","","clear_screen","null","null","","","critical","t","c","d","240","164","164","240","232.8713","160.6713","spektor","0.05","w","240","164","164","240","232.8713","160.6713","39360","39360","37415.7294","dc","null","null","null","null","null","null","[3,2]","","",""
"","canvas-keyboard-response","27","117476","0.0-6.0-0.3","61","","","","","pre trial waiting period","null","null","","","catch","l","sh","sw","173","222","209","160","152","177","spektor","null","null","null","null","null","null","null","null","null","null","null","","180","200","260","200","36000","52000","[1,3]","509.3830216948935","206.08322811577293","511.9510145791808"
"","canvas-keyboard-response","28","117496","0.0-6.0-1.3","61","","","","","clear_screen","null","null","","","catch","l","sh","sw","173","222","209","160","152","177","spektor","null","null","null","null","null","null","null","null","null","null","null","","180","200","260","200","36000","52000","[1,3]","509.3830216948935","206.08322811577293","511.9510145791808"
"","canvas-keyboard-response","29","118004","0.0-6.0-2.3","61","","","","","rectangles no change","null","null","","","catch","l","sh","sw","173","222","209","160","152","177","spektor","null","null","null","null","null","null","null","null","null","null","null","","180","200","260","200","36000","52000","[1,3]","509.3830216948935","206.08322811577293","511.9510145791808"
"","canvas-keyboard-response","30","119340","0.0-6.0-3.3","61","","","","","rectangles with change","null","null","","","catch","l","sh","sw","173","222","209","160","152","177","spektor","null","null","null","null","null","null","null","null","null","null","null","","180","200","260","200","36000","52000","[1,3]","509.3830216948935","206.08322811577293","511.9510145791808"
"","canvas-keyboard-response","31","119361","0.0-6.0-4.3","61","","","","","clear_screen","null","null","","","catch","l","sh","sw","173","222","209","160","152","177","spektor","null","null","null","null","null","null","null","null","null","null","null","","180","200","260","200","36000","52000","[1,3]","509.3830216948935","206.08322811577293","511.9510145791808"
"","canvas-keyboard-response","32","120482","0.0-6.0-5.3","61","","","","","make choice","1113","1","","","catch","l","sh","sw","173","222","209","160","152","177","spektor","null","null","null","null","null","null","null","null","null","null","null","","180","200","260","200","36000","52000","[1,3]","","",""
"","canvas-keyboard-response","33","120499","0.0-6.0-6.3","61","","","","","clear_screen","null","null","","","catch","l","sh","sw","173","222","209","160","152","177","spektor","null","null","null","null","null","null","null","null","null","null","null","","180","200","260","200","36000","52000","[1,3]","","",""
"","canvas-keyboard-response","34","120700","0.0-6.0-0.4","61","","","","","pre trial waiting period","null","null","","","catch","l","sh","sw","229","248","184","179","171","202","spektor","null","null","null","null","null","null","null","null","null","null","null","","180","200","260","200","36000","52000","[1,3]","453.79465754470965","179.38805223693808","506.39548396086866"
"","canvas-keyboard-response","35","120723","0.0-6.0-1.4","61","","","","","clear_screen","null","null","","","catch","l","sh","sw","229","248","184","179","171","202","spektor","null","null","null","null","null","null","null","null","null","null","null","","180","200","260","200","36000","52000","[1,3]","453.79465754470965","179.38805223693808","506.39548396086866"
"","canvas-keyboard-response","36","121232","0.0-6.0-2.4","61","","","","","rectangles no change","null","null","","","catch","l","sh","sw","229","248","184","179","171","202","spektor","null","null","null","null","null","null","null","null","null","null","null","","180","200","260","200","36000","52000","[1,3]","453.79465754470965","179.38805223693808","506.39548396086866"
"","canvas-keyboard-response","37","122571","0.0-6.0-3.4","61","","","","","rectangles with change","null","null","","","catch","l","sh","sw","229","248","184","179","171","202","spektor","null","null","null","null","null","null","null","null","null","null","null","","180","200","260","200","36000","52000","[1,3]","453.79465754470965","179.38805223693808","506.39548396086866"
"","canvas-keyboard-response","38","122592","0.0-6.0-4.4","61","","","","","clear_screen","null","null","","","catch","l","sh","sw","229","248","184","179","171","202","spektor","null","null","null","null","null","null","null","null","null","null","null","","180","200","260","200","36000","52000","[1,3]","453.79465754470965","179.38805223693808","506.39548396086866"
"","canvas-keyboard-response","39","123048","0.0-6.0-5.4","61","","","","","make choice","448","1","","","catch","l","sh","sw","229","248","184","179","171","202","spektor","null","null","null","null","null","null","null","null","null","null","null","","180","200","260","200","36000","52000","[1,3]","","",""
"","canvas-keyboard-response","40","123070","0.0-6.0-6.4","61","","","","","clear_screen","null","null","","","catch","l","sh","sw","229","248","184","179","171","202","spektor","null","null","null","null","null","null","null","null","null","null","null","","180","200","260","200","36000","52000","[1,3]","","",""
"","canvas-keyboard-response","41","123271","0.0-6.0-0.5","61","","","","","pre trial waiting period","null","null","","","catch","sw","l","sh","180","200","221","253","183","217","spektor","null","null","null","null","null","null","null","null","null","null","null","","180","200","260","200","36000","52000","[2,3]","511.08633758402533","111.63965889157832","474.5300719383304"
"","canvas-keyboard-response","42","123292","0.0-6.0-1.5","61","","","","","clear_screen","null","null","","","catch","sw","l","sh","180","200","221","253","183","217","spektor","null","null","null","null","null","null","null","null","null","null","null","","180","200","260","200","36000","52000","[2,3]","511.08633758402533","111.63965889157832","474.5300719383304"
"","canvas-keyboard-response","43","123801","0.0-6.0-2.5","61","","","","","rectangles no change","null","null","","","catch","sw","l","sh","180","200","221","253","183","217","spektor","null","null","null","null","null","null","null","null","null","null","null","","180","200","260","200","36000","52000","[2,3]","511.08633758402533","111.63965889157832","474.5300719383304"
"","canvas-keyboard-response","44","125137","0.0-6.0-3.5","61","","","","","rectangles with change","null","null","","","catch","sw","l","sh","180","200","221","253","183","217","spektor","null","null","null","null","null","null","null","null","null","null","null","","180","200","260","200","36000","52000","[2,3]","511.08633758402533","111.63965889157832","474.5300719383304"
"","canvas-keyboard-response","45","125156","0.0-6.0-4.5","61","","","","","clear_screen","null","null","","","catch","sw","l","sh","180","200","221","253","183","217","spektor","null","null","null","null","null","null","null","null","null","null","null","","180","200","260","200","36000","52000","[2,3]","511.08633758402533","111.63965889157832","474.5300719383304"
"","canvas-keyboard-response","46","126433","0.0-6.0-5.5","61","","","","","make choice","1268","2","","","catch","sw","l","sh","180","200","221","253","183","217","spektor","null","null","null","null","null","null","null","null","null","null","null","","180","200","260","200","36000","52000","[2,3]","","",""
"","canvas-keyboard-response","47","126451","0.0-6.0-6.5","61","","","","","clear_screen","null","null","","","catch","sw","l","sh","180","200","221","253","183","217","spektor","null","null","null","null","null","null","null","null","null","null","null","","180","200","260","200","36000","52000","[2,3]","","",""
"","canvas-keyboard-response","48","126651","0.0-6.0-0.6","61","","","","","pre trial waiting period","null","null","","","critical","t","c","d","164","240","240","164","162.6685","237.1485","trueblood","0.02","h","164","240","240","164","162.6685","237.1485","39360","39360","38576.5967","dc","null","null","null","null","null","null","[3,2]","423.9579407821534","485.70018339461444","433.67150793718054"
"","canvas-keyboard-response","49","126671","0.0-6.0-1.6","61","","","","","clear_screen","null","null","","","critical","t","c","d","164","240","240","164","162.6685","237.1485","trueblood","0.02","h","164","240","240","164","162.6685","237.1485","39360","39360","38576.5967","dc","null","null","null","null","null","null","[3,2]","423.9579407821534","485.70018339461444","433.67150793718054"
"","canvas-keyboard-response","50","127180","0.0-6.0-2.6","61","","","","","rectangles no change","null","null","","","critical","t","c","d","164","240","240","164","162.6685","237.1485","trueblood","0.02","h","164","240","240","164","162.6685","237.1485","39360","39360","38576.5967","dc","null","null","null","null","null","null","[3,2]","423.9579407821534","485.70018339461444","433.67150793718054"
"","canvas-keyboard-response","51","128516","0.0-6.0-3.6","61","","","","","rectangles with change","null","null","","","critical","t","c","d","164","240","240","164","162.6685","237.1485","trueblood","0.02","h","164","240","240","164","162.6685","237.1485","39360","39360","38576.5967","dc","null","null","null","null","null","null","[3,2]","423.9579407821534","485.70018339461444","433.67150793718054"
"","canvas-keyboard-response","52","128535","0.0-6.0-4.6","61","","","","","clear_screen","null","null","","","critical","t","c","d","164","240","240","164","162.6685","237.1485","trueblood","0.02","h","164","240","240","164","162.6685","237.1485","39360","39360","38576.5967","dc","null","null","null","null","null","null","[3,2]","423.9579407821534","485.70018339461444","433.67150793718054"
"","canvas-keyboard-response","53","129642","0.0-6.0-5.6","61","","","","","make choice","1100","2","","","critical","t","c","d","164","240","240","164","162.6685","237.1485","trueblood","0.02","h","164","240","240","164","162.6685","237.1485","39360","39360","38576.5967","dc","null","null","null","null","null","null","[3,2]","","",""
"","canvas-keyboard-response","54","129659","0.0-6.0-6.6","61","","","","","clear_screen","null","null","","","critical","t","c","d","164","240","240","164","162.6685","237.1485","trueblood","0.02","h","164","240","240","164","162.6685","237.1485","39360","39360","38576.5967","dc","null","null","null","null","null","null","[3,2]","","",""
"","canvas-keyboard-response","55","129860","0.0-6.0-0.7","61","","","","","pre trial waiting period","null","null","","","catch","sw","sh","l","180","200","217","171","193","260","trueblood","null","null","null","null","null","null","null","null","null","null","null","","180","200","260","200","36000","52000","[1,3]","483.3103386781671","510.76393246111536","448.3936273609465"
"","canvas-keyboard-response","56","129883","0.0-6.0-1.7","61","","","","","clear_screen","null","null","","","catch","sw","sh","l","180","200","217","171","193","260","trueblood","null","null","null","null","null","null","null","null","null","null","null","","180","200","260","200","36000","52000","[1,3]","483.3103386781671","510.76393246111536","448.3936273609465"
"","canvas-keyboard-response","57","130394","0.0-6.0-2.7","61","","","","","rectangles no change","null","null","","","catch","sw","sh","l","180","200","217","171","193","260","trueblood","null","null","null","null","null","null","null","null","null","null","null","","180","200","260","200","36000","52000","[1,3]","483.3103386781671","510.76393246111536","448.3936273609465"
"","canvas-keyboard-response","58","131731","0.0-6.0-3.7","61","","","","","rectangles with change","null","null","","","catch","sw","sh","l","180","200","217","171","193","260","trueblood","null","null","null","null","null","null","null","null","null","null","null","","180","200","260","200","36000","52000","[1,3]","483.3103386781671","510.76393246111536","448.3936273609465"
"","canvas-keyboard-response","59","131751","0.0-6.0-4.7","61","","","","","clear_screen","null","null","","","catch","sw","sh","l","180","200","217","171","193","260","trueblood","null","null","null","null","null","null","null","null","null","null","null","","180","200","260","200","36000","52000","[1,3]","483.3103386781671","510.76393246111536","448.3936273609465"
"","canvas-keyboard-response","60","132201","0.0-6.0-5.7","61","","","","","make choice","442","3","","","catch","sw","sh","l","180","200","217","171","193","260","trueblood","null","null","null","null","null","null","null","null","null","null","null","","180","200","260","200","36000","52000","[1,3]","","",""
"","canvas-keyboard-response","61","132224","0.0-6.0-6.7","61","","","","","clear_screen","null","null","","","catch","sw","sh","l","180","200","217","171","193","260","trueblood","null","null","null","null","null","null","null","null","null","null","null","","180","200","260","200","36000","52000","[1,3]","","",""
"","canvas-keyboard-response","62","132425","0.0-6.0-0.8","61","","","","","pre trial waiting period","null","null","","","catch","l","sh","sw","228","273","227","173","160","195","trueblood","null","null","null","null","null","null","null","null","null","null","null","","180","200","260","200","36000","52000","[1,3]","414.45758735064203","485.08563361897495","453.81974510465864"
"","canvas-keyboard-response","63","132446","0.0-6.0-1.8","61","","","","","clear_screen","null","null","","","catch","l","sh","sw","228","273","227","173","160","195","trueblood","null","null","null","null","null","null","null","null","null","null","null","","180","200","260","200","36000","52000","[1,3]","414.45758735064203","485.08563361897495","453.81974510465864"
"","canvas-keyboard-response","64","132954","0.0-6.0-2.8","61","","","","","rectangles no change","null","null","","","catch","l","sh","sw","228","273","227","173","160","195","trueblood","null","null","null","null","null","null","null","null","null","null","null","","180","200","260","200","36000","52000","[1,3]","414.45758735064203","485.08563361897495","453.81974510465864"
"","canvas-keyboard-response","65","134290","0.0-6.0-3.8","61","","","","","rectangles with change","null","null","","","catch","l","sh","sw","228","273","227","173","160","195","trueblood","null","null","null","null","null","null","null","null","null","null","null","","180","200","260","200","36000","52000","[1,3]","414.45758735064203","485.08563361897495","453.81974510465864"
"","canvas-keyboard-response","66","134309","0.0-6.0-4.8","61","","","","","clear_screen","null","null","","","catch","l","sh","sw","228","273","227","173","160","195","trueblood","null","null","null","null","null","null","null","null","null","null","null","","180","200","260","200","36000","52000","[1,3]","414.45758735064203","485.08563361897495","453.81974510465864"
"","canvas-keyboard-response","67","135040","0.0-6.0-5.8","61","","","","","make choice","722","1","","","catch","l","sh","sw","228","273","227","173","160","195","trueblood","null","null","null","null","null","null","null","null","null","null","null","","180","200","260","200","36000","52000","[1,3]","","",""
"","canvas-keyboard-response","68","135059","0.0-6.0-6.8","61","","","","","clear_screen","null","null","","","catch","l","sh","sw","228","273","227","173","160","195","trueblood","null","null","null","null","null","null","null","null","null","null","null","","180","200","260","200","36000","52000","[1,3]","","",""
"","canvas-keyboard-response","69","135259","0.0-6.0-0.9","61","","","","","pre trial waiting period","null","null","","","catch","sh","sw","l","203","199","171","216","165","272","trueblood","null","null","null","null","null","null","null","null","null","null","null","","180","200","260","200","36000","52000","[2,3]","454.2753548628359","478.83626003811594","420.51148088615616"
"","canvas-keyboard-response","70","135283","0.0-6.0-1.9","61","","","","","clear_screen","null","null","","","catch","sh","sw","l","203","199","171","216","165","272","trueblood","null","null","null","null","null","null","null","null","null","null","null","","180","200","260","200","36000","52000","[2,3]","454.2753548628359","478.83626003811594","420.51148088615616"
"","canvas-keyboard-response","71","135791","0.0-6.0-2.9","61","","","","","rectangles no change","null","null","","","catch","sh","sw","l","203","199","171","216","165","272","trueblood","null","null","null","null","null","null","null","null","null","null","null","","180","200","260","200","36000","52000","[2,3]","454.2753548628359","478.83626003811594","420.51148088615616"
"","canvas-keyboard-response","72","137126","0.0-6.0-3.9","61","","","","","rectangles with change","null","null","","","catch","sh","sw","l","203","199","171","216","165","272","trueblood","null","null","null","null","null","null","null","null","null","null","null","","180","200","260","200","36000","52000","[2,3]","454.2753548628359","478.83626003811594","420.51148088615616"
"","canvas-keyboard-response","73","137147","0.0-6.0-4.9","61","","","","","clear_screen","null","null","","","catch","sh","sw","l","203","199","171","216","165","272","trueblood","null","null","null","null","null","null","null","null","null","null","null","","180","200","260","200","36000","52000","[2,3]","454.2753548628359","478.83626003811594","420.51148088615616"
"","canvas-keyboard-response","74","137681","0.0-6.0-5.9","61","","","","","make choice","526","3","","","catch","sh","sw","l","203","199","171","216","165","272","trueblood","null","null","null","null","null","null","null","null","null","null","null","","180","200","260","200","36000","52000","[2,3]","","",""
"","canvas-keyboard-response","75","137702","0.0-6.0-6.9","61","","","","","clear_screen","null","null","","","catch","sh","sw","l","203","199","171","216","165","272","trueblood","null","null","null","null","null","null","null","null","null","null","null","","180","200","260","200","36000","52000","[2,3]","","",""
"","canvas-keyboard-response","76","137902","0.0-6.0-0.10","61","","","","","pre trial waiting period","null","null","","","critical","d","c","t","158.0083","227.1683","240","164","164","240","spektor","0.09","h","164","240","240","164","158.0083","227.1683","39360","39360","35894.4834","tc","null","null","null","null","null","null","[3,2]","466.6487738334724","174.06543192816162","468.402580895888"
"","canvas-keyboard-response","77","137926","0.0-6.0-1.10","61","","","","","clear_screen","null","null","","","critical","d","c","t","158.0083","227.1683","240","164","164","240","spektor","0.09","h","164","240","240","164","158.0083","227.1683","39360","39360","35894.4834","tc","null","null","null","null","null","null","[3,2]","466.6487738334724","174.06543192816162","468.402580895888"
"","canvas-keyboard-response","78","138435","0.0-6.0-2.10","61","","","","","rectangles no change","null","null","","","critical","d","c","t","158.0083","227.1683","240","164","164","240","spektor","0.09","h","164","240","240","164","158.0083","227.1683","39360","39360","35894.4834","tc","null","null","null","null","null","null","[3,2]","466.6487738334724","174.06543192816162","468.402580895888"
"","canvas-keyboard-response","79","139775","0.0-6.0-3.10","61","","","","","rectangles with change","null","null","","","critical","d","c","t","158.0083","227.1683","240","164","164","240","spektor","0.09","h","164","240","240","164","158.0083","227.1683","39360","39360","35894.4834","tc","null","null","null","null","null","null","[3,2]","466.6487738334724","174.06543192816162","468.402580895888"
"","canvas-keyboard-response","80","139798","0.0-6.0-4.10","61","","","","","clear_screen","null","null","","","critical","d","c","t","158.0083","227.1683","240","164","164","240","spektor","0.09","h","164","240","240","164","158.0083","227.1683","39360","39360","35894.4834","tc","null","null","null","null","null","null","[3,2]","466.6487738334724","174.06543192816162","468.402580895888"
"","canvas-keyboard-response","81","142617","0.0-6.0-5.10","61","","","","","make choice","2811","3","","","critical","d","c","t","158.0083","227.1683","240","164","164","240","spektor","0.09","h","164","240","240","164","158.0083","227.1683","39360","39360","35894.4834","tc","null","null","null","null","null","null","[3,2]","","",""
"","canvas-keyboard-response","82","142636","0.0-6.0-6.10","61","","","","","clear_screen","null","null","","","critical","d","c","t","158.0083","227.1683","240","164","164","240","spektor","0.09","h","164","240","240","164","158.0083","227.1683","39360","39360","35894.4834","tc","null","null","null","null","null","null","[3,2]","","",""
"","canvas-keyboard-response","83","142837","0.0-6.0-0.11","61","","","","","pre trial waiting period","null","null","","","critical","d","t","c","240","164","240","164","164","240","trueblood","0","w","240","164","164","240","240","164","39360","39360","39360","tc","null","null","null","null","null","null","[2,3]","492.3668048623059","483.12933488604347","438.3260105993733"
"","canvas-keyboard-response","84","142856","0.0-6.0-1.11","61","","","","","clear_screen","null","null","","","critical","d","t","c","240","164","240","164","164","240","trueblood","0","w","240","164","164","240","240","164","39360","39360","39360","tc","null","null","null","null","null","null","[2,3]","492.3668048623059","483.12933488604347","438.3260105993733"
"","canvas-keyboard-response","85","143363","0.0-6.0-2.11","61","","","","","rectangles no change","null","null","","","critical","d","t","c","240","164","240","164","164","240","trueblood","0","w","240","164","164","240","240","164","39360","39360","39360","tc","null","null","null","null","null","null","[2,3]","492.3668048623059","483.12933488604347","438.3260105993733"
"","canvas-keyboard-response","86","144699","0.0-6.0-3.11","61","","","","","rectangles with change","null","null","","","critical","d","t","c","240","164","240","164","164","240","trueblood","0","w","240","164","164","240","240","164","39360","39360","39360","tc","null","null","null","null","null","null","[2,3]","492.3668048623059","483.12933488604347","438.3260105993733"
"","canvas-keyboard-response","87","144718","0.0-6.0-4.11","61","","","","","clear_screen","null","null","","","critical","d","t","c","240","164","240","164","164","240","trueblood","0","w","240","164","164","240","240","164","39360","39360","39360","tc","null","null","null","null","null","null","[2,3]","492.3668048623059","483.12933488604347","438.3260105993733"
"","canvas-keyboard-response","88","145481","0.0-6.0-5.11","61","","","","","make choice","756","2","","","critical","d","t","c","240","164","240","164","164","240","trueblood","0","w","240","164","164","240","240","164","39360","39360","39360","tc","null","null","null","null","null","null","[2,3]","","",""
"","canvas-keyboard-response","89","145502","0.0-6.0-6.11","61","","","","","clear_screen","null","null","","","critical","d","t","c","240","164","240","164","164","240","trueblood","0","w","240","164","164","240","240","164","39360","39360","39360","tc","null","null","null","null","null","null","[2,3]","","",""
"","canvas-keyboard-response","90","145704","0.0-6.0-0.12","61","","","","","pre trial waiting period","null","null","","","catch","l","sw","sh","295","209","148","232","195","177","spektor","null","null","null","null","null","null","null","null","null","null","null","","180","200","260","200","36000","52000","[1,2]","510.5978532519911","109.31366288601922","488.5112013050557"
"","canvas-keyboard-response","91","145722","0.0-6.0-1.12","61","","","","","clear_screen","null","null","","","catch","l","sw","sh","295","209","148","232","195","177","spektor","null","null","null","null","null","null","null","null","null","null","null","","180","200","260","200","36000","52000","[1,2]","510.5978532519911","109.31366288601922","488.5112013050557"
"","canvas-keyboard-response","92","146230","0.0-6.0-2.12","61","","","","","rectangles no change","null","null","","","catch","l","sw","sh","295","209","148","232","195","177","spektor","null","null","null","null","null","null","null","null","null","null","null","","180","200","260","200","36000","52000","[1,2]","510.5978532519911","109.31366288601922","488.5112013050557"
"","canvas-keyboard-response","93","147568","0.0-6.0-3.12","61","","","","","rectangles with change","null","null","","","catch","l","sw","sh","295","209","148","232","195","177","spektor","null","null","null","null","null","null","null","null","null","null","null","","180","200","260","200","36000","52000","[1,2]","510.5978532519911","109.31366288601922","488.5112013050557"
"","canvas-keyboard-response","94","147590","0.0-6.0-4.12","61","","","","","clear_screen","null","null","","","catch","l","sw","sh","295","209","148","232","195","177","spektor","null","null","null","null","null","null","null","null","null","null","null","","180","200","260","200","36000","52000","[1,2]","510.5978532519911","109.31366288601922","488.5112013050557"
"","canvas-keyboard-response","95","148025","0.0-6.0-5.12","61","","","","","make choice","426","1","","","catch","l","sw","sh","295","209","148","232","195","177","spektor","null","null","null","null","null","null","null","null","null","null","null","","180","200","260","200","36000","52000","[1,2]","","",""
"","canvas-keyboard-response","96","148044","0.0-6.0-6.12","61","","","","","clear_screen","null","null","","","catch","l","sw","sh","295","209","148","232","195","177","spektor","null","null","null","null","null","null","null","null","null","null","null","","180","200","260","200","36000","52000","[1,2]","","",""
"","canvas-keyboard-response","97","148245","0.0-6.0-0.13","61","","","","","pre trial waiting period","null","null","","","catch","sh","l","sw","206","195","273","233","160","233","trueblood","null","null","null","null","null","null","null","null","null","null","null","","180","200","260","200","36000","52000","[1,2]","479.327206450369","434.07436576147404","426.8156006753742"
"","canvas-keyboard-response","98","148266","0.0-6.0-1.13","61","","","","","clear_screen","null","null","","","catch","sh","l","sw","206","195","273","233","160","233","trueblood","null","null","null","null","null","null","null","null","null","null","null","","180","200","260","200","36000","52000","[1,2]","479.327206450369","434.07436576147404","426.8156006753742"
"","canvas-keyboard-response","99","148775","0.0-6.0-2.13","61","","","","","rectangles no change","null","null","","","catch","sh","l","sw","206","195","273","233","160","233","trueblood","null","null","null","null","null","null","null","null","null","null","null","","180","200","260","200","36000","52000","[1,2]","479.327206450369","434.07436576147404","426.8156006753742"
"","canvas-keyboard-response","100","150112","0.0-6.0-3.13","61","","","","","rectangles with change","null","null","","","catch","sh","l","sw","206","195","273","233","160","233","trueblood","null","null","null","null","null","null","null","null","null","null","null","","180","200","260","200","36000","52000","[1,2]","479.327206450369","434.07436576147404","426.8156006753742"
"","canvas-keyboard-response","101","150132","0.0-6.0-4.13","61","","","","","clear_screen","null","null","","","catch","sh","l","sw","206","195","273","233","160","233","trueblood","null","null","null","null","null","null","null","null","null","null","null","","180","200","260","200","36000","52000","[1,2]","479.327206450369","434.07436576147404","426.8156006753742"
"","canvas-keyboard-response","102","150473","0.0-6.0-5.13","61","","","","","make choice","333","2","","","catch","sh","l","sw","206","195","273","233","160","233","trueblood","null","null","null","null","null","null","null","null","null","null","null","","180","200","260","200","36000","52000","[1,2]","","",""
"","canvas-keyboard-response","103","150492","0.0-6.0-6.13","61","","","","","clear_screen","null","null","","","catch","sh","l","sw","206","195","273","233","160","233","trueblood","null","null","null","null","null","null","null","null","null","null","null","","180","200","260","200","36000","52000","[1,2]","","",""
"","canvas-keyboard-response","104","150693","0.0-6.0-0.14","61","","","","","pre trial waiting period","null","null","","","critical","c","t","d","164","240","240","164","232.8713","160.6713","spektor","0.05","w","240","164","164","240","232.8713","160.6713","39360","39360","37415.7294","tc","null","null","null","null","null","null","[2,1]","458.014763834202","208.09263198007673","514.5932306692126"
"","canvas-keyboard-response","105","150714","0.0-6.0-1.14","61","","","","","clear_screen","null","null","","","critical","c","t","d","164","240","240","164","232.8713","160.6713","spektor","0.05","w","240","164","164","240","232.8713","160.6713","39360","39360","37415.7294","tc","null","null","null","null","null","null","[2,1]","458.014763834202","208.09263198007673","514.5932306692126"
"","canvas-keyboard-response","106","151223","0.0-6.0-2.14","61","","","","","rectangles no change","null","null","","","critical","c","t","d","164","240","240","164","232.8713","160.6713","spektor","0.05","w","240","164","164","240","232.8713","160.6713","39360","39360","37415.7294","tc","null","null","null","null","null","null","[2,1]","458.014763834202","208.09263198007673","514.5932306692126"
"","canvas-keyboard-response","107","152557","0.0-6.0-3.14","61","","","","","rectangles with change","null","null","","","critical","c","t","d","164","240","240","164","232.8713","160.6713","spektor","0.05","w","240","164","164","240","232.8713","160.6713","39360","39360","37415.7294","tc","null","null","null","null","null","null","[2,1]","458.014763834202","208.09263198007673","514.5932306692126"
"","canvas-keyboard-response","108","152579","0.0-6.0-4.14","61","","","","","clear_screen","null","null","","","critical","c","t","d","164","240","240","164","232.8713","160.6713","spektor","0.05","w","240","164","164","240","232.8713","160.6713","39360","39360","37415.7294","tc","null","null","null","null","null","null","[2,1]","458.014763834202","208.09263198007673","514.5932306692126"
"","canvas-keyboard-response","109","153304","0.0-6.0-5.14","61","","","","","make choice","719","1","","","critical","c","t","d","164","240","240","164","232.8713","160.6713","spektor","0.05","w","240","164","164","240","232.8713","160.6713","39360","39360","37415.7294","tc","null","null","null","null","null","null","[2,1]","","",""
"","canvas-keyboard-response","110","153322","0.0-6.0-6.14","61","","","","","clear_screen","null","null","","","critical","c","t","d","164","240","240","164","232.8713","160.6713","spektor","0.05","w","240","164","164","240","232.8713","160.6713","39360","39360","37415.7294","tc","null","null","null","null","null","null","[2,1]","","",""
"","canvas-keyboard-response","111","153523","0.0-6.0-0.15","61","","","","","pre trial waiting period","null","null","","","catch","sw","sh","l","180","200","209","219","206","247","spektor","null","null","null","null","null","null","null","null","null","null","null","","180","200","260","200","36000","52000","[2,3]","508.25443923970715","149.0725123490988","454.33316336820263"
"","canvas-keyboard-response","112","153543","0.0-6.0-1.15","61","","","","","clear_screen","null","null","","","catch","sw","sh","l","180","200","209","219","206","247","spektor","null","null","null","null","null","null","null","null","null","null","null","","180","200","260","200","36000","52000","[2,3]","508.25443923970715","149.0725123490988","454.33316336820263"
"","canvas-keyboard-response","113","154052","0.0-6.0-2.15","61","","","","","rectangles no change","null","null","","","catch","sw","sh","l","180","200","209","219","206","247","spektor","null","null","null","null","null","null","null","null","null","null","null","","180","200","260","200","36000","52000","[2,3]","508.25443923970715","149.0725123490988","454.33316336820263"
"","canvas-keyboard-response","114","155387","0.0-6.0-3.15","61","","","","","rectangles with change","null","null","","","catch","sw","sh","l","180","200","209","219","206","247","spektor","null","null","null","null","null","null","null","null","null","null","null","","180","200","260","200","36000","52000","[2,3]","508.25443923970715","149.0725123490988","454.33316336820263"
"","canvas-keyboard-response","115","155411","0.0-6.0-4.15","61","","","","","clear_screen","null","null","","","catch","sw","sh","l","180","200","209","219","206","247","spektor","null","null","null","null","null","null","null","null","null","null","null","","180","200","260","200","36000","52000","[2,3]","508.25443923970715","149.0725123490988","454.33316336820263"
"","canvas-keyboard-response","116","156265","0.0-6.0-5.15","61","","","","","make choice","848","3","","","catch","sw","sh","l","180","200","209","219","206","247","spektor","null","null","null","null","null","null","null","null","null","null","null","","180","200","260","200","36000","52000","[2,3]","","",""
"","canvas-keyboard-response","117","156283","0.0-6.0-6.15","61","","","","","clear_screen","null","null","","","catch","sw","sh","l","180","200","209","219","206","247","spektor","null","null","null","null","null","null","null","null","null","null","null","","180","200","260","200","36000","52000","[2,3]","","",""
"","canvas-keyboard-response","118","156485","0.0-6.0-0.16","61","","","","","pre trial waiting period","null","null","","","critical","t","c","d","240","164","164","240","220.0396","154.6796","spektor","0.14","w","240","164","164","240","220.0396","154.6796","39360","39360","34035.6388","dc","null","null","null","null","null","null","[3,2]","531.4698627232187","126.15903960312598","502.1252691975718"
"","canvas-keyboard-response","119","156507","0.0-6.0-1.16","61","","","","","clear_screen","null","null","","","critical","t","c","d","240","164","164","240","220.0396","154.6796","spektor","0.14","w","240","164","164","240","220.0396","154.6796","39360","39360","34035.6388","dc","null","null","null","null","null","null","[3,2]","531.4698627232187","126.15903960312598","502.1252691975718"
"","canvas-keyboard-response","120","157015","0.0-6.0-2.16","61","","","","","rectangles no change","null","null","","","critical","t","c","d","240","164","164","240","220.0396","154.6796","spektor","0.14","w","240","164","164","240","220.0396","154.6796","39360","39360","34035.6388","dc","null","null","null","null","null","null","[3,2]","531.4698627232187","126.15903960312598","502.1252691975718"
"","canvas-keyboard-response","121","158354","0.0-6.0-3.16","61","","","","","rectangles with change","null","null","","","critical","t","c","d","240","164","164","240","220.0396","154.6796","spektor","0.14","w","240","164","164","240","220.0396","154.6796","39360","39360","34035.6388","dc","null","null","null","null","null","null","[3,2]","531.4698627232187","126.15903960312598","502.1252691975718"
"","canvas-keyboard-response","122","158373","0.0-6.0-4.16","61","","","","","clear_screen","null","null","","","critical","t","c","d","240","164","164","240","220.0396","154.6796","spektor","0.14","w","240","164","164","240","220.0396","154.6796","39360","39360","34035.6388","dc","null","null","null","null","null","null","[3,2]","531.4698627232187","126.15903960312598","502.1252691975718"
"","canvas-keyboard-response","123","158834","0.0-6.0-5.16","61","","","","","make choice","453","3","","","critical","t","c","d","240","164","164","240","220.0396","154.6796","spektor","0.14","w","240","164","164","240","220.0396","154.6796","39360","39360","34035.6388","dc","null","null","null","null","null","null","[3,2]","","",""
"","canvas-keyboard-response","124","158854","0.0-6.0-6.16","61","","","","","clear_screen","null","null","","","critical","t","c","d","240","164","164","240","220.0396","154.6796","spektor","0.14","w","240","164","164","240","220.0396","154.6796","39360","39360","34035.6388","dc","null","null","null","null","null","null","[3,2]","","",""
"","canvas-keyboard-response","125","159055","0.0-6.0-0.17","61","","","","","pre trial waiting period","null","null","","","catch","sw","l","sh","180","200","261","194","182","192","trueblood","null","null","null","null","null","null","null","null","null","null","null","","180","200","260","200","36000","52000","[1,2]","472.23090661073144","467.936477338203","476.93166490714674"
"","canvas-keyboard-response","126","159074","0.0-6.0-1.17","61","","","","","clear_screen","null","null","","","catch","sw","l","sh","180","200","261","194","182","192","trueblood","null","null","null","null","null","null","null","null","null","null","null","","180","200","260","200","36000","52000","[1,2]","472.23090661073144","467.936477338203","476.93166490714674"
"","canvas-keyboard-response","127","159581","0.0-6.0-2.17","61","","","","","rectangles no change","null","null","","","catch","sw","l","sh","180","200","261","194","182","192","trueblood","null","null","null","null","null","null","null","null","null","null","null","","180","200","260","200","36000","52000","[1,2]","472.23090661073144","467.936477338203","476.93166490714674"
"","canvas-keyboard-response","128","160917","0.0-6.0-3.17","61","","","","","rectangles with change","null","null","","","catch","sw","l","sh","180","200","261","194","182","192","trueblood","null","null","null","null","null","null","null","null","null","null","null","","180","200","260","200","36000","52000","[1,2]","472.23090661073144","467.936477338203","476.93166490714674"
"","canvas-keyboard-response","129","160938","0.0-6.0-4.17","61","","","","","clear_screen","null","null","","","catch","sw","l","sh","180","200","261","194","182","192","trueblood","null","null","null","null","null","null","null","null","null","null","null","","180","200","260","200","36000","52000","[1,2]","472.23090661073144","467.936477338203","476.93166490714674"
"","canvas-keyboard-response","130","161304","0.0-6.0-5.17","61","","","","","make choice","362","2","","","catch","sw","l","sh","180","200","261","194","182","192","trueblood","null","null","null","null","null","null","null","null","null","null","null","","180","200","260","200","36000","52000","[1,2]","","",""
"","canvas-keyboard-response","131","161323","0.0-6.0-6.17","61","","","","","clear_screen","null","null","","","catch","sw","l","sh","180","200","261","194","182","192","trueblood","null","null","null","null","null","null","null","null","null","null","null","","180","200","260","200","36000","52000","[1,2]","","",""
"","canvas-keyboard-response","132","161524","0.0-6.0-0.18","61","","","","","pre trial waiting period","null","null","","","catch","sh","sw","l","210","143","160","195","240","205","spektor","null","null","null","null","null","null","null","null","null","null","null","","180","200","260","200","36000","52000","[2,3]","534.2206228960248","193.27537934657983","513.2441075354171"
"","canvas-keyboard-response","133","161547","0.0-6.0-1.18","61","","","","","clear_screen","null","null","","","catch","sh","sw","l","210","143","160","195","240","205","spektor","null","null","null","null","null","null","null","null","null","null","null","","180","200","260","200","36000","52000","[2,3]","534.2206228960248","193.27537934657983","513.2441075354171"
"","canvas-keyboard-response","134","162059","0.0-6.0-2.18","61","","","","","rectangles no change","null","null","","","catch","sh","sw","l","210","143","160","195","240","205","spektor","null","null","null","null","null","null","null","null","null","null","null","","180","200","260","200","36000","52000","[2,3]","534.2206228960248","193.27537934657983","513.2441075354171"
"","canvas-keyboard-response","135","163395","0.0-6.0-3.18","61","","","","","rectangles with change","null","null","","","catch","sh","sw","l","210","143","160","195","240","205","spektor","null","null","null","null","null","null","null","null","null","null","null","","180","200","260","200","36000","52000","[2,3]","534.2206228960248","193.27537934657983","513.2441075354171"
"","canvas-keyboard-response","136","163414","0.0-6.0-4.18","61","","","","","clear_screen","null","null","","","catch","sh","sw","l","210","143","160","195","240","205","spektor","null","null","null","null","null","null","null","null","null","null","null","","180","200","260","200","36000","52000","[2,3]","534.2206228960248","193.27537934657983","513.2441075354171"
"","canvas-keyboard-response","137","163913","0.0-6.0-5.18","61","","","","","make choice","494","3","","","catch","sh","sw","l","210","143","160","195","240","205","spektor","null","null","null","null","null","null","null","null","null","null","null","","180","200","260","200","36000","52000","[2,3]","","",""
"","canvas-keyboard-response","138","163932","0.0-6.0-6.18","61","","","","","clear_screen","null","null","","","catch","sh","sw","l","210","143","160","195","240","205","spektor","null","null","null","null","null","null","null","null","null","null","null","","180","200","260","200","36000","52000","[2,3]","","",""
"","canvas-keyboard-response","139","164133","0.0-6.0-0.19","61","","","","","pre trial waiting period","null","null","","","critical","d","c","t","160.6713","232.8713","240","164","164","240","spektor","0.05","h","164","240","240","164","160.6713","232.8713","39360","39360","37415.7294","td","null","null","null","null","null","null","[3,1]","507.4035411164937","181.97237949482715","473.9238870858416"
"","canvas-keyboard-response","140","164155","0.0-6.0-1.19","61","","","","","clear_screen","null","null","","","critical","d","c","t","160.6713","232.8713","240","164","164","240","spektor","0.05","h","164","240","240","164","160.6713","232.8713","39360","39360","37415.7294","td","null","null","null","null","null","null","[3,1]","507.4035411164937","181.97237949482715","473.9238870858416"
"","canvas-keyboard-response","141","164663","0.0-6.0-2.19","61","","","","","rectangles no change","null","null","","","critical","d","c","t","160.6713","232.8713","240","164","164","240","spektor","0.05","h","164","240","240","164","160.6713","232.8713","39360","39360","37415.7294","td","null","null","null","null","null","null","[3,1]","507.4035411164937","181.97237949482715","473.9238870858416"
"","canvas-keyboard-response","142","166003","0.0-6.0-3.19","61","","","","","rectangles with change","null","null","","","critical","d","c","t","160.6713","232.8713","240","164","164","240","spektor","0.05","h","164","240","240","164","160.6713","232.8713","39360","39360","37415.7294","td","null","null","null","null","null","null","[3,1]","507.4035411164937","181.97237949482715","473.9238870858416"
"","canvas-keyboard-response","143","166026","0.0-6.0-4.19","61","","","","","clear_screen","null","null","","","critical","d","c","t","160.6713","232.8713","240","164","164","240","spektor","0.05","h","164","240","240","164","160.6713","232.8713","39360","39360","37415.7294","td","null","null","null","null","null","null","[3,1]","507.4035411164937","181.97237949482715","473.9238870858416"
"","canvas-keyboard-response","144","166719","0.0-6.0-5.19","61","","","","","make choice","686","3","","","critical","d","c","t","160.6713","232.8713","240","164","164","240","spektor","0.05","h","164","240","240","164","160.6713","232.8713","39360","39360","37415.7294","td","null","null","null","null","null","null","[3,1]","","",""
"","canvas-keyboard-response","145","166742","0.0-6.0-6.19","61","","","","","clear_screen","null","null","","","critical","d","c","t","160.6713","232.8713","240","164","164","240","spektor","0.05","h","164","240","240","164","160.6713","232.8713","39360","39360","37415.7294","td","null","null","null","null","null","null","[3,1]","","",""
"","canvas-keyboard-response","146","166942","0.0-6.0-0.20","61","","","","","pre trial waiting period","null","null","","","catch","sh","l","sw","166","182","231","221","180","218","spektor","null","null","null","null","null","null","null","null","null","null","null","","180","200","260","200","36000","52000","[2,3]","494.6292347225308","150.92963874005056","476.2355299691519"
"","canvas-keyboard-response","147","166963","0.0-6.0-1.20","61","","","","","clear_screen","null","null","","","catch","sh","l","sw","166","182","231","221","180","218","spektor","null","null","null","null","null","null","null","null","null","null","null","","180","200","260","200","36000","52000","[2,3]","494.6292347225308","150.92963874005056","476.2355299691519"
"","canvas-keyboard-response","148","167471","0.0-6.0-2.20","61","","","","","rectangles no change","null","null","","","catch","sh","l","sw","166","182","231","221","180","218","spektor","null","null","null","null","null","null","null","null","null","null","null","","180","200","260","200","36000","52000","[2,3]","494.6292347225308","150.92963874005056","476.2355299691519"
"","canvas-keyboard-response","149","168807","0.0-6.0-3.20","61","","","","","rectangles with change","null","null","","","catch","sh","l","sw","166","182","231","221","180","218","spektor","null","null","null","null","null","null","null","null","null","null","null","","180","200","260","200","36000","52000","[2,3]","494.6292347225308","150.92963874005056","476.2355299691519"
"","canvas-keyboard-response","150","168825","0.0-6.0-4.20","61","","","","","clear_screen","null","null","","","catch","sh","l","sw","166","182","231","221","180","218","spektor","null","null","null","null","null","null","null","null","null","null","null","","180","200","260","200","36000","52000","[2,3]","494.6292347225308","150.92963874005056","476.2355299691519"
"","canvas-keyboard-response","151","169345","0.0-6.0-5.20","61","","","","","make choice","512","2","","","catch","sh","l","sw","166","182","231","221","180","218","spektor","null","null","null","null","null","null","null","null","null","null","null","","180","200","260","200","36000","52000","[2,3]","","",""
"","canvas-keyboard-response","152","169364","0.0-6.0-6.20","61","","","","","clear_screen","null","null","","","catch","sh","l","sw","166","182","231","221","180","218","spektor","null","null","null","null","null","null","null","null","null","null","null","","180","200","260","200","36000","52000","[2,3]","","",""
"","canvas-keyboard-response","153","169565","0.0-6.0-0.21","61","","","","","pre trial waiting period","null","null","","","critical","t","d","c","164","240","154.6796","220.0396","240","164","trueblood","0.14","h","164","240","240","164","154.6796","220.0396","39360","39360","34035.6388","dc","null","null","null","null","null","null","[2,3]","442.10560217986136","471.5028148115031","471.32815452497505"
"","canvas-keyboard-response","154","169584","0.0-6.0-1.21","61","","","","","clear_screen","null","null","","","critical","t","d","c","164","240","154.6796","220.0396","240","164","trueblood","0.14","h","164","240","240","164","154.6796","220.0396","39360","39360","34035.6388","dc","null","null","null","null","null","null","[2,3]","442.10560217986136","471.5028148115031","471.32815452497505"
"","canvas-keyboard-response","155","170091","0.0-6.0-2.21","61","","","","","rectangles no change","null","null","","","critical","t","d","c","164","240","154.6796","220.0396","240","164","trueblood","0.14","h","164","240","240","164","154.6796","220.0396","39360","39360","34035.6388","dc","null","null","null","null","null","null","[2,3]","442.10560217986136","471.5028148115031","471.32815452497505"
"","canvas-keyboard-response","156","171426","0.0-6.0-3.21","61","","","","","rectangles with change","null","null","","","critical","t","d","c","164","240","154.6796","220.0396","240","164","trueblood","0.14","h","164","240","240","164","154.6796","220.0396","39360","39360","34035.6388","dc","null","null","null","null","null","null","[2,3]","442.10560217986136","471.5028148115031","471.32815452497505"
"","canvas-keyboard-response","157","171450","0.0-6.0-4.21","61","","","","","clear_screen","null","null","","","critical","t","d","c","164","240","154.6796","220.0396","240","164","trueblood","0.14","h","164","240","240","164","154.6796","220.0396","39360","39360","34035.6388","dc","null","null","null","null","null","null","[2,3]","442.10560217986136","471.5028148115031","471.32815452497505"
"","canvas-keyboard-response","158","171608","0.0-6.0-5.21","61","","","","","make choice","147","3","","","critical","t","d","c","164","240","154.6796","220.0396","240","164","trueblood","0.14","h","164","240","240","164","154.6796","220.0396","39360","39360","34035.6388","dc","null","null","null","null","null","null","[2,3]","","",""
"","canvas-keyboard-response","159","171627","0.0-6.0-6.21","61","","","","","clear_screen","null","null","","","critical","t","d","c","164","240","154.6796","220.0396","240","164","trueblood","0.14","h","164","240","240","164","154.6796","220.0396","39360","39360","34035.6388","dc","null","null","null","null","null","null","[2,3]","","",""
"","canvas-keyboard-response","160","171829","0.0-6.0-0.22","61","","","","","pre trial waiting period","null","null","","","critical","t","c","d","240","164","164","240","240","164","spektor","0","w","240","164","164","240","240","164","39360","39360","39360","dc","null","null","null","null","null","null","[3,2]","493.6064198259038","132.77998442649775","542.6799364250638"
"","canvas-keyboard-response","161","171851","0.0-6.0-1.22","61","","","","","clear_screen","null","null","","","critical","t","c","d","240","164","164","240","240","164","spektor","0","w","240","164","164","240","240","164","39360","39360","39360","dc","null","null","null","null","null","null","[3,2]","493.6064198259038","132.77998442649775","542.6799364250638"
"","canvas-keyboard-response","162","172359","0.0-6.0-2.22","61","","","","","rectangles no change","null","null","","","critical","t","c","d","240","164","164","240","240","164","spektor","0","w","240","164","164","240","240","164","39360","39360","39360","dc","null","null","null","null","null","null","[3,2]","493.6064198259038","132.77998442649775","542.6799364250638"
"","canvas-keyboard-response","163","173695","0.0-6.0-3.22","61","","","","","rectangles with change","null","null","","","critical","t","c","d","240","164","164","240","240","164","spektor","0","w","240","164","164","240","240","164","39360","39360","39360","dc","null","null","null","null","null","null","[3,2]","493.6064198259038","132.77998442649775","542.6799364250638"
"","canvas-keyboard-response","164","173716","0.0-6.0-4.22","61","","","","","clear_screen","null","null","","","critical","t","c","d","240","164","164","240","240","164","spektor","0","w","240","164","164","240","240","164","39360","39360","39360","dc","null","null","null","null","null","null","[3,2]","493.6064198259038","132.77998442649775","542.6799364250638"
"","canvas-keyboard-response","165","176529","0.0-6.0-5.22","61","","","","","make choice","2806","3","","","critical","t","c","d","240","164","164","240","240","164","spektor","0","w","240","164","164","240","240","164","39360","39360","39360","dc","null","null","null","null","null","null","[3,2]","","",""
"","canvas-keyboard-response","166","176547","0.0-6.0-6.22","61","","","","","clear_screen","null","null","","","critical","t","c","d","240","164","164","240","240","164","spektor","0","w","240","164","164","240","240","164","39360","39360","39360","dc","null","null","null","null","null","null","[3,2]","","",""
"","canvas-keyboard-response","167","176748","0.0-6.0-0.23","61","","","","","pre trial waiting period","null","null","","","catch","sw","sh","l","180","200","223","217","200","284","spektor","null","null","null","null","null","null","null","null","null","null","null","","180","200","260","200","36000","52000","[2,3]","478.22843888360387","118.76234869496426","444.3627166120763"
"","canvas-keyboard-response","168","176768","0.0-6.0-1.23","61","","","","","clear_screen","null","null","","","catch","sw","sh","l","180","200","223","217","200","284","spektor","null","null","null","null","null","null","null","null","null","null","null","","180","200","260","200","36000","52000","[2,3]","478.22843888360387","118.76234869496426","444.3627166120763"
"","canvas-keyboard-response","169","177277","0.0-6.0-2.23","61","","","","","rectangles no change","null","null","","","catch","sw","sh","l","180","200","223","217","200","284","spektor","null","null","null","null","null","null","null","null","null","null","null","","180","200","260","200","36000","52000","[2,3]","478.22843888360387","118.76234869496426","444.3627166120763"
"","canvas-keyboard-response","170","178615","0.0-6.0-3.23","61","","","","","rectangles with change","null","null","","","catch","sw","sh","l","180","200","223","217","200","284","spektor","null","null","null","null","null","null","null","null","null","null","null","","180","200","260","200","36000","52000","[2,3]","478.22843888360387","118.76234869496426","444.3627166120763"
"","canvas-keyboard-response","171","178635","0.0-6.0-4.23","61","","","","","clear_screen","null","null","","","catch","sw","sh","l","180","200","223","217","200","284","spektor","null","null","null","null","null","null","null","null","null","null","null","","180","200","260","200","36000","52000","[2,3]","478.22843888360387","118.76234869496426","444.3627166120763"
"","canvas-keyboard-response","172","179088","0.0-6.0-5.23","61","","","","","make choice","444","3","","","catch","sw","sh","l","180","200","223","217","200","284","spektor","null","null","null","null","null","null","null","null","null","null","null","","180","200","260","200","36000","52000","[2,3]","","",""
"","canvas-keyboard-response","173","179112","0.0-6.0-6.23","61","","","","","clear_screen","null","null","","","catch","sw","sh","l","180","200","223","217","200","284","spektor","null","null","null","null","null","null","null","null","null","null","null","","180","200","260","200","36000","52000","[2,3]","","",""
"","canvas-keyboard-response","174","179313","0.0-6.0-0.24","61","","","","","pre trial waiting period","null","null","","","catch","sh","l","sw","231","190","268","165","160","205","trueblood","null","null","null","null","null","null","null","null","null","null","null","","180","200","260","200","36000","52000","[1,2]","465.45639979682653","501.1065426049357","462.9292742529216"
"","canvas-keyboard-response","175","179331","0.0-6.0-1.24","61","","","","","clear_screen","null","null","","","catch","sh","l","sw","231","190","268","165","160","205","trueblood","null","null","null","null","null","null","null","null","null","null","null","","180","200","260","200","36000","52000","[1,2]","465.45639979682653","501.1065426049357","462.9292742529216"
"","canvas-keyboard-response","176","179840","0.0-6.0-2.24","61","","","","","rectangles no change","null","null","","","catch","sh","l","sw","231","190","268","165","160","205","trueblood","null","null","null","null","null","null","null","null","null","null","null","","180","200","260","200","36000","52000","[1,2]","465.45639979682653","501.1065426049357","462.9292742529216"
"","canvas-keyboard-response","177","181176","0.0-6.0-3.24","61","","","","","rectangles with change","null","null","","","catch","sh","l","sw","231","190","268","165","160","205","trueblood","null","null","null","null","null","null","null","null","null","null","null","","180","200","260","200","36000","52000","[1,2]","465.45639979682653","501.1065426049357","462.9292742529216"
"","canvas-keyboard-response","178","181195","0.0-6.0-4.24","61","","","","","clear_screen","null","null","","","catch","sh","l","sw","231","190","268","165","160","205","trueblood","null","null","null","null","null","null","null","null","null","null","null","","180","200","260","200","36000","52000","[1,2]","465.45639979682653","501.1065426049357","462.9292742529216"
"","canvas-keyboard-response","179","184362","0.0-6.0-5.24","61","","","","","make choice","3158","2","","","catch","sh","l","sw","231","190","268","165","160","205","trueblood","null","null","null","null","null","null","null","null","null","null","null","","180","200","260","200","36000","52000","[1,2]","","",""
"","canvas-keyboard-response","180","184379","0.0-6.0-6.24","61","","","","","clear_screen","null","null","","","catch","sh","l","sw","231","190","268","165","160","205","trueblood","null","null","null","null","null","null","null","null","null","null","null","","180","200","260","200","36000","52000","[1,2]","","",""
"","canvas-keyboard-response","181","184580","0.0-6.0-0.25","61","","","","","pre trial waiting period","null","null","","","critical","t","c","d","240","164","164","240","220.0396","154.6796","trueblood","0.14","w","240","164","164","240","220.0396","154.6796","39360","39360","34035.6388","td","null","null","null","null","null","null","[1,3]","482.4534391496719","442.9580679279425","508.9310971997513"
"","canvas-keyboard-response","182","184604","0.0-6.0-1.25","61","","","","","clear_screen","null","null","","","critical","t","c","d","240","164","164","240","220.0396","154.6796","trueblood","0.14","w","240","164","164","240","220.0396","154.6796","39360","39360","34035.6388","td","null","null","null","null","null","null","[1,3]","482.4534391496719","442.9580679279425","508.9310971997513"
"","canvas-keyboard-response","183","185112","0.0-6.0-2.25","61","","","","","rectangles no change","null","null","","","critical","t","c","d","240","164","164","240","220.0396","154.6796","trueblood","0.14","w","240","164","164","240","220.0396","154.6796","39360","39360","34035.6388","td","null","null","null","null","null","null","[1,3]","482.4534391496719","442.9580679279425","508.9310971997513"
"","canvas-keyboard-response","184","186449","0.0-6.0-3.25","61","","","","","rectangles with change","null","null","","","critical","t","c","d","240","164","164","240","220.0396","154.6796","trueblood","0.14","w","240","164","164","240","220.0396","154.6796","39360","39360","34035.6388","td","null","null","null","null","null","null","[1,3]","482.4534391496719","442.9580679279425","508.9310971997513"
"","canvas-keyboard-response","185","186471","0.0-6.0-4.25","61","","","","","clear_screen","null","null","","","critical","t","c","d","240","164","164","240","220.0396","154.6796","trueblood","0.14","w","240","164","164","240","220.0396","154.6796","39360","39360","34035.6388","td","null","null","null","null","null","null","[1,3]","482.4534391496719","442.9580679279425","508.9310971997513"
"","canvas-keyboard-response","186","187193","0.0-6.0-5.25","61","","","","","make choice","717","1","","","critical","t","c","d","240","164","164","240","220.0396","154.6796","trueblood","0.14","w","240","164","164","240","220.0396","154.6796","39360","39360","34035.6388","td","null","null","null","null","null","null","[1,3]","","",""
"","canvas-keyboard-response","187","187210","0.0-6.0-6.25","61","","","","","clear_screen","null","null","","","critical","t","c","d","240","164","164","240","220.0396","154.6796","trueblood","0.14","w","240","164","164","240","220.0396","154.6796","39360","39360","34035.6388","td","null","null","null","null","null","null","[1,3]","","",""
"","canvas-keyboard-response","188","187412","0.0-6.0-0.26","61","","","","","pre trial waiting period","null","null","","","catch","l","sh","sw","249","218","172","195","194","190","trueblood","null","null","null","null","null","null","null","null","null","null","null","","180","200","260","200","36000","52000","[1,3]","440.15351198415766","462.2178665414602","487.69973654532134"
"","canvas-keyboard-response","189","187435","0.0-6.0-1.26","61","","","","","clear_screen","null","null","","","catch","l","sh","sw","249","218","172","195","194","190","trueblood","null","null","null","null","null","null","null","null","null","null","null","","180","200","260","200","36000","52000","[1,3]","440.15351198415766","462.2178665414602","487.69973654532134"
"","canvas-keyboard-response","190","187943","0.0-6.0-2.26","61","","","","","rectangles no change","null","null","","","catch","l","sh","sw","249","218","172","195","194","190","trueblood","null","null","null","null","null","null","null","null","null","null","null","","180","200","260","200","36000","52000","[1,3]","440.15351198415766","462.2178665414602","487.69973654532134"
"","canvas-keyboard-response","191","189280","0.0-6.0-3.26","61","","","","","rectangles with change","null","null","","","catch","l","sh","sw","249","218","172","195","194","190","trueblood","null","null","null","null","null","null","null","null","null","null","null","","180","200","260","200","36000","52000","[1,3]","440.15351198415766","462.2178665414602","487.69973654532134"
"","canvas-keyboard-response","192","189299","0.0-6.0-4.26","61","","","","","clear_screen","null","null","","","catch","l","sh","sw","249","218","172","195","194","190","trueblood","null","null","null","null","null","null","null","null","null","null","null","","180","200","260","200","36000","52000","[1,3]","440.15351198415766","462.2178665414602","487.69973654532134"
"","canvas-keyboard-response","193","189840","0.0-6.0-5.26","61","","","","","make choice","535","1","","","catch","l","sh","sw","249","218","172","195","194","190","trueblood","null","null","null","null","null","null","null","null","null","null","null","","180","200","260","200","36000","52000","[1,3]","","",""
"","canvas-keyboard-response","194","189859","0.0-6.0-6.26","61","","","","","clear_screen","null","null","","","catch","l","sh","sw","249","218","172","195","194","190","trueblood","null","null","null","null","null","null","null","null","null","null","null","","180","200","260","200","36000","52000","[1,3]","","",""
"","canvas-keyboard-response","195","190061","0.0-6.0-0.27","61","","","","","pre trial waiting period","null","null","","","critical","d","t","c","237.1485","162.6685","240","164","164","240","trueblood","0.02","w","240","164","164","240","237.1485","162.6685","39360","39360","38576.5967","td","null","null","null","null","null","null","[2,1]","486.2459685363067","492.79916230799006","426.8436810047428"
"","canvas-keyboard-response","196","190080","0.0-6.0-1.27","61","","","","","clear_screen","null","null","","","critical","d","t","c","237.1485","162.6685","240","164","164","240","trueblood","0.02","w","240","164","164","240","237.1485","162.6685","39360","39360","38576.5967","td","null","null","null","null","null","null","[2,1]","486.2459685363067","492.79916230799006","426.8436810047428"
"","canvas-keyboard-response","197","190591","0.0-6.0-2.27","61","","","","","rectangles no change","null","null","","","critical","d","t","c","237.1485","162.6685","240","164","164","240","trueblood","0.02","w","240","164","164","240","237.1485","162.6685","39360","39360","38576.5967","td","null","null","null","null","null","null","[2,1]","486.2459685363067","492.79916230799006","426.8436810047428"
"","canvas-keyboard-response","198","191925","0.0-6.0-3.27","61","","","","","rectangles with change","null","null","","","critical","d","t","c","237.1485","162.6685","240","164","164","240","trueblood","0.02","w","240","164","164","240","237.1485","162.6685","39360","39360","38576.5967","td","null","null","null","null","null","null","[2,1]","486.2459685363067","492.79916230799006","426.8436810047428"
"","canvas-keyboard-response","199","191945","0.0-6.0-4.27","61","","","","","clear_screen","null","null","","","critical","d","t","c","237.1485","162.6685","240","164","164","240","trueblood","0.02","w","240","164","164","240","237.1485","162.6685","39360","39360","38576.5967","td","null","null","null","null","null","null","[2,1]","486.2459685363067","492.79916230799006","426.8436810047428"
"","canvas-keyboard-response","200","192305","0.0-6.0-5.27","61","","","","","make choice","354","2","","","critical","d","t","c","237.1485","162.6685","240","164","164","240","trueblood","0.02","w","240","164","164","240","237.1485","162.6685","39360","39360","38576.5967","td","null","null","null","null","null","null","[2,1]","","",""
"","canvas-keyboard-response","201","192323","0.0-6.0-6.27","61","","","","","clear_screen","null","null","","","critical","d","t","c","237.1485","162.6685","240","164","164","240","trueblood","0.02","w","240","164","164","240","237.1485","162.6685","39360","39360","38576.5967","td","null","null","null","null","null","null","[2,1]","","",""
"","canvas-keyboard-response","202","192524","0.0-6.0-0.28","61","","","","","pre trial waiting period","null","null","","","critical","d","t","c","237.1485","162.6685","240","164","164","240","trueblood","0.02","w","240","164","164","240","237.1485","162.6685","39360","39360","38576.5967","tc","null","null","null","null","null","null","[2,3]","504.00708471179934","508.7087866395386","456.7367724811326"
"","canvas-keyboard-response","203","192547","0.0-6.0-1.28","61","","","","","clear_screen","null","null","","","critical","d","t","c","237.1485","162.6685","240","164","164","240","trueblood","0.02","w","240","164","164","240","237.1485","162.6685","39360","39360","38576.5967","tc","null","null","null","null","null","null","[2,3]","504.00708471179934","508.7087866395386","456.7367724811326"
"","canvas-keyboard-response","204","193055","0.0-6.0-2.28","61","","","","","rectangles no change","null","null","","","critical","d","t","c","237.1485","162.6685","240","164","164","240","trueblood","0.02","w","240","164","164","240","237.1485","162.6685","39360","39360","38576.5967","tc","null","null","null","null","null","null","[2,3]","504.00708471179934","508.7087866395386","456.7367724811326"
"","canvas-keyboard-response","205","194394","0.0-6.0-3.28","61","","","","","rectangles with change","null","null","","","critical","d","t","c","237.1485","162.6685","240","164","164","240","trueblood","0.02","w","240","164","164","240","237.1485","162.6685","39360","39360","38576.5967","tc","null","null","null","null","null","null","[2,3]","504.00708471179934","508.7087866395386","456.7367724811326"
"","canvas-keyboard-response","206","194414","0.0-6.0-4.28","61","","","","","clear_screen","null","null","","","critical","d","t","c","237.1485","162.6685","240","164","164","240","trueblood","0.02","w","240","164","164","240","237.1485","162.6685","39360","39360","38576.5967","tc","null","null","null","null","null","null","[2,3]","504.00708471179934","508.7087866395386","456.7367724811326"
"","canvas-keyboard-response","207","195329","0.0-6.0-5.28","61","","","","","make choice","907","2","","","critical","d","t","c","237.1485","162.6685","240","164","164","240","trueblood","0.02","w","240","164","164","240","237.1485","162.6685","39360","39360","38576.5967","tc","null","null","null","null","null","null","[2,3]","","",""
"","canvas-keyboard-response","208","195348","0.0-6.0-6.28","61","","","","","clear_screen","null","null","","","critical","d","t","c","237.1485","162.6685","240","164","164","240","trueblood","0.02","w","240","164","164","240","237.1485","162.6685","39360","39360","38576.5967","tc","null","null","null","null","null","null","[2,3]","","",""
"","canvas-keyboard-response","209","195549","0.0-6.0-0.29","61","","","","","pre trial waiting period","null","null","","","catch","sh","l","sw","219","172","225","182","188","214","spektor","null","null","null","null","null","null","null","null","null","null","null","","180","200","260","200","36000","52000","[1,2]","515.4081622086937","156.0186716167658","474.53695978715785"
"","canvas-keyboard-response","210","195567","0.0-6.0-1.29","61","","","","","clear_screen","null","null","","","catch","sh","l","sw","219","172","225","182","188","214","spektor","null","null","null","null","null","null","null","null","null","null","null","","180","200","260","200","36000","52000","[1,2]","515.4081622086937","156.0186716167658","474.53695978715785"
"","canvas-keyboard-response","211","196076","0.0-6.0-2.29","61","","","","","rectangles no change","null","null","","","catch","sh","l","sw","219","172","225","182","188","214","spektor","null","null","null","null","null","null","null","null","null","null","null","","180","200","260","200","36000","52000","[1,2]","515.4081622086937","156.0186716167658","474.53695978715785"
"","canvas-keyboard-response","212","197415","0.0-6.0-3.29","61","","","","","rectangles with change","null","null","","","catch","sh","l","sw","219","172","225","182","188","214","spektor","null","null","null","null","null","null","null","null","null","null","null","","180","200","260","200","36000","52000","[1,2]","515.4081622086937","156.0186716167658","474.53695978715785"
"","canvas-keyboard-response","213","197433","0.0-6.0-4.29","61","","","","","clear_screen","null","null","","","catch","sh","l","sw","219","172","225","182","188","214","spektor","null","null","null","null","null","null","null","null","null","null","null","","180","200","260","200","36000","52000","[1,2]","515.4081622086937","156.0186716167658","474.53695978715785"
"","canvas-keyboard-response","214","198464","0.0-6.0-5.29","61","","","","","make choice","1025","1","","","catch","sh","l","sw","219","172","225","182","188","214","spektor","null","null","null","null","null","null","null","null","null","null","null","","180","200","260","200","36000","52000","[1,2]","","",""
"","canvas-keyboard-response","215","198482","0.0-6.0-6.29","61","","","","","clear_screen","null","null","","","catch","sh","l","sw","219","172","225","182","188","214","spektor","null","null","null","null","null","null","null","null","null","null","null","","180","200","260","200","36000","52000","[1,2]","","",""
"","canvas-keyboard-response","216","198682","0.0-6.0-0.30","61","","","","","pre trial waiting period","null","null","","","critical","t","c","d","164","240","240","164","162.6685","237.1485","trueblood","0.02","h","164","240","240","164","162.6685","237.1485","39360","39360","38576.5967","tc","null","null","null","null","null","null","[1,2]","425.0151769524532","504.64502323836837","427.6605617368094"
"","canvas-keyboard-response","217","198702","0.0-6.0-1.30","61","","","","","clear_screen","null","null","","","critical","t","c","d","164","240","240","164","162.6685","237.1485","trueblood","0.02","h","164","240","240","164","162.6685","237.1485","39360","39360","38576.5967","tc","null","null","null","null","null","null","[1,2]","425.0151769524532","504.64502323836837","427.6605617368094"
"","canvas-keyboard-response","218","199212","0.0-6.0-2.30","61","","","","","rectangles no change","null","null","","","critical","t","c","d","164","240","240","164","162.6685","237.1485","trueblood","0.02","h","164","240","240","164","162.6685","237.1485","39360","39360","38576.5967","tc","null","null","null","null","null","null","[1,2]","425.0151769524532","504.64502323836837","427.6605617368094"
"","canvas-keyboard-response","219","200550","0.0-6.0-3.30","61","","","","","rectangles with change","null","null","","","critical","t","c","d","164","240","240","164","162.6685","237.1485","trueblood","0.02","h","164","240","240","164","162.6685","237.1485","39360","39360","38576.5967","tc","null","null","null","null","null","null","[1,2]","425.0151769524532","504.64502323836837","427.6605617368094"
"","canvas-keyboard-response","220","200569","0.0-6.0-4.30","61","","","","","clear_screen","null","null","","","critical","t","c","d","164","240","240","164","162.6685","237.1485","trueblood","0.02","h","164","240","240","164","162.6685","237.1485","39360","39360","38576.5967","tc","null","null","null","null","null","null","[1,2]","425.0151769524532","504.64502323836837","427.6605617368094"
"","canvas-keyboard-response","221","201066","0.0-6.0-5.30","61","","","","","make choice","490","2","","","critical","t","c","d","164","240","240","164","162.6685","237.1485","trueblood","0.02","h","164","240","240","164","162.6685","237.1485","39360","39360","38576.5967","tc","null","null","null","null","null","null","[1,2]","","",""
"","canvas-keyboard-response","222","201083","0.0-6.0-6.30","61","","","","","clear_screen","null","null","","","critical","t","c","d","164","240","240","164","162.6685","237.1485","trueblood","0.02","h","164","240","240","164","162.6685","237.1485","39360","39360","38576.5967","tc","null","null","null","null","null","null","[1,2]","","",""
"","canvas-keyboard-response","223","201284","0.0-6.0-0.31","61","","","","","pre trial waiting period","null","null","","","critical","t","d","c","240","164","227.1683","158.0083","164","240","spektor","0.09","w","240","164","164","240","227.1683","158.0083","39360","39360","35894.4834","td","null","null","null","null","null","null","[1,2]","493.2361075451264","218.3899314530584","484.8238572089542"
"","canvas-keyboard-response","224","201305","0.0-6.0-1.31","61","","","","","clear_screen","null","null","","","critical","t","d","c","240","164","227.1683","158.0083","164","240","spektor","0.09","w","240","164","164","240","227.1683","158.0083","39360","39360","35894.4834","td","null","null","null","null","null","null","[1,2]","493.2361075451264","218.3899314530584","484.8238572089542"
"","canvas-keyboard-response","225","201813","0.0-6.0-2.31","61","","","","","rectangles no change","null","null","","","critical","t","d","c","240","164","227.1683","158.0083","164","240","spektor","0.09","w","240","164","164","240","227.1683","158.0083","39360","39360","35894.4834","td","null","null","null","null","null","null","[1,2]","493.2361075451264","218.3899314530584","484.8238572089542"
"","canvas-keyboard-response","226","203152","0.0-6.0-3.31","61","","","","","rectangles with change","null","null","","","critical","t","d","c","240","164","227.1683","158.0083","164","240","spektor","0.09","w","240","164","164","240","227.1683","158.0083","39360","39360","35894.4834","td","null","null","null","null","null","null","[1,2]","493.2361075451264","218.3899314530584","484.8238572089542"
"","canvas-keyboard-response","227","203175","0.0-6.0-4.31","61","","","","","clear_screen","null","null","","","critical","t","d","c","240","164","227.1683","158.0083","164","240","spektor","0.09","w","240","164","164","240","227.1683","158.0083","39360","39360","35894.4834","td","null","null","null","null","null","null","[1,2]","493.2361075451264","218.3899314530584","484.8238572089542"
"","canvas-keyboard-response","228","203633","0.0-6.0-5.31","61","","","","","make choice","451","1","","","critical","t","d","c","240","164","227.1683","158.0083","164","240","spektor","0.09","w","240","164","164","240","227.1683","158.0083","39360","39360","35894.4834","td","null","null","null","null","null","null","[1,2]","","",""
"","canvas-keyboard-response","229","203651","0.0-6.0-6.31","61","","","","","clear_screen","null","null","","","critical","t","d","c","240","164","227.1683","158.0083","164","240","spektor","0.09","w","240","164","164","240","227.1683","158.0083","39360","39360","35894.4834","td","null","null","null","null","null","null","[1,2]","","",""
"","canvas-keyboard-response","230","203852","0.0-6.0-0.32","61","","","","","pre trial waiting period","null","null","","","critical","c","d","t","240","164","154.6796","220.0396","164","240","spektor","0.14","h","164","240","240","164","154.6796","220.0396","39360","39360","34035.6388","dc","null","null","null","null","null","null","[2,1]","519.8244380442119","153.33668318430995","495.05646153987755"
"","canvas-keyboard-response","231","203871","0.0-6.0-1.32","61","","","","","clear_screen","null","null","","","critical","c","d","t","240","164","154.6796","220.0396","164","240","spektor","0.14","h","164","240","240","164","154.6796","220.0396","39360","39360","34035.6388","dc","null","null","null","null","null","null","[2,1]","519.8244380442119","153.33668318430995","495.05646153987755"
"","canvas-keyboard-response","232","204378","0.0-6.0-2.32","61","","","","","rectangles no change","null","null","","","critical","c","d","t","240","164","154.6796","220.0396","164","240","spektor","0.14","h","164","240","240","164","154.6796","220.0396","39360","39360","34035.6388","dc","null","null","null","null","null","null","[2,1]","519.8244380442119","153.33668318430995","495.05646153987755"
"","canvas-keyboard-response","233","205714","0.0-6.0-3.32","61","","","","","rectangles with change","null","null","","","critical","c","d","t","240","164","154.6796","220.0396","164","240","spektor","0.14","h","164","240","240","164","154.6796","220.0396","39360","39360","34035.6388","dc","null","null","null","null","null","null","[2,1]","519.8244380442119","153.33668318430995","495.05646153987755"
"","canvas-keyboard-response","234","205735","0.0-6.0-4.32","61","","","","","clear_screen","null","null","","","critical","c","d","t","240","164","154.6796","220.0396","164","240","spektor","0.14","h","164","240","240","164","154.6796","220.0396","39360","39360","34035.6388","dc","null","null","null","null","null","null","[2,1]","519.8244380442119","153.33668318430995","495.05646153987755"
"","canvas-keyboard-response","235","206273","0.0-6.0-5.32","61","","","","","make choice","529","1","","","critical","c","d","t","240","164","154.6796","220.0396","164","240","spektor","0.14","h","164","240","240","164","154.6796","220.0396","39360","39360","34035.6388","dc","null","null","null","null","null","null","[2,1]","","",""
"","canvas-keyboard-response","236","206291","0.0-6.0-6.32","61","","","","","clear_screen","null","null","","","critical","c","d","t","240","164","154.6796","220.0396","164","240","spektor","0.14","h","164","240","240","164","154.6796","220.0396","39360","39360","34035.6388","dc","null","null","null","null","null","null","[2,1]","","",""
"","canvas-keyboard-response","237","206492","0.0-6.0-0.33","61","","","","","pre trial waiting period","null","null","","","critical","c","t","d","164","240","240","164","232.8713","160.6713","trueblood","0.05","w","240","164","164","240","232.8713","160.6713","39360","39360","37415.7294","td","null","null","null","null","null","null","[2,3]","436.1265831585083","513.4664418412954","512.3375542748638"
"","canvas-keyboard-response","238","206512","0.0-6.0-1.33","61","","","","","clear_screen","null","null","","","critical","c","t","d","164","240","240","164","232.8713","160.6713","trueblood","0.05","w","240","164","164","240","232.8713","160.6713","39360","39360","37415.7294","td","null","null","null","null","null","null","[2,3]","436.1265831585083","513.4664418412954","512.3375542748638"
"","canvas-keyboard-response","239","207020","0.0-6.0-2.33","61","","","","","rectangles no change","null","null","","","critical","c","t","d","164","240","240","164","232.8713","160.6713","trueblood","0.05","w","240","164","164","240","232.8713","160.6713","39360","39360","37415.7294","td","null","null","null","null","null","null","[2,3]","436.1265831585083","513.4664418412954","512.3375542748638"
"","canvas-keyboard-response","240","208358","0.0-6.0-3.33","61","","","","","rectangles with change","null","null","","","critical","c","t","d","164","240","240","164","232.8713","160.6713","trueblood","0.05","w","240","164","164","240","232.8713","160.6713","39360","39360","37415.7294","td","null","null","null","null","null","null","[2,3]","436.1265831585083","513.4664418412954","512.3375542748638"
"","canvas-keyboard-response","241","208376","0.0-6.0-4.33","61","","","","","clear_screen","null","null","","","critical","c","t","d","164","240","240","164","232.8713","160.6713","trueblood","0.05","w","240","164","164","240","232.8713","160.6713","39360","39360","37415.7294","td","null","null","null","null","null","null","[2,3]","436.1265831585083","513.4664418412954","512.3375542748638"
"","canvas-keyboard-response","242","209185","0.0-6.0-5.33","61","","","","","make choice","803","2","","","critical","c","t","d","164","240","240","164","232.8713","160.6713","trueblood","0.05","w","240","164","164","240","232.8713","160.6713","39360","39360","37415.7294","td","null","null","null","null","null","null","[2,3]","","",""
"","canvas-keyboard-response","243","209205","0.0-6.0-6.33","61","","","","","clear_screen","null","null","","","critical","c","t","d","164","240","240","164","232.8713","160.6713","trueblood","0.05","w","240","164","164","240","232.8713","160.6713","39360","39360","37415.7294","td","null","null","null","null","null","null","[2,3]","","",""
"","canvas-keyboard-response","244","209406","0.0-6.0-0.34","61","","","","","pre trial waiting period","null","null","","","catch","l","sh","sw","250","202","221","160","203","186","trueblood","null","null","null","null","null","null","null","null","null","null","null","","180","200","260","200","36000","52000","[1,2]","459.80808878294977","496.0239217199","475.7790605625577"
"","canvas-keyboard-response","245","209428","0.0-6.0-1.34","61","","","","","clear_screen","null","null","","","catch","l","sh","sw","250","202","221","160","203","186","trueblood","null","null","null","null","null","null","null","null","null","null","null","","180","200","260","200","36000","52000","[1,2]","459.80808878294977","496.0239217199","475.7790605625577"
"","canvas-keyboard-response","246","209935","0.0-6.0-2.34","61","","","","","rectangles no change","null","null","","","catch","l","sh","sw","250","202","221","160","203","186","trueblood","null","null","null","null","null","null","null","null","null","null","null","","180","200","260","200","36000","52000","[1,2]","459.80808878294977","496.0239217199","475.7790605625577"
"","canvas-keyboard-response","247","211274","0.0-6.0-3.34","61","","","","","rectangles with change","null","null","","","catch","l","sh","sw","250","202","221","160","203","186","trueblood","null","null","null","null","null","null","null","null","null","null","null","","180","200","260","200","36000","52000","[1,2]","459.80808878294977","496.0239217199","475.7790605625577"
"","canvas-keyboard-response","248","211293","0.0-6.0-4.34","61","","","","","clear_screen","null","null","","","catch","l","sh","sw","250","202","221","160","203","186","trueblood","null","null","null","null","null","null","null","null","null","null","null","","180","200","260","200","36000","52000","[1,2]","459.80808878294977","496.0239217199","475.7790605625577"
"","canvas-keyboard-response","249","214065","0.0-6.0-5.34","61","","","","","make choice","2764","1","","","catch","l","sh","sw","250","202","221","160","203","186","trueblood","null","null","null","null","null","null","null","null","null","null","null","","180","200","260","200","36000","52000","[1,2]","","",""
"","canvas-keyboard-response","250","214084","0.0-6.0-6.34","61","","","","","clear_screen","null","null","","","catch","l","sh","sw","250","202","221","160","203","186","trueblood","null","null","null","null","null","null","null","null","null","null","null","","180","200","260","200","36000","52000","[1,2]","","",""
"","canvas-keyboard-response","251","214285","0.0-6.0-0.35","61","","","","","pre trial waiting period","null","null","","","critical","d","c","t","237.1485","162.6685","164","240","240","164","spektor","0.02","w","240","164","164","240","237.1485","162.6685","39360","39360","38576.5967","dc","null","null","null","null","null","null","[1,2]","528.391837703359","150.45668032116168","540.7730803744646"
"","canvas-keyboard-response","252","214308","0.0-6.0-1.35","61","","","","","clear_screen","null","null","","","critical","d","c","t","237.1485","162.6685","164","240","240","164","spektor","0.02","w","240","164","164","240","237.1485","162.6685","39360","39360","38576.5967","dc","null","null","null","null","null","null","[1,2]","528.391837703359","150.45668032116168","540.7730803744646"
"","canvas-keyboard-response","253","214815","0.0-6.0-2.35","61","","","","","rectangles no change","null","null","","","critical","d","c","t","237.1485","162.6685","164","240","240","164","spektor","0.02","w","240","164","164","240","237.1485","162.6685","39360","39360","38576.5967","dc","null","null","null","null","null","null","[1,2]","528.391837703359","150.45668032116168","540.7730803744646"
"","canvas-keyboard-response","254","216151","0.0-6.0-3.35","61","","","","","rectangles with change","null","null","","","critical","d","c","t","237.1485","162.6685","164","240","240","164","spektor","0.02","w","240","164","164","240","237.1485","162.6685","39360","39360","38576.5967","dc","null","null","null","null","null","null","[1,2]","528.391837703359","150.45668032116168","540.7730803744646"
"","canvas-keyboard-response","255","216169","0.0-6.0-4.35","61","","","","","clear_screen","null","null","","","critical","d","c","t","237.1485","162.6685","164","240","240","164","spektor","0.02","w","240","164","164","240","237.1485","162.6685","39360","39360","38576.5967","dc","null","null","null","null","null","null","[1,2]","528.391837703359","150.45668032116168","540.7730803744646"
"","canvas-keyboard-response","256","216553","0.0-6.0-5.35","61","","","","","make choice","376","1","","","critical","d","c","t","237.1485","162.6685","164","240","240","164","spektor","0.02","w","240","164","164","240","237.1485","162.6685","39360","39360","38576.5967","dc","null","null","null","null","null","null","[1,2]","","",""
"","canvas-keyboard-response","257","216569","0.0-6.0-6.35","61","","","","","clear_screen","null","null","","","critical","d","c","t","237.1485","162.6685","164","240","240","164","spektor","0.02","w","240","164","164","240","237.1485","162.6685","39360","39360","38576.5967","dc","null","null","null","null","null","null","[1,2]","","",""
"","canvas-keyboard-response","258","216771","0.0-6.0-0.36","61","","","","","pre trial waiting period","null","null","","","critical","c","d","t","240","164","158.0083","227.1683","164","240","trueblood","0.09","h","164","240","240","164","158.0083","227.1683","39360","39360","35894.4834","dc","null","null","null","null","null","null","[2,1]","498.75997528624254","438.6768879226265","427.8663161094636"
"","canvas-keyboard-response","259","216792","0.0-6.0-1.36","61","","","","","clear_screen","null","null","","","critical","c","d","t","240","164","158.0083","227.1683","164","240","trueblood","0.09","h","164","240","240","164","158.0083","227.1683","39360","39360","35894.4834","dc","null","null","null","null","null","null","[2,1]","498.75997528624254","438.6768879226265","427.8663161094636"
"","canvas-keyboard-response","260","217300","0.0-6.0-2.36","61","","","","","rectangles no change","null","null","","","critical","c","d","t","240","164","158.0083","227.1683","164","240","trueblood","0.09","h","164","240","240","164","158.0083","227.1683","39360","39360","35894.4834","dc","null","null","null","null","null","null","[2,1]","498.75997528624254","438.6768879226265","427.8663161094636"
"","canvas-keyboard-response","261","218638","0.0-6.0-3.36","61","","","","","rectangles with change","null","null","","","critical","c","d","t","240","164","158.0083","227.1683","164","240","trueblood","0.09","h","164","240","240","164","158.0083","227.1683","39360","39360","35894.4834","dc","null","null","null","null","null","null","[2,1]","498.75997528624254","438.6768879226265","427.8663161094636"
"","canvas-keyboard-response","262","218655","0.0-6.0-4.36","61","","","","","clear_screen","null","null","","","critical","c","d","t","240","164","158.0083","227.1683","164","240","trueblood","0.09","h","164","240","240","164","158.0083","227.1683","39360","39360","35894.4834","dc","null","null","null","null","null","null","[2,1]","498.75997528624254","438.6768879226265","427.8663161094636"
"","canvas-keyboard-response","263","220168","0.0-6.0-5.36","61","","","","","make choice","1504","1","","","critical","c","d","t","240","164","158.0083","227.1683","164","240","trueblood","0.09","h","164","240","240","164","158.0083","227.1683","39360","39360","35894.4834","dc","null","null","null","null","null","null","[2,1]","","",""
"","canvas-keyboard-response","264","220187","0.0-6.0-6.36","61","","","","","clear_screen","null","null","","","critical","c","d","t","240","164","158.0083","227.1683","164","240","trueblood","0.09","h","164","240","240","164","158.0083","227.1683","39360","39360","35894.4834","dc","null","null","null","null","null","null","[2,1]","","",""
"","canvas-keyboard-response","265","220388","0.0-6.0-0.37","61","","","","","pre trial waiting period","null","null","","","catch","sw","sh","l","180","200","239","179","170","262","trueblood","null","null","null","null","null","null","null","null","null","null","null","","180","200","260","200","36000","52000","[1,3]","461.37122492324187","489.6030089769364","454.11110564544487"
"","canvas-keyboard-response","266","220411","0.0-6.0-1.37","61","","","","","clear_screen","null","null","","","catch","sw","sh","l","180","200","239","179","170","262","trueblood","null","null","null","null","null","null","null","null","null","null","null","","180","200","260","200","36000","52000","[1,3]","461.37122492324187","489.6030089769364","454.11110564544487"
"","canvas-keyboard-response","267","220917","0.0-6.0-2.37","61","","","","","rectangles no change","null","null","","","catch","sw","sh","l","180","200","239","179","170","262","trueblood","null","null","null","null","null","null","null","null","null","null","null","","180","200","260","200","36000","52000","[1,3]","461.37122492324187","489.6030089769364","454.11110564544487"
"","canvas-keyboard-response","268","222254","0.0-6.0-3.37","61","","","","","rectangles with change","null","null","","","catch","sw","sh","l","180","200","239","179","170","262","trueblood","null","null","null","null","null","null","null","null","null","null","null","","180","200","260","200","36000","52000","[1,3]","461.37122492324187","489.6030089769364","454.11110564544487"
