"success","trial_type","trial_index","time_elapsed","internal_node_id","sub_n","timeout","failed_images","failed_audio","failed_video","screen_id","rt","response","stimulus","view_history","trial","r1","r2","r3","w1","h1","w2","h2","w3","h3","display","tdd","tdo","tw","th","cw","ch","dw","dh","ta","ca","da","probe","csls","csss","clls","clss","sa","la","probe_rects","r1yloc","r2yloc","r3yloc"
"true","fullscreen","0","3026","0.0-0.0","566","","","","","","","","","","","","","","","","","","","","","","","","","","","","","","","","","","","","","","","","","",""
"true","preload","1","3088","0.0-1.0","566","false","[]","[]","[]","img preload","","","","","","","","","","","","","","","","","","","","","","","","","","","","","","","","","","","","",""
"","survey-html-form","2","5165","0.0-2.0","566","","","","","enter-sub-number","2072","{""response"":""566""}","","","","","","","","","","","","","","","","","","","","","","","","","","","","","","","","","","",""
"","image-button-response","3","41916","0.0-3.0","566","","","","","","36684","0","consent.png","","","","","","","","","","","","","","","","","","","","","","","","","","","","","","","","","",""
"","html-button-response","4","50539","0.0-4.0","566","","","","","intro mssg","8618","0","<div style= ""font-size:25px;"" <p> <strong> Welcome! </strong><br> <p style=""color:#8B0000; font-size:25px;""><strong> Please do NOT exit full screen until you are done with the experiment. </strong> </p><p style=""font-size:25px;color:#8B0000;""> <strong> Your data will be lost <br> if you try to go back or refresh the page after the experiment starts. Feel free to click ""previous"" during the instructions, however.</strong> </p><br><p> <strong> Thanks in advance for your contribution to our research! </strong></p>","","","","","","","","","","","","","","","","","","","","","","","","","","","","","","","","","",""
"","instructions","5","95460","0.0-5.0","566","","","","","instructions","44914","","","[{""page_index"":0,""viewing_time"":6536},{""page_index"":1,""viewing_time"":8121},{""page_index"":2,""viewing_time"":4858},{""page_index"":3,""viewing_time"":9374},{""page_index"":4,""viewing_time"":8242},{""page_index"":5,""viewing_time"":3958},{""page_index"":6,""viewing_time"":2168},{""page_index"":7,""viewing_time"":1657}]","","","","","","","","","","","","","","","","","","","","","","","","","","","","","","","","",""
"","canvas-keyboard-response","6","95666","0.0-6.0-0.0","566","","","","","pre trial waiting period","null","null","","","critical","c","d","t","164","240","240","164","240","164","trueblood","0","w","240","164","164","240","240","164","39360","39360","39360","tc","null","null","null","null","null","null","[3,1]","424.9415213218863","503.77578717836445","507.2939946759253"
"","canvas-keyboard-response","7","95691","0.0-6.0-1.0","566","","","","","clear_screen","null","null","","","critical","c","d","t","164","240","240","164","240","164","trueblood","0","w","240","164","164","240","240","164","39360","39360","39360","tc","null","null","null","null","null","null","[3,1]","424.9415213218863","503.77578717836445","507.2939946759253"
"","canvas-keyboard-response","8","96227","0.0-6.0-2.0","566","","","","","rectangles no change","null","null","","","critical","c","d","t","164","240","240","164","240","164","trueblood","0","w","240","164","164","240","240","164","39360","39360","39360","tc","null","null","null","null","null","null","[3,1]","424.9415213218863","503.77578717836445","507.2939946759253"
"","canvas-keyboard-response","9","97563","0.0-6.0-3.0","566","","","","","rectangles with change","null","null","","","critical","c","d","t","164","240","240","164","240","164","trueblood","0","w","240","164","164","240","240","164","39360","39360","39360","tc","null","null","null","null","null","null","[3,1]","424.9415213218863","503.77578717836445","507.2939946759253"
"","canvas-keyboard-response","10","97582","0.0-6.0-4.0","566","","","","","clear_screen","null","null","","","critical","c","d","t","164","240","240","164","240","164","trueblood","0","w","240","164","164","240","240","164","39360","39360","39360","tc","null","null","null","null","null","null","[3,1]","424.9415213218863","503.77578717836445","507.2939946759253"
"","canvas-keyboard-response","11","98803","0.0-6.0-5.0","566","","","","","make choice","1213","1","","","critical","c","d","t","164","240","240","164","240","164","trueblood","0","w","240","164","164","240","240","164","39360","39360","39360","tc","null","null","null","null","null","null","[3,1]","","",""
"","canvas-keyboard-response","12","98821","0.0-6.0-6.0","566","","","","","clear_screen","null","null","","","critical","c","d","t","164","240","240","164","240","164","trueblood","0","w","240","164","164","240","240","164","39360","39360","39360","tc","null","null","null","null","null","null","[3,1]","","",""
"","canvas-keyboard-response","13","99022","0.0-6.0-0.1","566","","","","","pre trial waiting period","null","null","","","catch","l","sw","sh","238","195","176","177","207","141","trueblood","null","null","null","null","null","null","null","null","null","null","null","","180","200","260","200","36000","52000","[1,3]","468.987073050934","503.9670321444356","532.7582612683125"
"","canvas-keyboard-response","14","99041","0.0-6.0-1.1","566","","","","","clear_screen","null","null","","","catch","l","sw","sh","238","195","176","177","207","141","trueblood","null","null","null","null","null","null","null","null","null","null","null","","180","200","260","200","36000","52000","[1,3]","468.987073050934","503.9670321444356","532.7582612683125"
"","canvas-keyboard-response","15","99553","0.0-6.0-2.1","566","","","","","rectangles no change","null","null","","","catch","l","sw","sh","238","195","176","177","207","141","trueblood","null","null","null","null","null","null","null","null","null","null","null","","180","200","260","200","36000","52000","[1,3]","468.987073050934","503.9670321444356","532.7582612683125"
"","canvas-keyboard-response","16","100888","0.0-6.0-3.1","566","","","","","rectangles with change","null","null","","","catch","l","sw","sh","238","195","176","177","207","141","trueblood","null","null","null","null","null","null","null","null","null","null","null","","180","200","260","200","36000","52000","[1,3]","468.987073050934","503.9670321444356","532.7582612683125"
"","canvas-keyboard-response","17","100906","0.0-6.0-4.1","566","","","","","clear_screen","null","null","","","catch","l","sw","sh","238","195","176","177","207","141","trueblood","null","null","null","null","null","null","null","null","null","null","null","","180","200","260","200","36000","52000","[1,3]","468.987073050934","503.9670321444356","532.7582612683125"
"","canvas-keyboard-response","18","102290","0.0-6.0-5.1","566","","","","","make choice","1370","1","","","catch","l","sw","sh","238","195","176","177","207","141","trueblood","null","null","null","null","null","null","null","null","null","null","null","","180","200","260","200","36000","52000","[1,3]","","",""
"","canvas-keyboard-response","19","102307","0.0-6.0-6.1","566","","","","","clear_screen","null","null","","","catch","l","sw","sh","238","195","176","177","207","141","trueblood","null","null","null","null","null","null","null","null","null","null","null","","180","200","260","200","36000","52000","[1,3]","","",""
"","canvas-keyboard-response","20","102508","0.0-6.0-0.2","566","","","","","pre trial waiting period","null","null","","","catch","sh","sw","l","217","155","176","166","181","230","spektor","null","null","null","null","null","null","null","null","null","null","null","","180","200","260","200","36000","52000","[2,3]","506.8976955538029","174.05214212873574","498.67248590932616"
"","canvas-keyboard-response","21","102532","0.0-6.0-1.2","566","","","","","clear_screen","null","null","","","catch","sh","sw","l","217","155","176","166","181","230","spektor","null","null","null","null","null","null","null","null","null","null","null","","180","200","260","200","36000","52000","[2,3]","506.8976955538029","174.05214212873574","498.67248590932616"
"","canvas-keyboard-response","22","103039","0.0-6.0-2.2","566","","","","","rectangles no change","null","null","","","catch","sh","sw","l","217","155","176","166","181","230","spektor","null","null","null","null","null","null","null","null","null","null","null","","180","200","260","200","36000","52000","[2,3]","506.8976955538029","174.05214212873574","498.67248590932616"
"","canvas-keyboard-response","23","104377","0.0-6.0-3.2","566","","","","","rectangles with change","null","null","","","catch","sh","sw","l","217","155","176","166","181","230","spektor","null","null","null","null","null","null","null","null","null","null","null","","180","200","260","200","36000","52000","[2,3]","506.8976955538029","174.05214212873574","498.67248590932616"
"","canvas-keyboard-response","24","104397","0.0-6.0-4.2","566","","","","","clear_screen","null","null","","","catch","sh","sw","l","217","155","176","166","181","230","spektor","null","null","null","null","null","null","null","null","null","null","null","","180","200","260","200","36000","52000","[2,3]","506.8976955538029","174.05214212873574","498.67248590932616"
"","canvas-keyboard-response","25","105667","0.0-6.0-5.2","566","","","","","make choice","1265","3","","","catch","sh","sw","l","217","155","176","166","181","230","spektor","null","null","null","null","null","null","null","null","null","null","null","","180","200","260","200","36000","52000","[2,3]","","",""
"","canvas-keyboard-response","26","105687","0.0-6.0-6.2","566","","","","","clear_screen","null","null","","","catch","sh","sw","l","217","155","176","166","181","230","spektor","null","null","null","null","null","null","null","null","null","null","null","","180","200","260","200","36000","52000","[2,3]","","",""
"","canvas-keyboard-response","27","105889","0.0-6.0-0.3","566","","","","","pre trial waiting period","null","null","","","critical","t","d","c","240","164","220.0396","154.6796","164","240","trueblood","0.14","w","240","164","164","240","220.0396","154.6796","39360","39360","34035.6388","tc","null","null","null","null","null","null","[1,3]","501.1104320830564","507.9904573172863","458.23825283903807"
"","canvas-keyboard-response","28","105909","0.0-6.0-1.3","566","","","","","clear_screen","null","null","","","critical","t","d","c","240","164","220.0396","154.6796","164","240","trueblood","0.14","w","240","164","164","240","220.0396","154.6796","39360","39360","34035.6388","tc","null","null","null","null","null","null","[1,3]","501.1104320830564","507.9904573172863","458.23825283903807"
"","canvas-keyboard-response","29","106417","0.0-6.0-2.3","566","","","","","rectangles no change","null","null","","","critical","t","d","c","240","164","220.0396","154.6796","164","240","trueblood","0.14","w","240","164","164","240","220.0396","154.6796","39360","39360","34035.6388","tc","null","null","null","null","null","null","[1,3]","501.1104320830564","507.9904573172863","458.23825283903807"
"","canvas-keyboard-response","30","107755","0.0-6.0-3.3","566","","","","","rectangles with change","null","null","","","critical","t","d","c","240","164","220.0396","154.6796","164","240","trueblood","0.14","w","240","164","164","240","220.0396","154.6796","39360","39360","34035.6388","tc","null","null","null","null","null","null","[1,3]","501.1104320830564","507.9904573172863","458.23825283903807"
"","canvas-keyboard-response","31","107776","0.0-6.0-4.3","566","","","","","clear_screen","null","null","","","critical","t","d","c","240","164","220.0396","154.6796","164","240","trueblood","0.14","w","240","164","164","240","220.0396","154.6796","39360","39360","34035.6388","tc","null","null","null","null","null","null","[1,3]","501.1104320830564","507.9904573172863","458.23825283903807"
"","canvas-keyboard-response","32","109618","0.0-6.0-5.3","566","","","","","make choice","1834","3","","","critical","t","d","c","240","164","220.0396","154.6796","164","240","trueblood","0.14","w","240","164","164","240","220.0396","154.6796","39360","39360","34035.6388","tc","null","null","null","null","null","null","[1,3]","","",""
"","canvas-keyboard-response","33","109637","0.0-6.0-6.3","566","","","","","clear_screen","null","null","","","critical","t","d","c","240","164","220.0396","154.6796","164","240","trueblood","0.14","w","240","164","164","240","220.0396","154.6796","39360","39360","34035.6388","tc","null","null","null","null","null","null","[1,3]","","",""
"","canvas-keyboard-response","34","109839","0.0-6.0-0.4","566","","","","","pre trial waiting period","null","null","","","critical","c","t","d","240","164","164","240","164","240","spektor","0","h","164","240","240","164","164","240","39360","39360","39360","dc","null","null","null","null","null","null","[3,1]","493.23003838434397","135.0463835572604","457.65411459839083"
"","canvas-keyboard-response","35","109861","0.0-6.0-1.4","566","","","","","clear_screen","null","null","","","critical","c","t","d","240","164","164","240","164","240","spektor","0","h","164","240","240","164","164","240","39360","39360","39360","dc","null","null","null","null","null","null","[3,1]","493.23003838434397","135.0463835572604","457.65411459839083"
"","canvas-keyboard-response","36","110371","0.0-6.0-2.4","566","","","","","rectangles no change","null","null","","","critical","c","t","d","240","164","164","240","164","240","spektor","0","h","164","240","240","164","164","240","39360","39360","39360","dc","null","null","null","null","null","null","[3,1]","493.23003838434397","135.0463835572604","457.65411459839083"
"","canvas-keyboard-response","37","111705","0.0-6.0-3.4","566","","","","","rectangles with change","null","null","","","critical","c","t","d","240","164","164","240","164","240","spektor","0","h","164","240","240","164","164","240","39360","39360","39360","dc","null","null","null","null","null","null","[3,1]","493.23003838434397","135.0463835572604","457.65411459839083"
"","canvas-keyboard-response","38","111723","0.0-6.0-4.4","566","","","","","clear_screen","null","null","","","critical","c","t","d","240","164","164","240","164","240","spektor","0","h","164","240","240","164","164","240","39360","39360","39360","dc","null","null","null","null","null","null","[3,1]","493.23003838434397","135.0463835572604","457.65411459839083"
"","canvas-keyboard-response","39","113115","0.0-6.0-5.4","566","","","","","make choice","1386","3","","","critical","c","t","d","240","164","164","240","164","240","spektor","0","h","164","240","240","164","164","240","39360","39360","39360","dc","null","null","null","null","null","null","[3,1]","","",""
"","canvas-keyboard-response","40","113133","0.0-6.0-6.4","566","","","","","clear_screen","null","null","","","critical","c","t","d","240","164","164","240","164","240","spektor","0","h","164","240","240","164","164","240","39360","39360","39360","dc","null","null","null","null","null","null","[3,1]","","",""
"","canvas-keyboard-response","41","113334","0.0-6.0-0.5","566","","","","","pre trial waiting period","null","null","","","catch","sh","sw","l","235","164","201","204","216","222","trueblood","null","null","null","null","null","null","null","null","null","null","null","","180","200","260","200","36000","52000","[1,3]","495.97097340071286","447.83125870338006","445.40604232916945"
"","canvas-keyboard-response","42","113354","0.0-6.0-1.5","566","","","","","clear_screen","null","null","","","catch","sh","sw","l","235","164","201","204","216","222","trueblood","null","null","null","null","null","null","null","null","null","null","null","","180","200","260","200","36000","52000","[1,3]","495.97097340071286","447.83125870338006","445.40604232916945"
"","canvas-keyboard-response","43","113862","0.0-6.0-2.5","566","","","","","rectangles no change","null","null","","","catch","sh","sw","l","235","164","201","204","216","222","trueblood","null","null","null","null","null","null","null","null","null","null","null","","180","200","260","200","36000","52000","[1,3]","495.97097340071286","447.83125870338006","445.40604232916945"
"","canvas-keyboard-response","44","115200","0.0-6.0-3.5","566","","","","","rectangles with change","null","null","","","catch","sh","sw","l","235","164","201","204","216","222","trueblood","null","null","null","null","null","null","null","null","null","null","null","","180","200","260","200","36000","52000","[1,3]","495.97097340071286","447.83125870338006","445.40604232916945"
"","canvas-keyboard-response","45","115220","0.0-6.0-4.5","566","","","","","clear_screen","null","null","","","catch","sh","sw","l","235","164","201","204","216","222","trueblood","null","null","null","null","null","null","null","null","null","null","null","","180","200","260","200","36000","52000","[1,3]","495.97097340071286","447.83125870338006","445.40604232916945"
"","canvas-keyboard-response","46","115994","0.0-6.0-5.5","566","","","","","make choice","770","3","","","catch","sh","sw","l","235","164","201","204","216","222","trueblood","null","null","null","null","null","null","null","null","null","null","null","","180","200","260","200","36000","52000","[1,3]","","",""
"","canvas-keyboard-response","47","116012","0.0-6.0-6.5","566","","","","","clear_screen","null","null","","","catch","sh","sw","l","235","164","201","204","216","222","trueblood","null","null","null","null","null","null","null","null","null","null","null","","180","200","260","200","36000","52000","[1,3]","","",""
"","canvas-keyboard-response","48","116212","0.0-6.0-0.6","566","","","","","pre trial waiting period","null","null","","","critical","t","d","c","164","240","164","240","240","164","trueblood","0","h","164","240","240","164","164","240","39360","39360","39360","tc","null","null","null","null","null","null","[1,3]","466.2327552725258","424.32258888642957","493.7885747982289"
"","canvas-keyboard-response","49","116232","0.0-6.0-1.6","566","","","","","clear_screen","null","null","","","critical","t","d","c","164","240","164","240","240","164","trueblood","0","h","164","240","240","164","164","240","39360","39360","39360","tc","null","null","null","null","null","null","[1,3]","466.2327552725258","424.32258888642957","493.7885747982289"
"","canvas-keyboard-response","50","116738","0.0-6.0-2.6","566","","","","","rectangles no change","null","null","","","critical","t","d","c","164","240","164","240","240","164","trueblood","0","h","164","240","240","164","164","240","39360","39360","39360","tc","null","null","null","null","null","null","[1,3]","466.2327552725258","424.32258888642957","493.7885747982289"
"","canvas-keyboard-response","51","118076","0.0-6.0-3.6","566","","","","","rectangles with change","null","null","","","critical","t","d","c","164","240","164","240","240","164","trueblood","0","h","164","240","240","164","164","240","39360","39360","39360","tc","null","null","null","null","null","null","[1,3]","466.2327552725258","424.32258888642957","493.7885747982289"
"","canvas-keyboard-response","52","118098","0.0-6.0-4.6","566","","","","","clear_screen","null","null","","","critical","t","d","c","164","240","164","240","240","164","trueblood","0","h","164","240","240","164","164","240","39360","39360","39360","tc","null","null","null","null","null","null","[1,3]","466.2327552725258","424.32258888642957","493.7885747982289"
"","canvas-keyboard-response","53","120978","0.0-6.0-5.6","566","","","","","make choice","2874","1","","","critical","t","d","c","164","240","164","240","240","164","trueblood","0","h","164","240","240","164","164","240","39360","39360","39360","tc","null","null","null","null","null","null","[1,3]","","",""
"","canvas-keyboard-response","54","120997","0.0-6.0-6.6","566","","","","","clear_screen","null","null","","","critical","t","d","c","164","240","164","240","240","164","trueblood","0","h","164","240","240","164","164","240","39360","39360","39360","tc","null","null","null","null","null","null","[1,3]","","",""
"","canvas-keyboard-response","55","121199","0.0-6.0-0.7","566","","","","","pre trial waiting period","null","null","","","critical","t","d","c","164","240","162.6685","237.1485","240","164","spektor","0.02","h","164","240","240","164","162.6685","237.1485","39360","39360","38576.5967","tc","null","null","null","null","null","null","[1,3]","476.2895311851789","99.7641756691919","540.9402497825236"
"","canvas-keyboard-response","56","121220","0.0-6.0-1.7","566","","","","","clear_screen","null","null","","","critical","t","d","c","164","240","162.6685","237.1485","240","164","spektor","0.02","h","164","240","240","164","162.6685","237.1485","39360","39360","38576.5967","tc","null","null","null","null","null","null","[1,3]","476.2895311851789","99.7641756691919","540.9402497825236"
"","canvas-keyboard-response","57","121727","0.0-6.0-2.7","566","","","","","rectangles no change","null","null","","","critical","t","d","c","164","240","162.6685","237.1485","240","164","spektor","0.02","h","164","240","240","164","162.6685","237.1485","39360","39360","38576.5967","tc","null","null","null","null","null","null","[1,3]","476.2895311851789","99.7641756691919","540.9402497825236"
"","canvas-keyboard-response","58","123063","0.0-6.0-3.7","566","","","","","rectangles with change","null","null","","","critical","t","d","c","164","240","162.6685","237.1485","240","164","spektor","0.02","h","164","240","240","164","162.6685","237.1485","39360","39360","38576.5967","tc","null","null","null","null","null","null","[1,3]","476.2895311851789","99.7641756691919","540.9402497825236"
"","canvas-keyboard-response","59","123085","0.0-6.0-4.7","566","","","","","clear_screen","null","null","","","critical","t","d","c","164","240","162.6685","237.1485","240","164","spektor","0.02","h","164","240","240","164","162.6685","237.1485","39360","39360","38576.5967","tc","null","null","null","null","null","null","[1,3]","476.2895311851789","99.7641756691919","540.9402497825236"
"","canvas-keyboard-response","60","124826","0.0-6.0-5.7","566","","","","","make choice","1736","1","","","critical","t","d","c","164","240","162.6685","237.1485","240","164","spektor","0.02","h","164","240","240","164","162.6685","237.1485","39360","39360","38576.5967","tc","null","null","null","null","null","null","[1,3]","","",""
"","canvas-keyboard-response","61","124843","0.0-6.0-6.7","566","","","","","clear_screen","null","null","","","critical","t","d","c","164","240","162.6685","237.1485","240","164","spektor","0.02","h","164","240","240","164","162.6685","237.1485","39360","39360","38576.5967","tc","null","null","null","null","null","null","[1,3]","","",""
"","canvas-keyboard-response","62","125044","0.0-6.0-0.8","566","","","","","pre trial waiting period","null","null","","","critical","t","d","c","240","164","232.8713","160.6713","164","240","trueblood","0.05","w","240","164","164","240","232.8713","160.6713","39360","39360","37415.7294","dc","null","null","null","null","null","null","[2,3]","485.8696534247695","475.3504394490108","463.28179658242414"
"","canvas-keyboard-response","63","125068","0.0-6.0-1.8","566","","","","","clear_screen","null","null","","","critical","t","d","c","240","164","232.8713","160.6713","164","240","trueblood","0.05","w","240","164","164","240","232.8713","160.6713","39360","39360","37415.7294","dc","null","null","null","null","null","null","[2,3]","485.8696534247695","475.3504394490108","463.28179658242414"
"","canvas-keyboard-response","64","125575","0.0-6.0-2.8","566","","","","","rectangles no change","null","null","","","critical","t","d","c","240","164","232.8713","160.6713","164","240","trueblood","0.05","w","240","164","164","240","232.8713","160.6713","39360","39360","37415.7294","dc","null","null","null","null","null","null","[2,3]","485.8696534247695","475.3504394490108","463.28179658242414"
"","canvas-keyboard-response","65","126915","0.0-6.0-3.8","566","","","","","rectangles with change","null","null","","","critical","t","d","c","240","164","232.8713","160.6713","164","240","trueblood","0.05","w","240","164","164","240","232.8713","160.6713","39360","39360","37415.7294","dc","null","null","null","null","null","null","[2,3]","485.8696534247695","475.3504394490108","463.28179658242414"
"","canvas-keyboard-response","66","126936","0.0-6.0-4.8","566","","","","","clear_screen","null","null","","","critical","t","d","c","240","164","232.8713","160.6713","164","240","trueblood","0.05","w","240","164","164","240","232.8713","160.6713","39360","39360","37415.7294","dc","null","null","null","null","null","null","[2,3]","485.8696534247695","475.3504394490108","463.28179658242414"
"","canvas-keyboard-response","67","127594","0.0-6.0-5.8","566","","","","","make choice","650","3","","","critical","t","d","c","240","164","232.8713","160.6713","164","240","trueblood","0.05","w","240","164","164","240","232.8713","160.6713","39360","39360","37415.7294","dc","null","null","null","null","null","null","[2,3]","","",""
"","canvas-keyboard-response","68","127614","0.0-6.0-6.8","566","","","","","clear_screen","null","null","","","critical","t","d","c","240","164","232.8713","160.6713","164","240","trueblood","0.05","w","240","164","164","240","232.8713","160.6713","39360","39360","37415.7294","dc","null","null","null","null","null","null","[2,3]","","",""
"","canvas-keyboard-response","69","127815","0.0-6.0-0.9","566","","","","","pre trial waiting period","null","null","","","critical","c","t","d","240","164","164","240","164","240","spektor","0","h","164","240","240","164","164","240","39360","39360","39360","td","null","null","null","null","null","null","[2,3]","515.32393234092","117.47923780446274","471.4764827272236"
"","canvas-keyboard-response","70","127834","0.0-6.0-1.9","566","","","","","clear_screen","null","null","","","critical","c","t","d","240","164","164","240","164","240","spektor","0","h","164","240","240","164","164","240","39360","39360","39360","td","null","null","null","null","null","null","[2,3]","515.32393234092","117.47923780446274","471.4764827272236"
"","canvas-keyboard-response","71","128343","0.0-6.0-2.9","566","","","","","rectangles no change","null","null","","","critical","c","t","d","240","164","164","240","164","240","spektor","0","h","164","240","240","164","164","240","39360","39360","39360","td","null","null","null","null","null","null","[2,3]","515.32393234092","117.47923780446274","471.4764827272236"
"","canvas-keyboard-response","72","129678","0.0-6.0-3.9","566","","","","","rectangles with change","null","null","","","critical","c","t","d","240","164","164","240","164","240","spektor","0","h","164","240","240","164","164","240","39360","39360","39360","td","null","null","null","null","null","null","[2,3]","515.32393234092","117.47923780446274","471.4764827272236"
"","canvas-keyboard-response","73","129695","0.0-6.0-4.9","566","","","","","clear_screen","null","null","","","critical","c","t","d","240","164","164","240","164","240","spektor","0","h","164","240","240","164","164","240","39360","39360","39360","td","null","null","null","null","null","null","[2,3]","515.32393234092","117.47923780446274","471.4764827272236"
"","canvas-keyboard-response","74","131186","0.0-6.0-5.9","566","","","","","make choice","1484","3","","","critical","c","t","d","240","164","164","240","164","240","spektor","0","h","164","240","240","164","164","240","39360","39360","39360","td","null","null","null","null","null","null","[2,3]","","",""
"","canvas-keyboard-response","75","131203","0.0-6.0-6.9","566","","","","","clear_screen","null","null","","","critical","c","t","d","240","164","164","240","164","240","spektor","0","h","164","240","240","164","164","240","39360","39360","39360","td","null","null","null","null","null","null","[2,3]","","",""
"","canvas-keyboard-response","76","131404","0.0-6.0-0.10","566","","","","","pre trial waiting period","null","null","","","critical","c","t","d","240","164","164","240","160.6713","232.8713","trueblood","0.05","h","164","240","240","164","160.6713","232.8713","39360","39360","37415.7294","td","null","null","null","null","null","null","[2,3]","490.2919592450425","460.48130198394523","450.80779585565847"
"","canvas-keyboard-response","77","131424","0.0-6.0-1.10","566","","","","","clear_screen","null","null","","","critical","c","t","d","240","164","164","240","160.6713","232.8713","trueblood","0.05","h","164","240","240","164","160.6713","232.8713","39360","39360","37415.7294","td","null","null","null","null","null","null","[2,3]","490.2919592450425","460.48130198394523","450.80779585565847"
"","canvas-keyboard-response","78","131931","0.0-6.0-2.10","566","","","","","rectangles no change","null","null","","","critical","c","t","d","240","164","164","240","160.6713","232.8713","trueblood","0.05","h","164","240","240","164","160.6713","232.8713","39360","39360","37415.7294","td","null","null","null","null","null","null","[2,3]","490.2919592450425","460.48130198394523","450.80779585565847"
"","canvas-keyboard-response","79","133268","0.0-6.0-3.10","566","","","","","rectangles with change","null","null","","","critical","c","t","d","240","164","164","240","160.6713","232.8713","trueblood","0.05","h","164","240","240","164","160.6713","232.8713","39360","39360","37415.7294","td","null","null","null","null","null","null","[2,3]","490.2919592450425","460.48130198394523","450.80779585565847"
"","canvas-keyboard-response","80","133288","0.0-6.0-4.10","566","","","","","clear_screen","null","null","","","critical","c","t","d","240","164","164","240","160.6713","232.8713","trueblood","0.05","h","164","240","240","164","160.6713","232.8713","39360","39360","37415.7294","td","null","null","null","null","null","null","[2,3]","490.2919592450425","460.48130198394523","450.80779585565847"
"","canvas-keyboard-response","81","134489","0.0-6.0-5.10","566","","","","","make choice","1193","2","","","critical","c","t","d","240","164","164","240","160.6713","232.8713","trueblood","0.05","h","164","240","240","164","160.6713","232.8713","39360","39360","37415.7294","td","null","null","null","null","null","null","[2,3]","","",""
"","canvas-keyboard-response","82","134507","0.0-6.0-6.10","566","","","","","clear_screen","null","null","","","critical","c","t","d","240","164","164","240","160.6713","232.8713","trueblood","0.05","h","164","240","240","164","160.6713","232.8713","39360","39360","37415.7294","td","null","null","null","null","null","null","[2,3]","","",""
"","canvas-keyboard-response","83","134708","0.0-6.0-0.11","566","","","","","pre trial waiting period","null","null","","","critical","t","d","c","240","164","227.1683","158.0083","164","240","trueblood","0.09","w","240","164","164","240","227.1683","158.0083","39360","39360","35894.4834","td","null","null","null","null","null","null","[1,2]","475.1366999682099","510.7500588878551","435.07320076947633"
"","canvas-keyboard-response","84","134728","0.0-6.0-1.11","566","","","","","clear_screen","null","null","","","critical","t","d","c","240","164","227.1683","158.0083","164","240","trueblood","0.09","w","240","164","164","240","227.1683","158.0083","39360","39360","35894.4834","td","null","null","null","null","null","null","[1,2]","475.1366999682099","510.7500588878551","435.07320076947633"
"","canvas-keyboard-response","85","135234","0.0-6.0-2.11","566","","","","","rectangles no change","null","null","","","critical","t","d","c","240","164","227.1683","158.0083","164","240","trueblood","0.09","w","240","164","164","240","227.1683","158.0083","39360","39360","35894.4834","td","null","null","null","null","null","null","[1,2]","475.1366999682099","510.7500588878551","435.07320076947633"
"","canvas-keyboard-response","86","136568","0.0-6.0-3.11","566","","","","","rectangles with change","null","null","","","critical","t","d","c","240","164","227.1683","158.0083","164","240","trueblood","0.09","w","240","164","164","240","227.1683","158.0083","39360","39360","35894.4834","td","null","null","null","null","null","null","[1,2]","475.1366999682099","510.7500588878551","435.07320076947633"
"","canvas-keyboard-response","87","136588","0.0-6.0-4.11","566","","","","","clear_screen","null","null","","","critical","t","d","c","240","164","227.1683","158.0083","164","240","trueblood","0.09","w","240","164","164","240","227.1683","158.0083","39360","39360","35894.4834","td","null","null","null","null","null","null","[1,2]","475.1366999682099","510.7500588878551","435.07320076947633"
"","canvas-keyboard-response","88","137538","0.0-6.0-5.11","566","","","","","make choice","943","1","","","critical","t","d","c","240","164","227.1683","158.0083","164","240","trueblood","0.09","w","240","164","164","240","227.1683","158.0083","39360","39360","35894.4834","td","null","null","null","null","null","null","[1,2]","","",""
"","canvas-keyboard-response","89","137556","0.0-6.0-6.11","566","","","","","clear_screen","null","null","","","critical","t","d","c","240","164","227.1683","158.0083","164","240","trueblood","0.09","w","240","164","164","240","227.1683","158.0083","39360","39360","35894.4834","td","null","null","null","null","null","null","[1,2]","","",""
"","canvas-keyboard-response","90","137757","0.0-6.0-0.12","566","","","","","pre trial waiting period","null","null","","","critical","d","t","c","158.0083","227.1683","164","240","240","164","trueblood","0.09","h","164","240","240","164","158.0083","227.1683","39360","39360","35894.4834","tc","null","null","null","null","null","null","[2,3]","471.3836568449193","424.00672432719387","480.3043017856951"
"","canvas-keyboard-response","91","137776","0.0-6.0-1.12","566","","","","","clear_screen","null","null","","","critical","d","t","c","158.0083","227.1683","164","240","240","164","trueblood","0.09","h","164","240","240","164","158.0083","227.1683","39360","39360","35894.4834","tc","null","null","null","null","null","null","[2,3]","471.3836568449193","424.00672432719387","480.3043017856951"
"","canvas-keyboard-response","92","138285","0.0-6.0-2.12","566","","","","","rectangles no change","null","null","","","critical","d","t","c","158.0083","227.1683","164","240","240","164","trueblood","0.09","h","164","240","240","164","158.0083","227.1683","39360","39360","35894.4834","tc","null","null","null","null","null","null","[2,3]","471.3836568449193","424.00672432719387","480.3043017856951"
"","canvas-keyboard-response","93","139619","0.0-6.0-3.12","566","","","","","rectangles with change","null","null","","","critical","d","t","c","158.0083","227.1683","164","240","240","164","trueblood","0.09","h","164","240","240","164","158.0083","227.1683","39360","39360","35894.4834","tc","null","null","null","null","null","null","[2,3]","471.3836568449193","424.00672432719387","480.3043017856951"
"","canvas-keyboard-response","94","139640","0.0-6.0-4.12","566","","","","","clear_screen","null","null","","","critical","d","t","c","158.0083","227.1683","164","240","240","164","trueblood","0.09","h","164","240","240","164","158.0083","227.1683","39360","39360","35894.4834","tc","null","null","null","null","null","null","[2,3]","471.3836568449193","424.00672432719387","480.3043017856951"
"","canvas-keyboard-response","95","140474","0.0-6.0-5.12","566","","","","","make choice","828","2","","","critical","d","t","c","158.0083","227.1683","164","240","240","164","trueblood","0.09","h","164","240","240","164","158.0083","227.1683","39360","39360","35894.4834","tc","null","null","null","null","null","null","[2,3]","","",""
"","canvas-keyboard-response","96","140493","0.0-6.0-6.12","566","","","","","clear_screen","null","null","","","critical","d","t","c","158.0083","227.1683","164","240","240","164","trueblood","0.09","h","164","240","240","164","158.0083","227.1683","39360","39360","35894.4834","tc","null","null","null","null","null","null","[2,3]","","",""
"","canvas-keyboard-response","97","140694","0.0-6.0-0.13","566","","","","","pre trial waiting period","null","null","","","critical","c","d","t","240","164","154.6796","220.0396","164","240","trueblood","0.14","h","164","240","240","164","154.6796","220.0396","39360","39360","34035.6388","tc","null","null","null","null","null","null","[3,1]","505.4390140396873","443.21584355112316","425.6670931948093"
"","canvas-keyboard-response","98","140713","0.0-6.0-1.13","566","","","","","clear_screen","null","null","","","critical","c","d","t","240","164","154.6796","220.0396","164","240","trueblood","0.14","h","164","240","240","164","154.6796","220.0396","39360","39360","34035.6388","tc","null","null","null","null","null","null","[3,1]","505.4390140396873","443.21584355112316","425.6670931948093"
"","canvas-keyboard-response","99","141221","0.0-6.0-2.13","566","","","","","rectangles no change","null","null","","","critical","c","d","t","240","164","154.6796","220.0396","164","240","trueblood","0.14","h","164","240","240","164","154.6796","220.0396","39360","39360","34035.6388","tc","null","null","null","null","null","null","[3,1]","505.4390140396873","443.21584355112316","425.6670931948093"
"","canvas-keyboard-response","100","142556","0.0-6.0-3.13","566","","","","","rectangles with change","null","null","","","critical","c","d","t","240","164","154.6796","220.0396","164","240","trueblood","0.14","h","164","240","240","164","154.6796","220.0396","39360","39360","34035.6388","tc","null","null","null","null","null","null","[3,1]","505.4390140396873","443.21584355112316","425.6670931948093"
"","canvas-keyboard-response","101","142570","0.0-6.0-4.13","566","","","","","clear_screen","null","null","","","critical","c","d","t","240","164","154.6796","220.0396","164","240","trueblood","0.14","h","164","240","240","164","154.6796","220.0396","39360","39360","34035.6388","tc","null","null","null","null","null","null","[3,1]","505.4390140396873","443.21584355112316","425.6670931948093"
"","canvas-keyboard-response","102","143602","0.0-6.0-5.13","566","","","","","make choice","1024","1","","","critical","c","d","t","240","164","154.6796","220.0396","164","240","trueblood","0.14","h","164","240","240","164","154.6796","220.0396","39360","39360","34035.6388","tc","null","null","null","null","null","null","[3,1]","","",""
"","canvas-keyboard-response","103","143622","0.0-6.0-6.13","566","","","","","clear_screen","null","null","","","critical","c","d","t","240","164","154.6796","220.0396","164","240","trueblood","0.14","h","164","240","240","164","154.6796","220.0396","39360","39360","34035.6388","tc","null","null","null","null","null","null","[3,1]","","",""
"","canvas-keyboard-response","104","143823","0.0-6.0-0.14","566","","","","","pre trial waiting period","null","null","","","critical","t","d","c","240","164","237.1485","162.6685","164","240","spektor","0.02","w","240","164","164","240","237.1485","162.6685","39360","39360","38576.5967","td","null","null","null","null","null","null","[1,2]","538.6345451858231","210.54536917436047","495.53844614361094"
"","canvas-keyboard-response","105","143842","0.0-6.0-1.14","566","","","","","clear_screen","null","null","","","critical","t","d","c","240","164","237.1485","162.6685","164","240","spektor","0.02","w","240","164","164","240","237.1485","162.6685","39360","39360","38576.5967","td","null","null","null","null","null","null","[1,2]","538.6345451858231","210.54536917436047","495.53844614361094"
"","canvas-keyboard-response","106","144351","0.0-6.0-2.14","566","","","","","rectangles no change","null","null","","","critical","t","d","c","240","164","237.1485","162.6685","164","240","spektor","0.02","w","240","164","164","240","237.1485","162.6685","39360","39360","38576.5967","td","null","null","null","null","null","null","[1,2]","538.6345451858231","210.54536917436047","495.53844614361094"
"","canvas-keyboard-response","107","145689","0.0-6.0-3.14","566","","","","","rectangles with change","null","null","","","critical","t","d","c","240","164","237.1485","162.6685","164","240","spektor","0.02","w","240","164","164","240","237.1485","162.6685","39360","39360","38576.5967","td","null","null","null","null","null","null","[1,2]","538.6345451858231","210.54536917436047","495.53844614361094"
"","canvas-keyboard-response","108","145706","0.0-6.0-4.14","566","","","","","clear_screen","null","null","","","critical","t","d","c","240","164","237.1485","162.6685","164","240","spektor","0.02","w","240","164","164","240","237.1485","162.6685","39360","39360","38576.5967","td","null","null","null","null","null","null","[1,2]","538.6345451858231","210.54536917436047","495.53844614361094"
"","canvas-keyboard-response","109","146657","0.0-6.0-5.14","566","","","","","make choice","946","1","","","critical","t","d","c","240","164","237.1485","162.6685","164","240","spektor","0.02","w","240","164","164","240","237.1485","162.6685","39360","39360","38576.5967","td","null","null","null","null","null","null","[1,2]","","",""
"","canvas-keyboard-response","110","146677","0.0-6.0-6.14","566","","","","","clear_screen","null","null","","","critical","t","d","c","240","164","237.1485","162.6685","164","240","spektor","0.02","w","240","164","164","240","237.1485","162.6685","39360","39360","38576.5967","td","null","null","null","null","null","null","[1,2]","","",""
"","canvas-keyboard-response","111","146879","0.0-6.0-0.15","566","","","","","pre trial waiting period","null","null","","","critical","c","t","d","164","240","240","164","220.0396","154.6796","spektor","0.14","w","240","164","164","240","220.0396","154.6796","39360","39360","34035.6388","td","null","null","null","null","null","null","[2,3]","484.37959521419435","187.127170987235","514.3687138402591"
"","canvas-keyboard-response","112","146900","0.0-6.0-1.15","566","","","","","clear_screen","null","null","","","critical","c","t","d","164","240","240","164","220.0396","154.6796","spektor","0.14","w","240","164","164","240","220.0396","154.6796","39360","39360","34035.6388","td","null","null","null","null","null","null","[2,3]","484.37959521419435","187.127170987235","514.3687138402591"
"","canvas-keyboard-response","113","147407","0.0-6.0-2.15","566","","","","","rectangles no change","null","null","","","critical","c","t","d","164","240","240","164","220.0396","154.6796","spektor","0.14","w","240","164","164","240","220.0396","154.6796","39360","39360","34035.6388","td","null","null","null","null","null","null","[2,3]","484.37959521419435","187.127170987235","514.3687138402591"
"","canvas-keyboard-response","114","148737","0.0-6.0-3.15","566","","","","","rectangles with change","null","null","","","critical","c","t","d","164","240","240","164","220.0396","154.6796","spektor","0.14","w","240","164","164","240","220.0396","154.6796","39360","39360","34035.6388","td","null","null","null","null","null","null","[2,3]","484.37959521419435","187.127170987235","514.3687138402591"
"","canvas-keyboard-response","115","148756","0.0-6.0-4.15","566","","","","","clear_screen","null","null","","","critical","c","t","d","164","240","240","164","220.0396","154.6796","spektor","0.14","w","240","164","164","240","220.0396","154.6796","39360","39360","34035.6388","td","null","null","null","null","null","null","[2,3]","484.37959521419435","187.127170987235","514.3687138402591"
"","canvas-keyboard-response","116","149465","0.0-6.0-5.15","566","","","","","make choice","702","2","","","critical","c","t","d","164","240","240","164","220.0396","154.6796","spektor","0.14","w","240","164","164","240","220.0396","154.6796","39360","39360","34035.6388","td","null","null","null","null","null","null","[2,3]","","",""
"","canvas-keyboard-response","117","149484","0.0-6.0-6.15","566","","","","","clear_screen","null","null","","","critical","c","t","d","164","240","240","164","220.0396","154.6796","spektor","0.14","w","240","164","164","240","220.0396","154.6796","39360","39360","34035.6388","td","null","null","null","null","null","null","[2,3]","","",""
"","canvas-keyboard-response","118","149684","0.0-6.0-0.16","566","","","","","pre trial waiting period","null","null","","","catch","sh","sw","l","226","150","216","184","227","221","trueblood","null","null","null","null","null","null","null","null","null","null","null","","180","200","260","200","36000","52000","[2,3]","524.0573584216264","470.37647742707793","450.784070289135"
"","canvas-keyboard-response","119","149703","0.0-6.0-1.16","566","","","","","clear_screen","null","null","","","catch","sh","sw","l","226","150","216","184","227","221","trueblood","null","null","null","null","null","null","null","null","null","null","null","","180","200","260","200","36000","52000","[2,3]","524.0573584216264","470.37647742707793","450.784070289135"
"","canvas-keyboard-response","120","150212","0.0-6.0-2.16","566","","","","","rectangles no change","null","null","","","catch","sh","sw","l","226","150","216","184","227","221","trueblood","null","null","null","null","null","null","null","null","null","null","null","","180","200","260","200","36000","52000","[2,3]","524.0573584216264","470.37647742707793","450.784070289135"
"","canvas-keyboard-response","121","151547","0.0-6.0-3.16","566","","","","","rectangles with change","null","null","","","catch","sh","sw","l","226","150","216","184","227","221","trueblood","null","null","null","null","null","null","null","null","null","null","null","","180","200","260","200","36000","52000","[2,3]","524.0573584216264","470.37647742707793","450.784070289135"
"","canvas-keyboard-response","122","151566","0.0-6.0-4.16","566","","","","","clear_screen","null","null","","","catch","sh","sw","l","226","150","216","184","227","221","trueblood","null","null","null","null","null","null","null","null","null","null","null","","180","200","260","200","36000","52000","[2,3]","524.0573584216264","470.37647742707793","450.784070289135"
"","canvas-keyboard-response","123","152033","0.0-6.0-5.16","566","","","","","make choice","464","3","","","catch","sh","sw","l","226","150","216","184","227","221","trueblood","null","null","null","null","null","null","null","null","null","null","null","","180","200","260","200","36000","52000","[2,3]","","",""
"","canvas-keyboard-response","124","152055","0.0-6.0-6.16","566","","","","","clear_screen","null","null","","","catch","sh","sw","l","226","150","216","184","227","221","trueblood","null","null","null","null","null","null","null","null","null","null","null","","180","200","260","200","36000","52000","[2,3]","","",""
"","canvas-keyboard-response","125","152256","0.0-6.0-0.17","566","","","","","pre trial waiting period","null","null","","","critical","t","d","c","240","164","232.8713","160.6713","164","240","spektor","0.05","w","240","164","164","240","232.8713","160.6713","39360","39360","37415.7294","tc","null","null","null","null","null","null","[1,3]","538.6677723276373","177.66987640087692","476.16566285529353"
"","canvas-keyboard-response","126","152274","0.0-6.0-1.17","566","","","","","clear_screen","null","null","","","critical","t","d","c","240","164","232.8713","160.6713","164","240","spektor","0.05","w","240","164","164","240","232.8713","160.6713","39360","39360","37415.7294","tc","null","null","null","null","null","null","[1,3]","538.6677723276373","177.66987640087692","476.16566285529353"
"","canvas-keyboard-response","127","152784","0.0-6.0-2.17","566","","","","","rectangles no change","null","null","","","critical","t","d","c","240","164","232.8713","160.6713","164","240","spektor","0.05","w","240","164","164","240","232.8713","160.6713","39360","39360","37415.7294","tc","null","null","null","null","null","null","[1,3]","538.6677723276373","177.66987640087692","476.16566285529353"
"","canvas-keyboard-response","128","154121","0.0-6.0-3.17","566","","","","","rectangles with change","null","null","","","critical","t","d","c","240","164","232.8713","160.6713","164","240","spektor","0.05","w","240","164","164","240","232.8713","160.6713","39360","39360","37415.7294","tc","null","null","null","null","null","null","[1,3]","538.6677723276373","177.66987640087692","476.16566285529353"
"","canvas-keyboard-response","129","154142","0.0-6.0-4.17","566","","","","","clear_screen","null","null","","","critical","t","d","c","240","164","232.8713","160.6713","164","240","spektor","0.05","w","240","164","164","240","232.8713","160.6713","39360","39360","37415.7294","tc","null","null","null","null","null","null","[1,3]","538.6677723276373","177.66987640087692","476.16566285529353"
"","canvas-keyboard-response","130","154874","0.0-6.0-5.17","566","","","","","make choice","725","1","","","critical","t","d","c","240","164","232.8713","160.6713","164","240","spektor","0.05","w","240","164","164","240","232.8713","160.6713","39360","39360","37415.7294","tc","null","null","null","null","null","null","[1,3]","","",""
"","canvas-keyboard-response","131","154891","0.0-6.0-6.17","566","","","","","clear_screen","null","null","","","critical","t","d","c","240","164","232.8713","160.6713","164","240","spektor","0.05","w","240","164","164","240","232.8713","160.6713","39360","39360","37415.7294","tc","null","null","null","null","null","null","[1,3]","","",""
"","canvas-keyboard-response","132","155092","0.0-6.0-0.18","566","","","","","pre trial waiting period","null","null","","","catch","sh","sw","l","217","176","217","174","228","225","spektor","null","null","null","null","null","null","null","null","null","null","null","","180","200","260","200","36000","52000","[1,3]","503.6633761833549","173.85878054968478","495.4917999162337"
"","canvas-keyboard-response","133","155114","0.0-6.0-1.18","566","","","","","clear_screen","null","null","","","catch","sh","sw","l","217","176","217","174","228","225","spektor","null","null","null","null","null","null","null","null","null","null","null","","180","200","260","200","36000","52000","[1,3]","503.6633761833549","173.85878054968478","495.4917999162337"
"","canvas-keyboard-response","134","155621","0.0-6.0-2.18","566","","","","","rectangles no change","null","null","","","catch","sh","sw","l","217","176","217","174","228","225","spektor","null","null","null","null","null","null","null","null","null","null","null","","180","200","260","200","36000","52000","[1,3]","503.6633761833549","173.85878054968478","495.4917999162337"
"","canvas-keyboard-response","135","156957","0.0-6.0-3.18","566","","","","","rectangles with change","null","null","","","catch","sh","sw","l","217","176","217","174","228","225","spektor","null","null","null","null","null","null","null","null","null","null","null","","180","200","260","200","36000","52000","[1,3]","503.6633761833549","173.85878054968478","495.4917999162337"
"","canvas-keyboard-response","136","156979","0.0-6.0-4.18","566","","","","","clear_screen","null","null","","","catch","sh","sw","l","217","176","217","174","228","225","spektor","null","null","null","null","null","null","null","null","null","null","null","","180","200","260","200","36000","52000","[1,3]","503.6633761833549","173.85878054968478","495.4917999162337"
"","canvas-keyboard-response","137","157496","0.0-6.0-5.18","566","","","","","make choice","512","3","","","catch","sh","sw","l","217","176","217","174","228","225","spektor","null","null","null","null","null","null","null","null","null","null","null","","180","200","260","200","36000","52000","[1,3]","","",""
"","canvas-keyboard-response","138","157512","0.0-6.0-6.18","566","","","","","clear_screen","null","null","","","catch","sh","sw","l","217","176","217","174","228","225","spektor","null","null","null","null","null","null","null","null","null","null","null","","180","200","260","200","36000","52000","[1,3]","","",""
"","canvas-keyboard-response","139","157713","0.0-6.0-0.19","566","","","","","pre trial waiting period","null","null","","","critical","c","d","t","164","240","220.0396","154.6796","240","164","spektor","0.14","w","240","164","164","240","220.0396","154.6796","39360","39360","34035.6388","tc","null","null","null","null","null","null","[3,1]","470.6138768219133","222.3783161667728","519.7733291486938"
"","canvas-keyboard-response","140","157732","0.0-6.0-1.19","566","","","","","clear_screen","null","null","","","critical","c","d","t","164","240","220.0396","154.6796","240","164","spektor","0.14","w","240","164","164","240","220.0396","154.6796","39360","39360","34035.6388","tc","null","null","null","null","null","null","[3,1]","470.6138768219133","222.3783161667728","519.7733291486938"
"","canvas-keyboard-response","141","158242","0.0-6.0-2.19","566","","","","","rectangles no change","null","null","","","critical","c","d","t","164","240","220.0396","154.6796","240","164","spektor","0.14","w","240","164","164","240","220.0396","154.6796","39360","39360","34035.6388","tc","null","null","null","null","null","null","[3,1]","470.6138768219133","222.3783161667728","519.7733291486938"
"","canvas-keyboard-response","142","159581","0.0-6.0-3.19","566","","","","","rectangles with change","null","null","","","critical","c","d","t","164","240","220.0396","154.6796","240","164","spektor","0.14","w","240","164","164","240","220.0396","154.6796","39360","39360","34035.6388","tc","null","null","null","null","null","null","[3,1]","470.6138768219133","222.3783161667728","519.7733291486938"
"","canvas-keyboard-response","143","159601","0.0-6.0-4.19","566","","","","","clear_screen","null","null","","","critical","c","d","t","164","240","220.0396","154.6796","240","164","spektor","0.14","w","240","164","164","240","220.0396","154.6796","39360","39360","34035.6388","tc","null","null","null","null","null","null","[3,1]","470.6138768219133","222.3783161667728","519.7733291486938"
"","canvas-keyboard-response","144","160025","0.0-6.0-5.19","566","","","","","make choice","422","1","","","critical","c","d","t","164","240","220.0396","154.6796","240","164","spektor","0.14","w","240","164","164","240","220.0396","154.6796","39360","39360","34035.6388","tc","null","null","null","null","null","null","[3,1]","","",""
"","canvas-keyboard-response","145","160045","0.0-6.0-6.19","566","","","","","clear_screen","null","null","","","critical","c","d","t","164","240","220.0396","154.6796","240","164","spektor","0.14","w","240","164","164","240","220.0396","154.6796","39360","39360","34035.6388","tc","null","null","null","null","null","null","[3,1]","","",""
"","canvas-keyboard-response","146","160247","0.0-6.0-0.20","566","","","","","pre trial waiting period","null","null","","","critical","c","d","t","164","240","237.1485","162.6685","240","164","trueblood","0.02","w","240","164","164","240","237.1485","162.6685","39360","39360","38576.5967","td","null","null","null","null","null","null","[3,2]","419.5538444402722","471.88453099131357","508.3881623215937"
"","canvas-keyboard-response","147","160272","0.0-6.0-1.20","566","","","","","clear_screen","null","null","","","critical","c","d","t","164","240","237.1485","162.6685","240","164","trueblood","0.02","w","240","164","164","240","237.1485","162.6685","39360","39360","38576.5967","td","null","null","null","null","null","null","[3,2]","419.5538444402722","471.88453099131357","508.3881623215937"
"","canvas-keyboard-response","148","160777","0.0-6.0-2.20","566","","","","","rectangles no change","null","null","","","critical","c","d","t","164","240","237.1485","162.6685","240","164","trueblood","0.02","w","240","164","164","240","237.1485","162.6685","39360","39360","38576.5967","td","null","null","null","null","null","null","[3,2]","419.5538444402722","471.88453099131357","508.3881623215937"
"","canvas-keyboard-response","149","162116","0.0-6.0-3.20","566","","","","","rectangles with change","null","null","","","critical","c","d","t","164","240","237.1485","162.6685","240","164","trueblood","0.02","w","240","164","164","240","237.1485","162.6685","39360","39360","38576.5967","td","null","null","null","null","null","null","[3,2]","419.5538444402722","471.88453099131357","508.3881623215937"
"","canvas-keyboard-response","150","162138","0.0-6.0-4.20","566","","","","","clear_screen","null","null","","","critical","c","d","t","164","240","237.1485","162.6685","240","164","trueblood","0.02","w","240","164","164","240","237.1485","162.6685","39360","39360","38576.5967","td","null","null","null","null","null","null","[3,2]","419.5538444402722","471.88453099131357","508.3881623215937"
"","canvas-keyboard-response","151","162738","0.0-6.0-5.20","566","","","","","make choice","594","2","","","critical","c","d","t","164","240","237.1485","162.6685","240","164","trueblood","0.02","w","240","164","164","240","237.1485","162.6685","39360","39360","38576.5967","td","null","null","null","null","null","null","[3,2]","","",""
"","canvas-keyboard-response","152","162760","0.0-6.0-6.20","566","","","","","clear_screen","null","null","","","critical","c","d","t","164","240","237.1485","162.6685","240","164","trueblood","0.02","w","240","164","164","240","237.1485","162.6685","39360","39360","38576.5967","td","null","null","null","null","null","null","[3,2]","","",""
"","canvas-keyboard-response","153","162963","0.0-6.0-0.21","566","","","","","pre trial waiting period","null","null","","","catch","l","sw","sh","223","231","207","225","169","159","spektor","null","null","null","null","null","null","null","null","null","null","null","","180","200","260","200","36000","52000","[1,3]","499.51175848625223","155.98925102415163","508.52471194927585"
"","canvas-keyboard-response","154","162982","0.0-6.0-1.21","566","","","","","clear_screen","null","null","","","catch","l","sw","sh","223","231","207","225","169","159","spektor","null","null","null","null","null","null","null","null","null","null","null","","180","200","260","200","36000","52000","[1,3]","499.51175848625223","155.98925102415163","508.52471194927585"
"","canvas-keyboard-response","155","163491","0.0-6.0-2.21","566","","","","","rectangles no change","null","null","","","catch","l","sw","sh","223","231","207","225","169","159","spektor","null","null","null","null","null","null","null","null","null","null","null","","180","200","260","200","36000","52000","[1,3]","499.51175848625223","155.98925102415163","508.52471194927585"
"","canvas-keyboard-response","156","164827","0.0-6.0-3.21","566","","","","","rectangles with change","null","null","","","catch","l","sw","sh","223","231","207","225","169","159","spektor","null","null","null","null","null","null","null","null","null","null","null","","180","200","260","200","36000","52000","[1,3]","499.51175848625223","155.98925102415163","508.52471194927585"
"","canvas-keyboard-response","157","164847","0.0-6.0-4.21","566","","","","","clear_screen","null","null","","","catch","l","sw","sh","223","231","207","225","169","159","spektor","null","null","null","null","null","null","null","null","null","null","null","","180","200","260","200","36000","52000","[1,3]","499.51175848625223","155.98925102415163","508.52471194927585"
"","canvas-keyboard-response","158","165329","0.0-6.0-5.21","566","","","","","make choice","476","1","","","catch","l","sw","sh","223","231","207","225","169","159","spektor","null","null","null","null","null","null","null","null","null","null","null","","180","200","260","200","36000","52000","[1,3]","","",""
"","canvas-keyboard-response","159","165349","0.0-6.0-6.21","566","","","","","clear_screen","null","null","","","catch","l","sw","sh","223","231","207","225","169","159","spektor","null","null","null","null","null","null","null","null","null","null","null","","180","200","260","200","36000","52000","[1,3]","","",""
"","canvas-keyboard-response","160","165550","0.0-6.0-0.22","566","","","","","pre trial waiting period","null","null","","","critical","t","d","c","164","240","158.0083","227.1683","240","164","trueblood","0.09","h","164","240","240","164","158.0083","227.1683","39360","39360","35894.4834","td","null","null","null","null","null","null","[1,2]","462.9920846203672","454.5936213346512","509.26443528707256"
"","canvas-keyboard-response","161","165567","0.0-6.0-1.22","566","","","","","clear_screen","null","null","","","critical","t","d","c","164","240","158.0083","227.1683","240","164","trueblood","0.09","h","164","240","240","164","158.0083","227.1683","39360","39360","35894.4834","td","null","null","null","null","null","null","[1,2]","462.9920846203672","454.5936213346512","509.26443528707256"
"","canvas-keyboard-response","162","166075","0.0-6.0-2.22","566","","","","","rectangles no change","null","null","","","critical","t","d","c","164","240","158.0083","227.1683","240","164","trueblood","0.09","h","164","240","240","164","158.0083","227.1683","39360","39360","35894.4834","td","null","null","null","null","null","null","[1,2]","462.9920846203672","454.5936213346512","509.26443528707256"
"","canvas-keyboard-response","163","167411","0.0-6.0-3.22","566","","","","","rectangles with change","null","null","","","critical","t","d","c","164","240","158.0083","227.1683","240","164","trueblood","0.09","h","164","240","240","164","158.0083","227.1683","39360","39360","35894.4834","td","null","null","null","null","null","null","[1,2]","462.9920846203672","454.5936213346512","509.26443528707256"
"","canvas-keyboard-response","164","167433","0.0-6.0-4.22","566","","","","","clear_screen","null","null","","","critical","t","d","c","164","240","158.0083","227.1683","240","164","trueblood","0.09","h","164","240","240","164","158.0083","227.1683","39360","39360","35894.4834","td","null","null","null","null","null","null","[1,2]","462.9920846203672","454.5936213346512","509.26443528707256"
"","canvas-keyboard-response","165","167771","0.0-6.0-5.22","566","","","","","make choice","333","1","","","critical","t","d","c","164","240","158.0083","227.1683","240","164","trueblood","0.09","h","164","240","240","164","158.0083","227.1683","39360","39360","35894.4834","td","null","null","null","null","null","null","[1,2]","","",""
"","canvas-keyboard-response","166","167792","0.0-6.0-6.22","566","","","","","clear_screen","null","null","","","critical","t","d","c","164","240","158.0083","227.1683","240","164","trueblood","0.09","h","164","240","240","164","158.0083","227.1683","39360","39360","35894.4834","td","null","null","null","null","null","null","[1,2]","","",""
"","canvas-keyboard-response","167","167992","0.0-6.0-0.23","566","","","","","pre trial waiting period","null","null","","","critical","c","d","t","240","164","154.6796","220.0396","164","240","trueblood","0.14","h","164","240","240","164","154.6796","220.0396","39360","39360","34035.6388","td","null","null","null","null","null","null","[3,2]","471.1605724726865","436.750700747106","440.67941195886283"
"","canvas-keyboard-response","168","168013","0.0-6.0-1.23","566","","","","","clear_screen","null","null","","","critical","c","d","t","240","164","154.6796","220.0396","164","240","trueblood","0.14","h","164","240","240","164","154.6796","220.0396","39360","39360","34035.6388","td","null","null","null","null","null","null","[3,2]","471.1605724726865","436.750700747106","440.67941195886283"
"","canvas-keyboard-response","169","168523","0.0-6.0-2.23","566","","","","","rectangles no change","null","null","","","critical","c","d","t","240","164","154.6796","220.0396","164","240","trueblood","0.14","h","164","240","240","164","154.6796","220.0396","39360","39360","34035.6388","td","null","null","null","null","null","null","[3,2]","471.1605724726865","436.750700747106","440.67941195886283"
"","canvas-keyboard-response","170","169860","0.0-6.0-3.23","566","","","","","rectangles with change","null","null","","","critical","c","d","t","240","164","154.6796","220.0396","164","240","trueblood","0.14","h","164","240","240","164","154.6796","220.0396","39360","39360","34035.6388","td","null","null","null","null","null","null","[3,2]","471.1605724726865","436.750700747106","440.67941195886283"
"","canvas-keyboard-response","171","169880","0.0-6.0-4.23","566","","","","","clear_screen","null","null","","","critical","c","d","t","240","164","154.6796","220.0396","164","240","trueblood","0.14","h","164","240","240","164","154.6796","220.0396","39360","39360","34035.6388","td","null","null","null","null","null","null","[3,2]","471.1605724726865","436.750700747106","440.67941195886283"
"","canvas-keyboard-response","172","170585","0.0-6.0-5.23","566","","","","","make choice","697","3","","","critical","c","d","t","240","164","154.6796","220.0396","164","240","trueblood","0.14","h","164","240","240","164","154.6796","220.0396","39360","39360","34035.6388","td","null","null","null","null","null","null","[3,2]","","",""
"","canvas-keyboard-response","173","170601","0.0-6.0-6.23","566","","","","","clear_screen","null","null","","","critical","c","d","t","240","164","154.6796","220.0396","164","240","trueblood","0.14","h","164","240","240","164","154.6796","220.0396","39360","39360","34035.6388","td","null","null","null","null","null","null","[3,2]","","",""
"","canvas-keyboard-response","174","170803","0.0-6.0-0.24","566","","","","","pre trial waiting period","null","null","","","critical","d","c","t","164","240","240","164","164","240","spektor","0","h","164","240","240","164","164","240","39360","39360","39360","tc","null","null","null","null","null","null","[3,2]","493.8798200884139","170.2676373409875","479.7827666388436"
"","canvas-keyboard-response","175","170822","0.0-6.0-1.24","566","","","","","clear_screen","null","null","","","critical","d","c","t","164","240","240","164","164","240","spektor","0","h","164","240","240","164","164","240","39360","39360","39360","tc","null","null","null","null","null","null","[3,2]","493.8798200884139","170.2676373409875","479.7827666388436"
"","canvas-keyboard-response","176","171336","0.0-6.0-2.24","566","","","","","rectangles no change","null","null","","","critical","d","c","t","164","240","240","164","164","240","spektor","0","h","164","240","240","164","164","240","39360","39360","39360","tc","null","null","null","null","null","null","[3,2]","493.8798200884139","170.2676373409875","479.7827666388436"
"","canvas-keyboard-response","177","172675","0.0-6.0-3.24","566","","","","","rectangles with change","null","null","","","critical","d","c","t","164","240","240","164","164","240","spektor","0","h","164","240","240","164","164","240","39360","39360","39360","tc","null","null","null","null","null","null","[3,2]","493.8798200884139","170.2676373409875","479.7827666388436"
"","canvas-keyboard-response","178","172694","0.0-6.0-4.24","566","","","","","clear_screen","null","null","","","critical","d","c","t","164","240","240","164","164","240","spektor","0","h","164","240","240","164","164","240","39360","39360","39360","tc","null","null","null","null","null","null","[3,2]","493.8798200884139","170.2676373409875","479.7827666388436"
"","canvas-keyboard-response","179","174146","0.0-6.0-5.24","566","","","","","make choice","1445","2","","","critical","d","c","t","164","240","240","164","164","240","spektor","0","h","164","240","240","164","164","240","39360","39360","39360","tc","null","null","null","null","null","null","[3,2]","","",""
"","canvas-keyboard-response","180","174163","0.0-6.0-6.24","566","","","","","clear_screen","null","null","","","critical","d","c","t","164","240","240","164","164","240","spektor","0","h","164","240","240","164","164","240","39360","39360","39360","tc","null","null","null","null","null","null","[3,2]","","",""
"","canvas-keyboard-response","181","174365","0.0-6.0-0.25","566","","","","","pre trial waiting period","null","null","","","critical","t","d","c","240","164","240","164","164","240","spektor","0","w","240","164","164","240","240","164","39360","39360","39360","td","null","null","null","null","null","null","[1,2]","528.8439448925965","182.52288077482655","484.9129007342217"
"","canvas-keyboard-response","182","174383","0.0-6.0-1.25","566","","","","","clear_screen","null","null","","","critical","t","d","c","240","164","240","164","164","240","spektor","0","w","240","164","164","240","240","164","39360","39360","39360","td","null","null","null","null","null","null","[1,2]","528.8439448925965","182.52288077482655","484.9129007342217"
"","canvas-keyboard-response","183","174892","0.0-6.0-2.25","566","","","","","rectangles no change","null","null","","","critical","t","d","c","240","164","240","164","164","240","spektor","0","w","240","164","164","240","240","164","39360","39360","39360","td","null","null","null","null","null","null","[1,2]","528.8439448925965","182.52288077482655","484.9129007342217"
"","canvas-keyboard-response","184","176229","0.0-6.0-3.25","566","","","","","rectangles with change","null","null","","","critical","t","d","c","240","164","240","164","164","240","spektor","0","w","240","164","164","240","240","164","39360","39360","39360","td","null","null","null","null","null","null","[1,2]","528.8439448925965","182.52288077482655","484.9129007342217"
"","canvas-keyboard-response","185","176247","0.0-6.0-4.25","566","","","","","clear_screen","null","null","","","critical","t","d","c","240","164","240","164","164","240","spektor","0","w","240","164","164","240","240","164","39360","39360","39360","td","null","null","null","null","null","null","[1,2]","528.8439448925965","182.52288077482655","484.9129007342217"
"","canvas-keyboard-response","186","176722","0.0-6.0-5.25","566","","","","","make choice","468","1","","","critical","t","d","c","240","164","240","164","164","240","spektor","0","w","240","164","164","240","240","164","39360","39360","39360","td","null","null","null","null","null","null","[1,2]","","",""
"","canvas-keyboard-response","187","176743","0.0-6.0-6.25","566","","","","","clear_screen","null","null","","","critical","t","d","c","240","164","240","164","164","240","spektor","0","w","240","164","164","240","240","164","39360","39360","39360","td","null","null","null","null","null","null","[1,2]","","",""
"","canvas-keyboard-response","188","176944","0.0-6.0-0.26","566","","","","","pre trial waiting period","null","null","","","critical","c","d","t","164","240","237.1485","162.6685","240","164","trueblood","0.02","w","240","164","164","240","237.1485","162.6685","39360","39360","38576.5967","tc","null","null","null","null","null","null","[3,1]","465.29183857075805","517.432854375623","501.7345761632686"
"","canvas-keyboard-response","189","176964","0.0-6.0-1.26","566","","","","","clear_screen","null","null","","","critical","c","d","t","164","240","237.1485","162.6685","240","164","trueblood","0.02","w","240","164","164","240","237.1485","162.6685","39360","39360","38576.5967","tc","null","null","null","null","null","null","[3,1]","465.29183857075805","517.432854375623","501.7345761632686"
"","canvas-keyboard-response","190","177470","0.0-6.0-2.26","566","","","","","rectangles no change","null","null","","","critical","c","d","t","164","240","237.1485","162.6685","240","164","trueblood","0.02","w","240","164","164","240","237.1485","162.6685","39360","39360","38576.5967","tc","null","null","null","null","null","null","[3,1]","465.29183857075805","517.432854375623","501.7345761632686"
"","canvas-keyboard-response","191","178806","0.0-6.0-3.26","566","","","","","rectangles with change","null","null","","","critical","c","d","t","164","240","237.1485","162.6685","240","164","trueblood","0.02","w","240","164","164","240","237.1485","162.6685","39360","39360","38576.5967","tc","null","null","null","null","null","null","[3,1]","465.29183857075805","517.432854375623","501.7345761632686"
"","canvas-keyboard-response","192","178824","0.0-6.0-4.26","566","","","","","clear_screen","null","null","","","critical","c","d","t","164","240","237.1485","162.6685","240","164","trueblood","0.02","w","240","164","164","240","237.1485","162.6685","39360","39360","38576.5967","tc","null","null","null","null","null","null","[3,1]","465.29183857075805","517.432854375623","501.7345761632686"
"","canvas-keyboard-response","193","179978","0.0-6.0-5.26","566","","","","","make choice","1150","1","","","critical","c","d","t","164","240","237.1485","162.6685","240","164","trueblood","0.02","w","240","164","164","240","237.1485","162.6685","39360","39360","38576.5967","tc","null","null","null","null","null","null","[3,1]","","",""
"","canvas-keyboard-response","194","179998","0.0-6.0-6.26","566","","","","","clear_screen","null","null","","","critical","c","d","t","164","240","237.1485","162.6685","240","164","trueblood","0.02","w","240","164","164","240","237.1485","162.6685","39360","39360","38576.5967","tc","null","null","null","null","null","null","[3,1]","","",""
"","canvas-keyboard-response","195","180199","0.0-6.0-0.27","566","","","","","pre trial waiting period","null","null","","","critical","c","t","d","240","164","164","240","162.6685","237.1485","spektor","0.02","h","164","240","240","164","162.6685","237.1485","39360","39360","38576.5967","dc","null","null","null","null","null","null","[3,1]","512.4140892445371","111.80355355758427","468.3723259892638"
"","canvas-keyboard-response","196","180219","0.0-6.0-1.27","566","","","","","clear_screen","null","null","","","critical","c","t","d","240","164","164","240","162.6685","237.1485","spektor","0.02","h","164","240","240","164","162.6685","237.1485","39360","39360","38576.5967","dc","null","null","null","null","null","null","[3,1]","512.4140892445371","111.80355355758427","468.3723259892638"
"","canvas-keyboard-response","197","180727","0.0-6.0-2.27","566","","","","","rectangles no change","null","null","","","critical","c","t","d","240","164","164","240","162.6685","237.1485","spektor","0.02","h","164","240","240","164","162.6685","237.1485","39360","39360","38576.5967","dc","null","null","null","null","null","null","[3,1]","512.4140892445371","111.80355355758427","468.3723259892638"
"","canvas-keyboard-response","198","182061","0.0-6.0-3.27","566","","","","","rectangles with change","null","null","","","critical","c","t","d","240","164","164","240","162.6685","237.1485","spektor","0.02","h","164","240","240","164","162.6685","237.1485","39360","39360","38576.5967","dc","null","null","null","null","null","null","[3,1]","512.4140892445371","111.80355355758427","468.3723259892638"
"","canvas-keyboard-response","199","182080","0.0-6.0-4.27","566","","","","","clear_screen","null","null","","","critical","c","t","d","240","164","164","240","162.6685","237.1485","spektor","0.02","h","164","240","240","164","162.6685","237.1485","39360","39360","38576.5967","dc","null","null","null","null","null","null","[3,1]","512.4140892445371","111.80355355758427","468.3723259892638"
"","canvas-keyboard-response","200","182777","0.0-6.0-5.27","566","","","","","make choice","687","1","","","critical","c","t","d","240","164","164","240","162.6685","237.1485","spektor","0.02","h","164","240","240","164","162.6685","237.1485","39360","39360","38576.5967","dc","null","null","null","null","null","null","[3,1]","","",""
"","canvas-keyboard-response","201","182793","0.0-6.0-6.27","566","","","","","clear_screen","null","null","","","critical","c","t","d","240","164","164","240","162.6685","237.1485","spektor","0.02","h","164","240","240","164","162.6685","237.1485","39360","39360","38576.5967","dc","null","null","null","null","null","null","[3,1]","","",""
"","canvas-keyboard-response","202","182994","0.0-6.0-0.28","566","","","","","pre trial waiting period","null","null","","","catch","sh","l","sw","234","161","222","169","144","202","spektor","null","null","null","null","null","null","null","null","null","null","null","","180","200","260","200","36000","52000","[2,3]","534.3163639816559","219.81989829005187","507.168643560936"
"","canvas-keyboard-response","203","183015","0.0-6.0-1.28","566","","","","","clear_screen","null","null","","","catch","sh","l","sw","234","161","222","169","144","202","spektor","null","null","null","null","null","null","null","null","null","null","null","","180","200","260","200","36000","52000","[2,3]","534.3163639816559","219.81989829005187","507.168643560936"
"","canvas-keyboard-response","204","183521","0.0-6.0-2.28","566","","","","","rectangles no change","null","null","","","catch","sh","l","sw","234","161","222","169","144","202","spektor","null","null","null","null","null","null","null","null","null","null","null","","180","200","260","200","36000","52000","[2,3]","534.3163639816559","219.81989829005187","507.168643560936"
"","canvas-keyboard-response","205","184860","0.0-6.0-3.28","566","","","","","rectangles with change","null","null","","","catch","sh","l","sw","234","161","222","169","144","202","spektor","null","null","null","null","null","null","null","null","null","null","null","","180","200","260","200","36000","52000","[2,3]","534.3163639816559","219.81989829005187","507.168643560936"
"","canvas-keyboard-response","206","184879","0.0-6.0-4.28","566","","","","","clear_screen","null","null","","","catch","sh","l","sw","234","161","222","169","144","202","spektor","null","null","null","null","null","null","null","null","null","null","null","","180","200","260","200","36000","52000","[2,3]","534.3163639816559","219.81989829005187","507.168643560936"
"","canvas-keyboard-response","207","185530","0.0-6.0-5.28","566","","","","","make choice","647","2","","","catch","sh","l","sw","234","161","222","169","144","202","spektor","null","null","null","null","null","null","null","null","null","null","null","","180","200","260","200","36000","52000","[2,3]","","",""
"","canvas-keyboard-response","208","185548","0.0-6.0-6.28","566","","","","","clear_screen","null","null","","","catch","sh","l","sw","234","161","222","169","144","202","spektor","null","null","null","null","null","null","null","null","null","null","null","","180","200","260","200","36000","52000","[2,3]","","",""
"","canvas-keyboard-response","209","185749","0.0-6.0-0.29","566","","","","","pre trial waiting period","null","null","","","catch","sh","l","sw","209","142","259","201","198","239","trueblood","null","null","null","null","null","null","null","null","null","null","null","","180","200","260","200","36000","52000","[2,3]","496.8799816704048","475.75049929566995","444.94573282960147"
"","canvas-keyboard-response","210","185764","0.0-6.0-1.29","566","","","","","clear_screen","null","null","","","catch","sh","l","sw","209","142","259","201","198","239","trueblood","null","null","null","null","null","null","null","null","null","null","null","","180","200","260","200","36000","52000","[2,3]","496.8799816704048","475.75049929566995","444.94573282960147"
"","canvas-keyboard-response","211","186270","0.0-6.0-2.29","566","","","","","rectangles no change","null","null","","","catch","sh","l","sw","209","142","259","201","198","239","trueblood","null","null","null","null","null","null","null","null","null","null","null","","180","200","260","200","36000","52000","[2,3]","496.8799816704048","475.75049929566995","444.94573282960147"
"","canvas-keyboard-response","212","187606","0.0-6.0-3.29","566","","","","","rectangles with change","null","null","","","catch","sh","l","sw","209","142","259","201","198","239","trueblood","null","null","null","null","null","null","null","null","null","null","null","","180","200","260","200","36000","52000","[2,3]","496.8799816704048","475.75049929566995","444.94573282960147"
"","canvas-keyboard-response","213","187624","0.0-6.0-4.29","566","","","","","clear_screen","null","null","","","catch","sh","l","sw","209","142","259","201","198","239","trueblood","null","null","null","null","null","null","null","null","null","null","null","","180","200","260","200","36000","52000","[2,3]","496.8799816704048","475.75049929566995","444.94573282960147"
"","canvas-keyboard-response","214","188538","0.0-6.0-5.29","566","","","","","make choice","909","2","","","catch","sh","l","sw","209","142","259","201","198","239","trueblood","null","null","null","null","null","null","null","null","null","null","null","","180","200","260","200","36000","52000","[2,3]","","",""
"","canvas-keyboard-response","215","188556","0.0-6.0-6.29","566","","","","","clear_screen","null","null","","","catch","sh","l","sw","209","142","259","201","198","239","trueblood","null","null","null","null","null","null","null","null","null","null","null","","180","200","260","200","36000","52000","[2,3]","","",""
"","canvas-keyboard-response","216","188757","0.0-6.0-0.30","566","","","","","pre trial waiting period","null","null","","","critical","d","c","t","160.6713","232.8713","240","164","164","240","trueblood","0.05","h","164","240","240","164","160.6713","232.8713","39360","39360","37415.7294","tc","null","null","null","null","null","null","[3,2]","426.4489048865445","508.90766122306826","463.1400000975257"
"","canvas-keyboard-response","217","188777","0.0-6.0-1.30","566","","","","","clear_screen","null","null","","","critical","d","c","t","160.6713","232.8713","240","164","164","240","trueblood","0.05","h","164","240","240","164","160.6713","232.8713","39360","39360","37415.7294","tc","null","null","null","null","null","null","[3,2]","426.4489048865445","508.90766122306826","463.1400000975257"
"","canvas-keyboard-response","218","189282","0.0-6.0-2.30","566","","","","","rectangles no change","null","null","","","critical","d","c","t","160.6713","232.8713","240","164","164","240","trueblood","0.05","h","164","240","240","164","160.6713","232.8713","39360","39360","37415.7294","tc","null","null","null","null","null","null","[3,2]","426.4489048865445","508.90766122306826","463.1400000975257"
"","canvas-keyboard-response","219","190616","0.0-6.0-3.30","566","","","","","rectangles with change","null","null","","","critical","d","c","t","160.6713","232.8713","240","164","164","240","trueblood","0.05","h","164","240","240","164","160.6713","232.8713","39360","39360","37415.7294","tc","null","null","null","null","null","null","[3,2]","426.4489048865445","508.90766122306826","463.1400000975257"
"","canvas-keyboard-response","220","190639","0.0-6.0-4.30","566","","","","","clear_screen","null","null","","","critical","d","c","t","160.6713","232.8713","240","164","164","240","trueblood","0.05","h","164","240","240","164","160.6713","232.8713","39360","39360","37415.7294","tc","null","null","null","null","null","null","[3,2]","426.4489048865445","508.90766122306826","463.1400000975257"
"","canvas-keyboard-response","221","191667","0.0-6.0-5.30","566","","","","","make choice","1020","3","","","critical","d","c","t","160.6713","232.8713","240","164","164","240","trueblood","0.05","h","164","240","240","164","160.6713","232.8713","39360","39360","37415.7294","tc","null","null","null","null","null","null","[3,2]","","",""
"","canvas-keyboard-response","222","191686","0.0-6.0-6.30","566","","","","","clear_screen","null","null","","","critical","d","c","t","160.6713","232.8713","240","164","164","240","trueblood","0.05","h","164","240","240","164","160.6713","232.8713","39360","39360","37415.7294","tc","null","null","null","null","null","null","[3,2]","","",""
"","canvas-keyboard-response","223","191887","0.0-6.0-0.31","566","","","","","pre trial waiting period","null","null","","","critical","d","t","c","220.0396","154.6796","240","164","164","240","trueblood","0.14","w","240","164","164","240","220.0396","154.6796","39360","39360","34035.6388","td","null","null","null","null","null","null","[2,1]","509.6534443467622","477.3679006617693","441.0477689601117"
"","canvas-keyboard-response","224","191908","0.0-6.0-1.31","566","","","","","clear_screen","null","null","","","critical","d","t","c","220.0396","154.6796","240","164","164","240","trueblood","0.14","w","240","164","164","240","220.0396","154.6796","39360","39360","34035.6388","td","null","null","null","null","null","null","[2,1]","509.6534443467622","477.3679006617693","441.0477689601117"
"","canvas-keyboard-response","225","192418","0.0-6.0-2.31","566","","","","","rectangles no change","null","null","","","critical","d","t","c","220.0396","154.6796","240","164","164","240","trueblood","0.14","w","240","164","164","240","220.0396","154.6796","39360","39360","34035.6388","td","null","null","null","null","null","null","[2,1]","509.6534443467622","477.3679006617693","441.0477689601117"
"","canvas-keyboard-response","226","193754","0.0-6.0-3.31","566","","","","","rectangles with change","null","null","","","critical","d","t","c","220.0396","154.6796","240","164","164","240","trueblood","0.14","w","240","164","164","240","220.0396","154.6796","39360","39360","34035.6388","td","null","null","null","null","null","null","[2,1]","509.6534443467622","477.3679006617693","441.0477689601117"
"","canvas-keyboard-response","227","193771","0.0-6.0-4.31","566","","","","","clear_screen","null","null","","","critical","d","t","c","220.0396","154.6796","240","164","164","240","trueblood","0.14","w","240","164","164","240","220.0396","154.6796","39360","39360","34035.6388","td","null","null","null","null","null","null","[2,1]","509.6534443467622","477.3679006617693","441.0477689601117"
"","canvas-keyboard-response","228","194570","0.0-6.0-5.31","566","","","","","make choice","792","2","","","critical","d","t","c","220.0396","154.6796","240","164","164","240","trueblood","0.14","w","240","164","164","240","220.0396","154.6796","39360","39360","34035.6388","td","null","null","null","null","null","null","[2,1]","","",""
"","canvas-keyboard-response","229","194587","0.0-6.0-6.31","566","","","","","clear_screen","null","null","","","critical","d","t","c","220.0396","154.6796","240","164","164","240","trueblood","0.14","w","240","164","164","240","220.0396","154.6796","39360","39360","34035.6388","td","null","null","null","null","null","null","[2,1]","","",""
"","canvas-keyboard-response","230","194789","0.0-6.0-0.32","566","","","","","pre trial waiting period","null","null","","","critical","d","c","t","158.0083","227.1683","240","164","164","240","spektor","0.09","h","164","240","240","164","158.0083","227.1683","39360","39360","35894.4834","dc","null","null","null","null","null","null","[1,2]","494.44933395552016","184.57309207989326","493.10245413766796"
"","canvas-keyboard-response","231","194811","0.0-6.0-1.32","566","","","","","clear_screen","null","null","","","critical","d","c","t","158.0083","227.1683","240","164","164","240","spektor","0.09","h","164","240","240","164","158.0083","227.1683","39360","39360","35894.4834","dc","null","null","null","null","null","null","[1,2]","494.44933395552016","184.57309207989326","493.10245413766796"
"","canvas-keyboard-response","232","195318","0.0-6.0-2.32","566","","","","","rectangles no change","null","null","","","critical","d","c","t","158.0083","227.1683","240","164","164","240","spektor","0.09","h","164","240","240","164","158.0083","227.1683","39360","39360","35894.4834","dc","null","null","null","null","null","null","[1,2]","494.44933395552016","184.57309207989326","493.10245413766796"
"","canvas-keyboard-response","233","196652","0.0-6.0-3.32","566","","","","","rectangles with change","null","null","","","critical","d","c","t","158.0083","227.1683","240","164","164","240","spektor","0.09","h","164","240","240","164","158.0083","227.1683","39360","39360","35894.4834","dc","null","null","null","null","null","null","[1,2]","494.44933395552016","184.57309207989326","493.10245413766796"
"","canvas-keyboard-response","234","196669","0.0-6.0-4.32","566","","","","","clear_screen","null","null","","","critical","d","c","t","158.0083","227.1683","240","164","164","240","spektor","0.09","h","164","240","240","164","158.0083","227.1683","39360","39360","35894.4834","dc","null","null","null","null","null","null","[1,2]","494.44933395552016","184.57309207989326","493.10245413766796"
"","canvas-keyboard-response","235","197137","0.0-6.0-5.32","566","","","","","make choice","461","1","","","critical","d","c","t","158.0083","227.1683","240","164","164","240","spektor","0.09","h","164","240","240","164","158.0083","227.1683","39360","39360","35894.4834","dc","null","null","null","null","null","null","[1,2]","","",""
"","canvas-keyboard-response","236","197160","0.0-6.0-6.32","566","","","","","clear_screen","null","null","","","critical","d","c","t","158.0083","227.1683","240","164","164","240","spektor","0.09","h","164","240","240","164","158.0083","227.1683","39360","39360","35894.4834","dc","null","null","null","null","null","null","[1,2]","","",""
"","canvas-keyboard-response","237","197361","0.0-6.0-0.33","566","","","","","pre trial waiting period","null","null","","","catch","sw","l","sh","180","200","229","251","188","151","trueblood","null","null","null","null","null","null","null","null","null","null","null","","180","200","260","200","36000","52000","[1,2]","465.2728122774743","456.6561949732886","484.372283974761"
"","canvas-keyboard-response","238","197384","0.0-6.0-1.33","566","","","","","clear_screen","null","null","","","catch","sw","l","sh","180","200","229","251","188","151","trueblood","null","null","null","null","null","null","null","null","null","null","null","","180","200","260","200","36000","52000","[1,2]","465.2728122774743","456.6561949732886","484.372283974761"
"","canvas-keyboard-response","239","197892","0.0-6.0-2.33","566","","","","","rectangles no change","null","null","","","catch","sw","l","sh","180","200","229","251","188","151","trueblood","null","null","null","null","null","null","null","null","null","null","null","","180","200","260","200","36000","52000","[1,2]","465.2728122774743","456.6561949732886","484.372283974761"
"","canvas-keyboard-response","240","199230","0.0-6.0-3.33","566","","","","","rectangles with change","null","null","","","catch","sw","l","sh","180","200","229","251","188","151","trueblood","null","null","null","null","null","null","null","null","null","null","null","","180","200","260","200","36000","52000","[1,2]","465.2728122774743","456.6561949732886","484.372283974761"
"","canvas-keyboard-response","241","199249","0.0-6.0-4.33","566","","","","","clear_screen","null","null","","","catch","sw","l","sh","180","200","229","251","188","151","trueblood","null","null","null","null","null","null","null","null","null","null","null","","180","200","260","200","36000","52000","[1,2]","465.2728122774743","456.6561949732886","484.372283974761"
"","canvas-keyboard-response","242","199562","0.0-6.0-5.33","566","","","","","make choice","307","2","","","catch","sw","l","sh","180","200","229","251","188","151","trueblood","null","null","null","null","null","null","null","null","null","null","null","","180","200","260","200","36000","52000","[1,2]","","",""
"","canvas-keyboard-response","243","199579","0.0-6.0-6.33","566","","","","","clear_screen","null","null","","","catch","sw","l","sh","180","200","229","251","188","151","trueblood","null","null","null","null","null","null","null","null","null","null","null","","180","200","260","200","36000","52000","[1,2]","","",""
"","canvas-keyboard-response","244","199780","0.0-6.0-0.34","566","","","","","pre trial waiting period","null","null","","","catch","l","sw","sh","265","191","217","174","177","207","spektor","null","null","null","null","null","null","null","null","null","null","null","","180","200","260","200","36000","52000","[1,3]","524.4389143170663","171.1242289004522","486.89516318274497"
"","canvas-keyboard-response","245","199796","0.0-6.0-1.34","566","","","","","clear_screen","null","null","","","catch","l","sw","sh","265","191","217","174","177","207","spektor","null","null","null","null","null","null","null","null","null","null","null","","180","200","260","200","36000","52000","[1,3]","524.4389143170663","171.1242289004522","486.89516318274497"
"","canvas-keyboard-response","246","200303","0.0-6.0-2.34","566","","","","","rectangles no change","null","null","","","catch","l","sw","sh","265","191","217","174","177","207","spektor","null","null","null","null","null","null","null","null","null","null","null","","180","200","260","200","36000","52000","[1,3]","524.4389143170663","171.1242289004522","486.89516318274497"
"","canvas-keyboard-response","247","201640","0.0-6.0-3.34","566","","","","","rectangles with change","null","null","","","catch","l","sw","sh","265","191","217","174","177","207","spektor","null","null","null","null","null","null","null","null","null","null","null","","180","200","260","200","36000","52000","[1,3]","524.4389143170663","171.1242289004522","486.89516318274497"
"","canvas-keyboard-response","248","201661","0.0-6.0-4.34","566","","","","","clear_screen","null","null","","","catch","l","sw","sh","265","191","217","174","177","207","spektor","null","null","null","null","null","null","null","null","null","null","null","","180","200","260","200","36000","52000","[1,3]","524.4389143170663","171.1242289004522","486.89516318274497"
"","canvas-keyboard-response","249","202034","0.0-6.0-5.34","566","","","","","make choice","365","1","","","catch","l","sw","sh","265","191","217","174","177","207","spektor","null","null","null","null","null","null","null","null","null","null","null","","180","200","260","200","36000","52000","[1,3]","","",""
"","canvas-keyboard-response","250","202052","0.0-6.0-6.34","566","","","","","clear_screen","null","null","","","catch","l","sw","sh","265","191","217","174","177","207","spektor","null","null","null","null","null","null","null","null","null","null","null","","180","200","260","200","36000","52000","[1,3]","","",""
"","canvas-keyboard-response","251","202253","0.0-6.0-0.35","566","","","","","pre trial waiting period","null","null","","","catch","sh","sw","l","239","152","149","170","243","209","spektor","null","null","null","null","null","null","null","null","null","null","null","","180","200","260","200","36000","52000","[1,3]","546.0633920059108","181.55683053705462","504.06052448221345"
"","canvas-keyboard-response","252","202275","0.0-6.0-1.35","566","","","","","clear_screen","null","null","","","catch","sh","sw","l","239","152","149","170","243","209","spektor","null","null","null","null","null","null","null","null","null","null","null","","180","200","260","200","36000","52000","[1,3]","546.0633920059108","181.55683053705462","504.06052448221345"
"","canvas-keyboard-response","253","202783","0.0-6.0-2.35","566","","","","","rectangles no change","null","null","","","catch","sh","sw","l","239","152","149","170","243","209","spektor","null","null","null","null","null","null","null","null","null","null","null","","180","200","260","200","36000","52000","[1,3]","546.0633920059108","181.55683053705462","504.06052448221345"
"","canvas-keyboard-response","254","204113","0.0-6.0-3.35","566","","","","","rectangles with change","null","null","","","catch","sh","sw","l","239","152","149","170","243","209","spektor","null","null","null","null","null","null","null","null","null","null","null","","180","200","260","200","36000","52000","[1,3]","546.0633920059108","181.55683053705462","504.06052448221345"
"","canvas-keyboard-response","255","204131","0.0-6.0-4.35","566","","","","","clear_screen","null","null","","","catch","sh","sw","l","239","152","149","170","243","209","spektor","null","null","null","null","null","null","null","null","null","null","null","","180","200","260","200","36000","52000","[1,3]","546.0633920059108","181.55683053705462","504.06052448221345"
"","canvas-keyboard-response","256","205761","0.0-6.0-5.35","566","","","","","make choice","1624","3","","","catch","sh","sw","l","239","152","149","170","243","209","spektor","null","null","null","null","null","null","null","null","null","null","null","","180","200","260","200","36000","52000","[1,3]","","",""
"","canvas-keyboard-response","257","205780","0.0-6.0-6.35","566","","","","","clear_screen","null","null","","","catch","sh","sw","l","239","152","149","170","243","209","spektor","null","null","null","null","null","null","null","null","null","null","null","","180","200","260","200","36000","52000","[1,3]","","",""
"","canvas-keyboard-response","258","205982","0.0-6.0-0.36","566","","","","","pre trial waiting period","null","null","","","catch","sh","sw","l","221","178","153","236","277","179","trueblood","null","null","null","null","null","null","null","null","null","null","null","","180","200","260","200","36000","52000","[2,3]","478.4481662620011","443.89441785494034","462.92647106298017"
"","canvas-keyboard-response","259","206000","0.0-6.0-1.36","566","","","","","clear_screen","null","null","","","catch","sh","sw","l","221","178","153","236","277","179","trueblood","null","null","null","null","null","null","null","null","null","null","null","","180","200","260","200","36000","52000","[2,3]","478.4481662620011","443.89441785494034","462.92647106298017"
"","canvas-keyboard-response","260","206507","0.0-6.0-2.36","566","","","","","rectangles no change","null","null","","","catch","sh","sw","l","221","178","153","236","277","179","trueblood","null","null","null","null","null","null","null","null","null","null","null","","180","200","260","200","36000","52000","[2,3]","478.4481662620011","443.89441785494034","462.92647106298017"
"","canvas-keyboard-response","261","207841","0.0-6.0-3.36","566","","","","","rectangles with change","null","null","","","catch","sh","sw","l","221","178","153","236","277","179","trueblood","null","null","null","null","null","null","null","null","null","null","null","","180","200","260","200","36000","52000","[2,3]","478.4481662620011","443.89441785494034","462.92647106298017"
"","canvas-keyboard-response","262","207859","0.0-6.0-4.36","566","","","","","clear_screen","null","null","","","catch","sh","sw","l","221","178","153","236","277","179","trueblood","null","null","null","null","null","null","null","null","null","null","null","","180","200","260","200","36000","52000","[2,3]","478.4481662620011","443.89441785494034","462.92647106298017"
"","canvas-keyboard-response","263","209329","0.0-6.0-5.36","566","","","","","make choice","1464","3","","","catch","sh","sw","l","221","178","153","236","277","179","trueblood","null","null","null","null","null","null","null","null","null","null","null","","180","200","260","200","36000","52000","[2,3]","","",""
"","canvas-keyboard-response","264","209348","0.0-6.0-6.36","566","","","","","clear_screen","null","null","","","catch","sh","sw","l","221","178","153","236","277","179","trueblood","null","null","null","null","null","null","null","null","null","null","null","","180","200","260","200","36000","52000","[2,3]","","",""
"","canvas-keyboard-response","265","209549","0.0-6.0-0.37","566","","","","","pre trial waiting period","null","null","","","critical","d","t","c","240","164","240","164","164","240","trueblood","0","w","240","164","164","240","240","164","39360","39360","39360","td","null","null","null","null","null","null","[2,1]","469.0679856759734","512.6372007427636","423.1523323862869"
"","canvas-keyboard-response","266","209569","0.0-6.0-1.37","566","","","","","clear_screen","null","null","","","critical","d","t","c","240","164","240","164","164","240","trueblood","0","w","240","164","164","240","240","164","39360","39360","39360","td","null","null","null","null","null","null","[2,1]","469.0679856759734","512.6372007427636","423.1523323862869"
"","canvas-keyboard-response","267","210074","0.0-6.0-2.37","566","","","","","rectangles no change","null","null","","","critical","d","t","c","240","164","240","164","164","240","trueblood","0","w","240","164","164","240","240","164","39360","39360","39360","td","null","null","null","null","null","null","[2,1]","469.0679856759734","512.6372007427636","423.1523323862869"
