"success","trial_type","trial_index","time_elapsed","internal_node_id","sub_n","timeout","failed_images","failed_audio","failed_video","screen_id","rt","response","stimulus","view_history","trial","r1","r2","r3","w1","h1","w2","h2","w3","h3","display","tdd","tdo","tw","th","cw","ch","dw","dh","ta","ca","da","probe","csls","csss","clls","clss","sa","la","probe_rects","r1yloc","r2yloc","r3yloc"
"true","fullscreen","0","4288","0.0-0.0","49","","","","","","","","","","","","","","","","","","","","","","","","","","","","","","","","","","","","","","","","","",""
"true","preload","1","4324","0.0-1.0","49","false","[]","[]","[]","img preload","","","","","","","","","","","","","","","","","","","","","","","","","","","","","","","","","","","","",""
"","survey-html-form","2","12407","0.0-2.0","49","","","","","enter-sub-number","8073","{""response"":""49""}","","","","","","","","","","","","","","","","","","","","","","","","","","","","","","","","","","",""
"","image-button-response","3","28382","0.0-3.0","49","","","","","","15907","0","consent.png","","","","","","","","","","","","","","","","","","","","","","","","","","","","","","","","","",""
"","html-button-response","4","37637","0.0-4.0","49","","","","","intro mssg","9249","0","<div style= ""font-size:25px;"" <p> <strong> Welcome! </strong><br> <p style=""color:#8B0000; font-size:25px;""><strong> Please do NOT exit full screen until you are done with the experiment. </strong> </p><p style=""font-size:25px;color:#8B0000;""> <strong> Your data will be lost <br> if you try to go back or refresh the page after the experiment starts. Feel free to click ""previous"" during the instructions, however.</strong> </p><br><p> <strong> Thanks in advance for your contribution to our research! </strong></p>","","","","","","","","","","","","","","","","","","","","","","","","","","","","","","","","","",""
"","instructions","5","84527","0.0-5.0","49","","","","","instructions","46883","","","[{""page_index"":0,""viewing_time"":6330},{""page_index"":1,""viewing_time"":7423},{""page_index"":2,""viewing_time"":3361},{""page_index"":3,""viewing_time"":16408},{""page_index"":4,""viewing_time"":6456},{""page_index"":5,""viewing_time"":2368},{""page_index"":6,""viewing_time"":2688},{""page_index"":7,""viewing_time"":1848}]","","","","","","","","","","","","","","","","","","","","","","","","","","","","","","","","",""
"","canvas-keyboard-response","6","84732","0.0-6.0-0.0","49","","","","","pre trial waiting period","null","null","","","critical","d","c","t","240","164","164","240","240","164","trueblood","0","w","240","164","164","240","240","164","39360","39360","39360","td","null","null","null","null","null","null","[3,1]","472.7720601331163","465.9701076650014","482.7871349709552"
"","canvas-keyboard-response","7","84760","0.0-6.0-1.0","49","","","","","clear_screen","null","null","","","critical","d","c","t","240","164","164","240","240","164","trueblood","0","w","240","164","164","240","240","164","39360","39360","39360","td","null","null","null","null","null","null","[3,1]","472.7720601331163","465.9701076650014","482.7871349709552"
"","canvas-keyboard-response","8","85268","0.0-6.0-2.0","49","","","","","rectangles no change","null","null","","","critical","d","c","t","240","164","164","240","240","164","trueblood","0","w","240","164","164","240","240","164","39360","39360","39360","td","null","null","null","null","null","null","[3,1]","472.7720601331163","465.9701076650014","482.7871349709552"
"","canvas-keyboard-response","9","86607","0.0-6.0-3.0","49","","","","","rectangles with change","null","null","","","critical","d","c","t","240","164","164","240","240","164","trueblood","0","w","240","164","164","240","240","164","39360","39360","39360","td","null","null","null","null","null","null","[3,1]","472.7720601331163","465.9701076650014","482.7871349709552"
"","canvas-keyboard-response","10","86630","0.0-6.0-4.0","49","","","","","clear_screen","null","null","","","critical","d","c","t","240","164","164","240","240","164","trueblood","0","w","240","164","164","240","240","164","39360","39360","39360","td","null","null","null","null","null","null","[3,1]","472.7720601331163","465.9701076650014","482.7871349709552"
"","canvas-keyboard-response","11","88606","0.0-6.0-5.0","49","","","","","make choice","1967","1","","","critical","d","c","t","240","164","164","240","240","164","trueblood","0","w","240","164","164","240","240","164","39360","39360","39360","td","null","null","null","null","null","null","[3,1]","","",""
"","canvas-keyboard-response","12","88626","0.0-6.0-6.0","49","","","","","clear_screen","null","null","","","critical","d","c","t","240","164","164","240","240","164","trueblood","0","w","240","164","164","240","240","164","39360","39360","39360","td","null","null","null","null","null","null","[3,1]","","",""
"","canvas-keyboard-response","13","88828","0.0-6.0-0.1","49","","","","","pre trial waiting period","null","null","","","critical","d","c","t","160.6713","232.8713","240","164","164","240","trueblood","0.05","h","164","240","240","164","160.6713","232.8713","39360","39360","37415.7294","td","null","null","null","null","null","null","[3,1]","446.37885108643445","508.6455265982839","452.8420681150292"
"","canvas-keyboard-response","14","88850","0.0-6.0-1.1","49","","","","","clear_screen","null","null","","","critical","d","c","t","160.6713","232.8713","240","164","164","240","trueblood","0.05","h","164","240","240","164","160.6713","232.8713","39360","39360","37415.7294","td","null","null","null","null","null","null","[3,1]","446.37885108643445","508.6455265982839","452.8420681150292"
"","canvas-keyboard-response","15","89360","0.0-6.0-2.1","49","","","","","rectangles no change","null","null","","","critical","d","c","t","160.6713","232.8713","240","164","164","240","trueblood","0.05","h","164","240","240","164","160.6713","232.8713","39360","39360","37415.7294","td","null","null","null","null","null","null","[3,1]","446.37885108643445","508.6455265982839","452.8420681150292"
"","canvas-keyboard-response","16","90698","0.0-6.0-3.1","49","","","","","rectangles with change","null","null","","","critical","d","c","t","160.6713","232.8713","240","164","164","240","trueblood","0.05","h","164","240","240","164","160.6713","232.8713","39360","39360","37415.7294","td","null","null","null","null","null","null","[3,1]","446.37885108643445","508.6455265982839","452.8420681150292"
"","canvas-keyboard-response","17","90722","0.0-6.0-4.1","49","","","","","clear_screen","null","null","","","critical","d","c","t","160.6713","232.8713","240","164","164","240","trueblood","0.05","h","164","240","240","164","160.6713","232.8713","39360","39360","37415.7294","td","null","null","null","null","null","null","[3,1]","446.37885108643445","508.6455265982839","452.8420681150292"
"","canvas-keyboard-response","18","92044","0.0-6.0-5.1","49","","","","","make choice","1311","1","","","critical","d","c","t","160.6713","232.8713","240","164","164","240","trueblood","0.05","h","164","240","240","164","160.6713","232.8713","39360","39360","37415.7294","td","null","null","null","null","null","null","[3,1]","","",""
"","canvas-keyboard-response","19","92063","0.0-6.0-6.1","49","","","","","clear_screen","null","null","","","critical","d","c","t","160.6713","232.8713","240","164","164","240","trueblood","0.05","h","164","240","240","164","160.6713","232.8713","39360","39360","37415.7294","td","null","null","null","null","null","null","[3,1]","","",""
"","canvas-keyboard-response","20","92264","0.0-6.0-0.2","49","","","","","pre trial waiting period","null","null","","","critical","c","d","t","240","164","154.6796","220.0396","164","240","spektor","0.14","h","164","240","240","164","154.6796","220.0396","39360","39360","34035.6388","dc","null","null","null","null","null","null","[2,1]","509.0879968296302","116.03218004524389","495.09777804953274"
"","canvas-keyboard-response","21","92289","0.0-6.0-1.2","49","","","","","clear_screen","null","null","","","critical","c","d","t","240","164","154.6796","220.0396","164","240","spektor","0.14","h","164","240","240","164","154.6796","220.0396","39360","39360","34035.6388","dc","null","null","null","null","null","null","[2,1]","509.0879968296302","116.03218004524389","495.09777804953274"
"","canvas-keyboard-response","22","92799","0.0-6.0-2.2","49","","","","","rectangles no change","null","null","","","critical","c","d","t","240","164","154.6796","220.0396","164","240","spektor","0.14","h","164","240","240","164","154.6796","220.0396","39360","39360","34035.6388","dc","null","null","null","null","null","null","[2,1]","509.0879968296302","116.03218004524389","495.09777804953274"
"","canvas-keyboard-response","23","94136","0.0-6.0-3.2","49","","","","","rectangles with change","null","null","","","critical","c","d","t","240","164","154.6796","220.0396","164","240","spektor","0.14","h","164","240","240","164","154.6796","220.0396","39360","39360","34035.6388","dc","null","null","null","null","null","null","[2,1]","509.0879968296302","116.03218004524389","495.09777804953274"
"","canvas-keyboard-response","24","94159","0.0-6.0-4.2","49","","","","","clear_screen","null","null","","","critical","c","d","t","240","164","154.6796","220.0396","164","240","spektor","0.14","h","164","240","240","164","154.6796","220.0396","39360","39360","34035.6388","dc","null","null","null","null","null","null","[2,1]","509.0879968296302","116.03218004524389","495.09777804953274"
"","canvas-keyboard-response","25","94620","0.0-6.0-5.2","49","","","","","make choice","455","1","","","critical","c","d","t","240","164","154.6796","220.0396","164","240","spektor","0.14","h","164","240","240","164","154.6796","220.0396","39360","39360","34035.6388","dc","null","null","null","null","null","null","[2,1]","","",""
"","canvas-keyboard-response","26","94639","0.0-6.0-6.2","49","","","","","clear_screen","null","null","","","critical","c","d","t","240","164","154.6796","220.0396","164","240","spektor","0.14","h","164","240","240","164","154.6796","220.0396","39360","39360","34035.6388","dc","null","null","null","null","null","null","[2,1]","","",""
"","canvas-keyboard-response","27","94840","0.0-6.0-0.3","49","","","","","pre trial waiting period","null","null","","","catch","sh","l","sw","193","159","220","286","212","174","trueblood","null","null","null","null","null","null","null","null","null","null","null","","180","200","260","200","36000","52000","[2,3]","476.8782663117855","401.3701290869724","466.64681033181347"
"","canvas-keyboard-response","28","94861","0.0-6.0-1.3","49","","","","","clear_screen","null","null","","","catch","sh","l","sw","193","159","220","286","212","174","trueblood","null","null","null","null","null","null","null","null","null","null","null","","180","200","260","200","36000","52000","[2,3]","476.8782663117855","401.3701290869724","466.64681033181347"
"","canvas-keyboard-response","29","95369","0.0-6.0-2.3","49","","","","","rectangles no change","null","null","","","catch","sh","l","sw","193","159","220","286","212","174","trueblood","null","null","null","null","null","null","null","null","null","null","null","","180","200","260","200","36000","52000","[2,3]","476.8782663117855","401.3701290869724","466.64681033181347"
"","canvas-keyboard-response","30","96709","0.0-6.0-3.3","49","","","","","rectangles with change","null","null","","","catch","sh","l","sw","193","159","220","286","212","174","trueblood","null","null","null","null","null","null","null","null","null","null","null","","180","200","260","200","36000","52000","[2,3]","476.8782663117855","401.3701290869724","466.64681033181347"
"","canvas-keyboard-response","31","96729","0.0-6.0-4.3","49","","","","","clear_screen","null","null","","","catch","sh","l","sw","193","159","220","286","212","174","trueblood","null","null","null","null","null","null","null","null","null","null","null","","180","200","260","200","36000","52000","[2,3]","476.8782663117855","401.3701290869724","466.64681033181347"
"","canvas-keyboard-response","32","97629","0.0-6.0-5.3","49","","","","","make choice","894","2","","","catch","sh","l","sw","193","159","220","286","212","174","trueblood","null","null","null","null","null","null","null","null","null","null","null","","180","200","260","200","36000","52000","[2,3]","","",""
"","canvas-keyboard-response","33","97647","0.0-6.0-6.3","49","","","","","clear_screen","null","null","","","catch","sh","l","sw","193","159","220","286","212","174","trueblood","null","null","null","null","null","null","null","null","null","null","null","","180","200","260","200","36000","52000","[2,3]","","",""
"","canvas-keyboard-response","34","97849","0.0-6.0-0.4","49","","","","","pre trial waiting period","null","null","","","critical","c","d","t","240","164","162.6685","237.1485","164","240","trueblood","0.02","h","164","240","240","164","162.6685","237.1485","39360","39360","38576.5967","dc","null","null","null","null","null","null","[2,1]","496.1078978097275","443.1844416328594","420.9928577314588"
"","canvas-keyboard-response","35","97873","0.0-6.0-1.4","49","","","","","clear_screen","null","null","","","critical","c","d","t","240","164","162.6685","237.1485","164","240","trueblood","0.02","h","164","240","240","164","162.6685","237.1485","39360","39360","38576.5967","dc","null","null","null","null","null","null","[2,1]","496.1078978097275","443.1844416328594","420.9928577314588"
"","canvas-keyboard-response","36","98381","0.0-6.0-2.4","49","","","","","rectangles no change","null","null","","","critical","c","d","t","240","164","162.6685","237.1485","164","240","trueblood","0.02","h","164","240","240","164","162.6685","237.1485","39360","39360","38576.5967","dc","null","null","null","null","null","null","[2,1]","496.1078978097275","443.1844416328594","420.9928577314588"
"","canvas-keyboard-response","37","99716","0.0-6.0-3.4","49","","","","","rectangles with change","null","null","","","critical","c","d","t","240","164","162.6685","237.1485","164","240","trueblood","0.02","h","164","240","240","164","162.6685","237.1485","39360","39360","38576.5967","dc","null","null","null","null","null","null","[2,1]","496.1078978097275","443.1844416328594","420.9928577314588"
"","canvas-keyboard-response","38","99740","0.0-6.0-4.4","49","","","","","clear_screen","null","null","","","critical","c","d","t","240","164","162.6685","237.1485","164","240","trueblood","0.02","h","164","240","240","164","162.6685","237.1485","39360","39360","38576.5967","dc","null","null","null","null","null","null","[2,1]","496.1078978097275","443.1844416328594","420.9928577314588"
"","canvas-keyboard-response","39","100869","0.0-6.0-5.4","49","","","","","make choice","1121","1","","","critical","c","d","t","240","164","162.6685","237.1485","164","240","trueblood","0.02","h","164","240","240","164","162.6685","237.1485","39360","39360","38576.5967","dc","null","null","null","null","null","null","[2,1]","","",""
"","canvas-keyboard-response","40","100889","0.0-6.0-6.4","49","","","","","clear_screen","null","null","","","critical","c","d","t","240","164","162.6685","237.1485","164","240","trueblood","0.02","h","164","240","240","164","162.6685","237.1485","39360","39360","38576.5967","dc","null","null","null","null","null","null","[2,1]","","",""
"","canvas-keyboard-response","41","101091","0.0-6.0-0.5","49","","","","","pre trial waiting period","null","null","","","critical","t","c","d","240","164","164","240","227.1683","158.0083","trueblood","0.09","w","240","164","164","240","227.1683","158.0083","39360","39360","35894.4834","dc","null","null","null","null","null","null","[3,2]","495.7161241336662","453.316804378647","487.57613225325395"
"","canvas-keyboard-response","42","101112","0.0-6.0-1.5","49","","","","","clear_screen","null","null","","","critical","t","c","d","240","164","164","240","227.1683","158.0083","trueblood","0.09","w","240","164","164","240","227.1683","158.0083","39360","39360","35894.4834","dc","null","null","null","null","null","null","[3,2]","495.7161241336662","453.316804378647","487.57613225325395"
"","canvas-keyboard-response","43","101618","0.0-6.0-2.5","49","","","","","rectangles no change","null","null","","","critical","t","c","d","240","164","164","240","227.1683","158.0083","trueblood","0.09","w","240","164","164","240","227.1683","158.0083","39360","39360","35894.4834","dc","null","null","null","null","null","null","[3,2]","495.7161241336662","453.316804378647","487.57613225325395"
"","canvas-keyboard-response","44","102957","0.0-6.0-3.5","49","","","","","rectangles with change","null","null","","","critical","t","c","d","240","164","164","240","227.1683","158.0083","trueblood","0.09","w","240","164","164","240","227.1683","158.0083","39360","39360","35894.4834","dc","null","null","null","null","null","null","[3,2]","495.7161241336662","453.316804378647","487.57613225325395"
"","canvas-keyboard-response","45","102976","0.0-6.0-4.5","49","","","","","clear_screen","null","null","","","critical","t","c","d","240","164","164","240","227.1683","158.0083","trueblood","0.09","w","240","164","164","240","227.1683","158.0083","39360","39360","35894.4834","dc","null","null","null","null","null","null","[3,2]","495.7161241336662","453.316804378647","487.57613225325395"
"","canvas-keyboard-response","46","103940","0.0-6.0-5.5","49","","","","","make choice","956","3","","","critical","t","c","d","240","164","164","240","227.1683","158.0083","trueblood","0.09","w","240","164","164","240","227.1683","158.0083","39360","39360","35894.4834","dc","null","null","null","null","null","null","[3,2]","","",""
"","canvas-keyboard-response","47","103958","0.0-6.0-6.5","49","","","","","clear_screen","null","null","","","critical","t","c","d","240","164","164","240","227.1683","158.0083","trueblood","0.09","w","240","164","164","240","227.1683","158.0083","39360","39360","35894.4834","dc","null","null","null","null","null","null","[3,2]","","",""
"","canvas-keyboard-response","48","104159","0.0-6.0-0.6","49","","","","","pre trial waiting period","null","null","","","catch","sw","l","sh","180","200","261","219","218","194","trueblood","null","null","null","null","null","null","null","null","null","null","null","","180","200","260","200","36000","52000","[2,3]","468.33236918952036","445.3767138417173","464.2734851073137"
"","canvas-keyboard-response","49","104180","0.0-6.0-1.6","49","","","","","clear_screen","null","null","","","catch","sw","l","sh","180","200","261","219","218","194","trueblood","null","null","null","null","null","null","null","null","null","null","null","","180","200","260","200","36000","52000","[2,3]","468.33236918952036","445.3767138417173","464.2734851073137"
"","canvas-keyboard-response","50","104687","0.0-6.0-2.6","49","","","","","rectangles no change","null","null","","","catch","sw","l","sh","180","200","261","219","218","194","trueblood","null","null","null","null","null","null","null","null","null","null","null","","180","200","260","200","36000","52000","[2,3]","468.33236918952036","445.3767138417173","464.2734851073137"
"","canvas-keyboard-response","51","106024","0.0-6.0-3.6","49","","","","","rectangles with change","null","null","","","catch","sw","l","sh","180","200","261","219","218","194","trueblood","null","null","null","null","null","null","null","null","null","null","null","","180","200","260","200","36000","52000","[2,3]","468.33236918952036","445.3767138417173","464.2734851073137"
"","canvas-keyboard-response","52","106047","0.0-6.0-4.6","49","","","","","clear_screen","null","null","","","catch","sw","l","sh","180","200","261","219","218","194","trueblood","null","null","null","null","null","null","null","null","null","null","null","","180","200","260","200","36000","52000","[2,3]","468.33236918952036","445.3767138417173","464.2734851073137"
"","canvas-keyboard-response","53","106596","0.0-6.0-5.6","49","","","","","make choice","543","2","","","catch","sw","l","sh","180","200","261","219","218","194","trueblood","null","null","null","null","null","null","null","null","null","null","null","","180","200","260","200","36000","52000","[2,3]","","",""
"","canvas-keyboard-response","54","106617","0.0-6.0-6.6","49","","","","","clear_screen","null","null","","","catch","sw","l","sh","180","200","261","219","218","194","trueblood","null","null","null","null","null","null","null","null","null","null","null","","180","200","260","200","36000","52000","[2,3]","","",""
"","canvas-keyboard-response","55","106817","0.0-6.0-0.7","49","","","","","pre trial waiting period","null","null","","","catch","sh","sw","l","197","148","203","168","239","206","spektor","null","null","null","null","null","null","null","null","null","null","null","","180","200","260","200","36000","52000","[2,3]","519.5994287502641","191.5888504083947","484.27835125072056"
"","canvas-keyboard-response","56","106841","0.0-6.0-1.7","49","","","","","clear_screen","null","null","","","catch","sh","sw","l","197","148","203","168","239","206","spektor","null","null","null","null","null","null","null","null","null","null","null","","180","200","260","200","36000","52000","[2,3]","519.5994287502641","191.5888504083947","484.27835125072056"
"","canvas-keyboard-response","57","107352","0.0-6.0-2.7","49","","","","","rectangles no change","null","null","","","catch","sh","sw","l","197","148","203","168","239","206","spektor","null","null","null","null","null","null","null","null","null","null","null","","180","200","260","200","36000","52000","[2,3]","519.5994287502641","191.5888504083947","484.27835125072056"
"","canvas-keyboard-response","58","108689","0.0-6.0-3.7","49","","","","","rectangles with change","null","null","","","catch","sh","sw","l","197","148","203","168","239","206","spektor","null","null","null","null","null","null","null","null","null","null","null","","180","200","260","200","36000","52000","[2,3]","519.5994287502641","191.5888504083947","484.27835125072056"
"","canvas-keyboard-response","59","108710","0.0-6.0-4.7","49","","","","","clear_screen","null","null","","","catch","sh","sw","l","197","148","203","168","239","206","spektor","null","null","null","null","null","null","null","null","null","null","null","","180","200","260","200","36000","52000","[2,3]","519.5994287502641","191.5888504083947","484.27835125072056"
"","canvas-keyboard-response","60","109156","0.0-6.0-5.7","49","","","","","make choice","440","3","","","catch","sh","sw","l","197","148","203","168","239","206","spektor","null","null","null","null","null","null","null","null","null","null","null","","180","200","260","200","36000","52000","[2,3]","","",""
"","canvas-keyboard-response","61","109175","0.0-6.0-6.7","49","","","","","clear_screen","null","null","","","catch","sh","sw","l","197","148","203","168","239","206","spektor","null","null","null","null","null","null","null","null","null","null","null","","180","200","260","200","36000","52000","[2,3]","","",""
"","canvas-keyboard-response","62","109375","0.0-6.0-0.8","49","","","","","pre trial waiting period","null","null","","","critical","d","c","t","164","240","240","164","164","240","trueblood","0","h","164","240","240","164","164","240","39360","39360","39360","dc","null","null","null","null","null","null","[1,2]","466.29991529411603","471.2219829022496","443.98696077823007"
"","canvas-keyboard-response","63","109398","0.0-6.0-1.8","49","","","","","clear_screen","null","null","","","critical","d","c","t","164","240","240","164","164","240","trueblood","0","h","164","240","240","164","164","240","39360","39360","39360","dc","null","null","null","null","null","null","[1,2]","466.29991529411603","471.2219829022496","443.98696077823007"
"","canvas-keyboard-response","64","109906","0.0-6.0-2.8","49","","","","","rectangles no change","null","null","","","critical","d","c","t","164","240","240","164","164","240","trueblood","0","h","164","240","240","164","164","240","39360","39360","39360","dc","null","null","null","null","null","null","[1,2]","466.29991529411603","471.2219829022496","443.98696077823007"
"","canvas-keyboard-response","65","111245","0.0-6.0-3.8","49","","","","","rectangles with change","null","null","","","critical","d","c","t","164","240","240","164","164","240","trueblood","0","h","164","240","240","164","164","240","39360","39360","39360","dc","null","null","null","null","null","null","[1,2]","466.29991529411603","471.2219829022496","443.98696077823007"
"","canvas-keyboard-response","66","111268","0.0-6.0-4.8","49","","","","","clear_screen","null","null","","","critical","d","c","t","164","240","240","164","164","240","trueblood","0","h","164","240","240","164","164","240","39360","39360","39360","dc","null","null","null","null","null","null","[1,2]","466.29991529411603","471.2219829022496","443.98696077823007"
"","canvas-keyboard-response","67","111724","0.0-6.0-5.8","49","","","","","make choice","450","2","","","critical","d","c","t","164","240","240","164","164","240","trueblood","0","h","164","240","240","164","164","240","39360","39360","39360","dc","null","null","null","null","null","null","[1,2]","","",""
"","canvas-keyboard-response","68","111745","0.0-6.0-6.8","49","","","","","clear_screen","null","null","","","critical","d","c","t","164","240","240","164","164","240","trueblood","0","h","164","240","240","164","164","240","39360","39360","39360","dc","null","null","null","null","null","null","[1,2]","","",""
"","canvas-keyboard-response","69","111945","0.0-6.0-0.9","49","","","","","pre trial waiting period","null","null","","","critical","c","t","d","164","240","240","164","232.8713","160.6713","spektor","0.05","w","240","164","164","240","232.8713","160.6713","39360","39360","37415.7294","td","null","null","null","null","null","null","[2,3]","471.3942480983093","193.5921765776848","533.7383010205913"
"","canvas-keyboard-response","70","111965","0.0-6.0-1.9","49","","","","","clear_screen","null","null","","","critical","c","t","d","164","240","240","164","232.8713","160.6713","spektor","0.05","w","240","164","164","240","232.8713","160.6713","39360","39360","37415.7294","td","null","null","null","null","null","null","[2,3]","471.3942480983093","193.5921765776848","533.7383010205913"
"","canvas-keyboard-response","71","112474","0.0-6.0-2.9","49","","","","","rectangles no change","null","null","","","critical","c","t","d","164","240","240","164","232.8713","160.6713","spektor","0.05","w","240","164","164","240","232.8713","160.6713","39360","39360","37415.7294","td","null","null","null","null","null","null","[2,3]","471.3942480983093","193.5921765776848","533.7383010205913"
"","canvas-keyboard-response","72","113814","0.0-6.0-3.9","49","","","","","rectangles with change","null","null","","","critical","c","t","d","164","240","240","164","232.8713","160.6713","spektor","0.05","w","240","164","164","240","232.8713","160.6713","39360","39360","37415.7294","td","null","null","null","null","null","null","[2,3]","471.3942480983093","193.5921765776848","533.7383010205913"
"","canvas-keyboard-response","73","113837","0.0-6.0-4.9","49","","","","","clear_screen","null","null","","","critical","c","t","d","164","240","240","164","232.8713","160.6713","spektor","0.05","w","240","164","164","240","232.8713","160.6713","39360","39360","37415.7294","td","null","null","null","null","null","null","[2,3]","471.3942480983093","193.5921765776848","533.7383010205913"
"","canvas-keyboard-response","74","114388","0.0-6.0-5.9","49","","","","","make choice","545","2","","","critical","c","t","d","164","240","240","164","232.8713","160.6713","spektor","0.05","w","240","164","164","240","232.8713","160.6713","39360","39360","37415.7294","td","null","null","null","null","null","null","[2,3]","","",""
"","canvas-keyboard-response","75","114406","0.0-6.0-6.9","49","","","","","clear_screen","null","null","","","critical","c","t","d","164","240","240","164","232.8713","160.6713","spektor","0.05","w","240","164","164","240","232.8713","160.6713","39360","39360","37415.7294","td","null","null","null","null","null","null","[2,3]","","",""
"","canvas-keyboard-response","76","114608","0.0-6.0-0.10","49","","","","","pre trial waiting period","null","null","","","critical","c","t","d","240","164","164","240","158.0083","227.1683","spektor","0.09","h","164","240","240","164","158.0083","227.1683","39360","39360","35894.4834","dc","null","null","null","null","null","null","[3,1]","509.3999073073355","137.23706068453222","501.40248747264206"
"","canvas-keyboard-response","77","114629","0.0-6.0-1.10","49","","","","","clear_screen","null","null","","","critical","c","t","d","240","164","164","240","158.0083","227.1683","spektor","0.09","h","164","240","240","164","158.0083","227.1683","39360","39360","35894.4834","dc","null","null","null","null","null","null","[3,1]","509.3999073073355","137.23706068453222","501.40248747264206"
"","canvas-keyboard-response","78","115138","0.0-6.0-2.10","49","","","","","rectangles no change","null","null","","","critical","c","t","d","240","164","164","240","158.0083","227.1683","spektor","0.09","h","164","240","240","164","158.0083","227.1683","39360","39360","35894.4834","dc","null","null","null","null","null","null","[3,1]","509.3999073073355","137.23706068453222","501.40248747264206"
"","canvas-keyboard-response","79","116478","0.0-6.0-3.10","49","","","","","rectangles with change","null","null","","","critical","c","t","d","240","164","164","240","158.0083","227.1683","spektor","0.09","h","164","240","240","164","158.0083","227.1683","39360","39360","35894.4834","dc","null","null","null","null","null","null","[3,1]","509.3999073073355","137.23706068453222","501.40248747264206"
"","canvas-keyboard-response","80","116496","0.0-6.0-4.10","49","","","","","clear_screen","null","null","","","critical","c","t","d","240","164","164","240","158.0083","227.1683","spektor","0.09","h","164","240","240","164","158.0083","227.1683","39360","39360","35894.4834","dc","null","null","null","null","null","null","[3,1]","509.3999073073355","137.23706068453222","501.40248747264206"
"","canvas-keyboard-response","81","117068","0.0-6.0-5.10","49","","","","","make choice","564","1","","","critical","c","t","d","240","164","164","240","158.0083","227.1683","spektor","0.09","h","164","240","240","164","158.0083","227.1683","39360","39360","35894.4834","dc","null","null","null","null","null","null","[3,1]","","",""
"","canvas-keyboard-response","82","117088","0.0-6.0-6.10","49","","","","","clear_screen","null","null","","","critical","c","t","d","240","164","164","240","158.0083","227.1683","spektor","0.09","h","164","240","240","164","158.0083","227.1683","39360","39360","35894.4834","dc","null","null","null","null","null","null","[3,1]","","",""
"","canvas-keyboard-response","83","117290","0.0-6.0-0.11","49","","","","","pre trial waiting period","null","null","","","critical","c","d","t","240","164","162.6685","237.1485","164","240","trueblood","0.02","h","164","240","240","164","162.6685","237.1485","39360","39360","38576.5967","tc","null","null","null","null","null","null","[3,1]","491.0596093529964","469.38813644389694","468.9308079074126"
"","canvas-keyboard-response","84","117314","0.0-6.0-1.11","49","","","","","clear_screen","null","null","","","critical","c","d","t","240","164","162.6685","237.1485","164","240","trueblood","0.02","h","164","240","240","164","162.6685","237.1485","39360","39360","38576.5967","tc","null","null","null","null","null","null","[3,1]","491.0596093529964","469.38813644389694","468.9308079074126"
"","canvas-keyboard-response","85","117822","0.0-6.0-2.11","49","","","","","rectangles no change","null","null","","","critical","c","d","t","240","164","162.6685","237.1485","164","240","trueblood","0.02","h","164","240","240","164","162.6685","237.1485","39360","39360","38576.5967","tc","null","null","null","null","null","null","[3,1]","491.0596093529964","469.38813644389694","468.9308079074126"
"","canvas-keyboard-response","86","119158","0.0-6.0-3.11","49","","","","","rectangles with change","null","null","","","critical","c","d","t","240","164","162.6685","237.1485","164","240","trueblood","0.02","h","164","240","240","164","162.6685","237.1485","39360","39360","38576.5967","tc","null","null","null","null","null","null","[3,1]","491.0596093529964","469.38813644389694","468.9308079074126"
"","canvas-keyboard-response","87","119178","0.0-6.0-4.11","49","","","","","clear_screen","null","null","","","critical","c","d","t","240","164","162.6685","237.1485","164","240","trueblood","0.02","h","164","240","240","164","162.6685","237.1485","39360","39360","38576.5967","tc","null","null","null","null","null","null","[3,1]","491.0596093529964","469.38813644389694","468.9308079074126"
"","canvas-keyboard-response","88","119621","0.0-6.0-5.11","49","","","","","make choice","437","1","","","critical","c","d","t","240","164","162.6685","237.1485","164","240","trueblood","0.02","h","164","240","240","164","162.6685","237.1485","39360","39360","38576.5967","tc","null","null","null","null","null","null","[3,1]","","",""
"","canvas-keyboard-response","89","119639","0.0-6.0-6.11","49","","","","","clear_screen","null","null","","","critical","c","d","t","240","164","162.6685","237.1485","164","240","trueblood","0.02","h","164","240","240","164","162.6685","237.1485","39360","39360","38576.5967","tc","null","null","null","null","null","null","[3,1]","","",""
"","canvas-keyboard-response","90","119839","0.0-6.0-0.12","49","","","","","pre trial waiting period","null","null","","","catch","sw","l","sh","180","200","288","226","163","208","trueblood","null","null","null","null","null","null","null","null","null","null","null","","180","200","260","200","36000","52000","[1,2]","492.98801531354076","467.24333556462415","459.57617279625026"
"","canvas-keyboard-response","91","119862","0.0-6.0-1.12","49","","","","","clear_screen","null","null","","","catch","sw","l","sh","180","200","288","226","163","208","trueblood","null","null","null","null","null","null","null","null","null","null","null","","180","200","260","200","36000","52000","[1,2]","492.98801531354076","467.24333556462415","459.57617279625026"
"","canvas-keyboard-response","92","120370","0.0-6.0-2.12","49","","","","","rectangles no change","null","null","","","catch","sw","l","sh","180","200","288","226","163","208","trueblood","null","null","null","null","null","null","null","null","null","null","null","","180","200","260","200","36000","52000","[1,2]","492.98801531354076","467.24333556462415","459.57617279625026"
"","canvas-keyboard-response","93","121709","0.0-6.0-3.12","49","","","","","rectangles with change","null","null","","","catch","sw","l","sh","180","200","288","226","163","208","trueblood","null","null","null","null","null","null","null","null","null","null","null","","180","200","260","200","36000","52000","[1,2]","492.98801531354076","467.24333556462415","459.57617279625026"
"","canvas-keyboard-response","94","121729","0.0-6.0-4.12","49","","","","","clear_screen","null","null","","","catch","sw","l","sh","180","200","288","226","163","208","trueblood","null","null","null","null","null","null","null","null","null","null","null","","180","200","260","200","36000","52000","[1,2]","492.98801531354076","467.24333556462415","459.57617279625026"
"","canvas-keyboard-response","95","122141","0.0-6.0-5.12","49","","","","","make choice","400","2","","","catch","sw","l","sh","180","200","288","226","163","208","trueblood","null","null","null","null","null","null","null","null","null","null","null","","180","200","260","200","36000","52000","[1,2]","","",""
"","canvas-keyboard-response","96","122161","0.0-6.0-6.12","49","","","","","clear_screen","null","null","","","catch","sw","l","sh","180","200","288","226","163","208","trueblood","null","null","null","null","null","null","null","null","null","null","null","","180","200","260","200","36000","52000","[1,2]","","",""
"","canvas-keyboard-response","97","122362","0.0-6.0-0.13","49","","","","","pre trial waiting period","null","null","","","catch","l","sh","sw","171","222","224","201","150","164","spektor","null","null","null","null","null","null","null","null","null","null","null","","180","200","260","200","36000","52000","[1,3]","470.9638956864023","141.01204771597395","507.36980703106747"
"","canvas-keyboard-response","98","122382","0.0-6.0-1.13","49","","","","","clear_screen","null","null","","","catch","l","sh","sw","171","222","224","201","150","164","spektor","null","null","null","null","null","null","null","null","null","null","null","","180","200","260","200","36000","52000","[1,3]","470.9638956864023","141.01204771597395","507.36980703106747"
"","canvas-keyboard-response","99","122891","0.0-6.0-2.13","49","","","","","rectangles no change","null","null","","","catch","l","sh","sw","171","222","224","201","150","164","spektor","null","null","null","null","null","null","null","null","null","null","null","","180","200","260","200","36000","52000","[1,3]","470.9638956864023","141.01204771597395","507.36980703106747"
"","canvas-keyboard-response","100","124226","0.0-6.0-3.13","49","","","","","rectangles with change","null","null","","","catch","l","sh","sw","171","222","224","201","150","164","spektor","null","null","null","null","null","null","null","null","null","null","null","","180","200","260","200","36000","52000","[1,3]","470.9638956864023","141.01204771597395","507.36980703106747"
"","canvas-keyboard-response","101","124249","0.0-6.0-4.13","49","","","","","clear_screen","null","null","","","catch","l","sh","sw","171","222","224","201","150","164","spektor","null","null","null","null","null","null","null","null","null","null","null","","180","200","260","200","36000","52000","[1,3]","470.9638956864023","141.01204771597395","507.36980703106747"
"","canvas-keyboard-response","102","124724","0.0-6.0-5.13","49","","","","","make choice","469","1","","","catch","l","sh","sw","171","222","224","201","150","164","spektor","null","null","null","null","null","null","null","null","null","null","null","","180","200","260","200","36000","52000","[1,3]","","",""
"","canvas-keyboard-response","103","124744","0.0-6.0-6.13","49","","","","","clear_screen","null","null","","","catch","l","sh","sw","171","222","224","201","150","164","spektor","null","null","null","null","null","null","null","null","null","null","null","","180","200","260","200","36000","52000","[1,3]","","",""
"","canvas-keyboard-response","104","124945","0.0-6.0-0.14","49","","","","","pre trial waiting period","null","null","","","critical","t","c","d","240","164","164","240","237.1485","162.6685","trueblood","0.02","w","240","164","164","240","237.1485","162.6685","39360","39360","38576.5967","td","null","null","null","null","null","null","[1,3]","477.1175735818722","433.9457094199148","511.71012177299014"
"","canvas-keyboard-response","105","124969","0.0-6.0-1.14","49","","","","","clear_screen","null","null","","","critical","t","c","d","240","164","164","240","237.1485","162.6685","trueblood","0.02","w","240","164","164","240","237.1485","162.6685","39360","39360","38576.5967","td","null","null","null","null","null","null","[1,3]","477.1175735818722","433.9457094199148","511.71012177299014"
"","canvas-keyboard-response","106","125478","0.0-6.0-2.14","49","","","","","rectangles no change","null","null","","","critical","t","c","d","240","164","164","240","237.1485","162.6685","trueblood","0.02","w","240","164","164","240","237.1485","162.6685","39360","39360","38576.5967","td","null","null","null","null","null","null","[1,3]","477.1175735818722","433.9457094199148","511.71012177299014"
"","canvas-keyboard-response","107","126817","0.0-6.0-3.14","49","","","","","rectangles with change","null","null","","","critical","t","c","d","240","164","164","240","237.1485","162.6685","trueblood","0.02","w","240","164","164","240","237.1485","162.6685","39360","39360","38576.5967","td","null","null","null","null","null","null","[1,3]","477.1175735818722","433.9457094199148","511.71012177299014"
"","canvas-keyboard-response","108","126836","0.0-6.0-4.14","49","","","","","clear_screen","null","null","","","critical","t","c","d","240","164","164","240","237.1485","162.6685","trueblood","0.02","w","240","164","164","240","237.1485","162.6685","39360","39360","38576.5967","td","null","null","null","null","null","null","[1,3]","477.1175735818722","433.9457094199148","511.71012177299014"
"","canvas-keyboard-response","109","127340","0.0-6.0-5.14","49","","","","","make choice","497","3","","","critical","t","c","d","240","164","164","240","237.1485","162.6685","trueblood","0.02","w","240","164","164","240","237.1485","162.6685","39360","39360","38576.5967","td","null","null","null","null","null","null","[1,3]","","",""
"","canvas-keyboard-response","110","127361","0.0-6.0-6.14","49","","","","","clear_screen","null","null","","","critical","t","c","d","240","164","164","240","237.1485","162.6685","trueblood","0.02","w","240","164","164","240","237.1485","162.6685","39360","39360","38576.5967","td","null","null","null","null","null","null","[1,3]","","",""
"","canvas-keyboard-response","111","127562","0.0-6.0-0.15","49","","","","","pre trial waiting period","null","null","","","critical","d","t","c","240","164","240","164","164","240","spektor","0","w","240","164","164","240","240","164","39360","39360","39360","td","null","null","null","null","null","null","[2,1]","527.158152843386","215.8875216378835","481.7131583962847"
"","canvas-keyboard-response","112","127585","0.0-6.0-1.15","49","","","","","clear_screen","null","null","","","critical","d","t","c","240","164","240","164","164","240","spektor","0","w","240","164","164","240","240","164","39360","39360","39360","td","null","null","null","null","null","null","[2,1]","527.158152843386","215.8875216378835","481.7131583962847"
"","canvas-keyboard-response","113","128093","0.0-6.0-2.15","49","","","","","rectangles no change","null","null","","","critical","d","t","c","240","164","240","164","164","240","spektor","0","w","240","164","164","240","240","164","39360","39360","39360","td","null","null","null","null","null","null","[2,1]","527.158152843386","215.8875216378835","481.7131583962847"
"","canvas-keyboard-response","114","129433","0.0-6.0-3.15","49","","","","","rectangles with change","null","null","","","critical","d","t","c","240","164","240","164","164","240","spektor","0","w","240","164","164","240","240","164","39360","39360","39360","td","null","null","null","null","null","null","[2,1]","527.158152843386","215.8875216378835","481.7131583962847"
"","canvas-keyboard-response","115","129454","0.0-6.0-4.15","49","","","","","clear_screen","null","null","","","critical","d","t","c","240","164","240","164","164","240","spektor","0","w","240","164","164","240","240","164","39360","39360","39360","td","null","null","null","null","null","null","[2,1]","527.158152843386","215.8875216378835","481.7131583962847"
"","canvas-keyboard-response","116","129980","0.0-6.0-5.15","49","","","","","make choice","522","1","","","critical","d","t","c","240","164","240","164","164","240","spektor","0","w","240","164","164","240","240","164","39360","39360","39360","td","null","null","null","null","null","null","[2,1]","","",""
"","canvas-keyboard-response","117","130001","0.0-6.0-6.15","49","","","","","clear_screen","null","null","","","critical","d","t","c","240","164","240","164","164","240","spektor","0","w","240","164","164","240","240","164","39360","39360","39360","td","null","null","null","null","null","null","[2,1]","","",""
"","canvas-keyboard-response","118","130202","0.0-6.0-0.16","49","","","","","pre trial waiting period","null","null","","","critical","d","c","t","158.0083","227.1683","240","164","164","240","trueblood","0.09","h","164","240","240","164","158.0083","227.1683","39360","39360","35894.4834","dc","null","null","null","null","null","null","[1,2]","433.5089738742578","487.9650159243122","463.42967901451823"
"","canvas-keyboard-response","119","130222","0.0-6.0-1.16","49","","","","","clear_screen","null","null","","","critical","d","c","t","158.0083","227.1683","240","164","164","240","trueblood","0.09","h","164","240","240","164","158.0083","227.1683","39360","39360","35894.4834","dc","null","null","null","null","null","null","[1,2]","433.5089738742578","487.9650159243122","463.42967901451823"
"","canvas-keyboard-response","120","130728","0.0-6.0-2.16","49","","","","","rectangles no change","null","null","","","critical","d","c","t","158.0083","227.1683","240","164","164","240","trueblood","0.09","h","164","240","240","164","158.0083","227.1683","39360","39360","35894.4834","dc","null","null","null","null","null","null","[1,2]","433.5089738742578","487.9650159243122","463.42967901451823"
"","canvas-keyboard-response","121","132065","0.0-6.0-3.16","49","","","","","rectangles with change","null","null","","","critical","d","c","t","158.0083","227.1683","240","164","164","240","trueblood","0.09","h","164","240","240","164","158.0083","227.1683","39360","39360","35894.4834","dc","null","null","null","null","null","null","[1,2]","433.5089738742578","487.9650159243122","463.42967901451823"
"","canvas-keyboard-response","122","132084","0.0-6.0-4.16","49","","","","","clear_screen","null","null","","","critical","d","c","t","158.0083","227.1683","240","164","164","240","trueblood","0.09","h","164","240","240","164","158.0083","227.1683","39360","39360","35894.4834","dc","null","null","null","null","null","null","[1,2]","433.5089738742578","487.9650159243122","463.42967901451823"
"","canvas-keyboard-response","123","132500","0.0-6.0-5.16","49","","","","","make choice","408","2","","","critical","d","c","t","158.0083","227.1683","240","164","164","240","trueblood","0.09","h","164","240","240","164","158.0083","227.1683","39360","39360","35894.4834","dc","null","null","null","null","null","null","[1,2]","","",""
"","canvas-keyboard-response","124","132519","0.0-6.0-6.16","49","","","","","clear_screen","null","null","","","critical","d","c","t","158.0083","227.1683","240","164","164","240","trueblood","0.09","h","164","240","240","164","158.0083","227.1683","39360","39360","35894.4834","dc","null","null","null","null","null","null","[1,2]","","",""
"","canvas-keyboard-response","125","132719","0.0-6.0-0.17","49","","","","","pre trial waiting period","null","null","","","catch","sh","l","sw","196","164","167","245","208","201","spektor","null","null","null","null","null","null","null","null","null","null","null","","180","200","260","200","36000","52000","[2,3]","539.9106543660197","128.12386728018004","490.3804102883086"
"","canvas-keyboard-response","126","132743","0.0-6.0-1.17","49","","","","","clear_screen","null","null","","","catch","sh","l","sw","196","164","167","245","208","201","spektor","null","null","null","null","null","null","null","null","null","null","null","","180","200","260","200","36000","52000","[2,3]","539.9106543660197","128.12386728018004","490.3804102883086"
"","canvas-keyboard-response","127","133250","0.0-6.0-2.17","49","","","","","rectangles no change","null","null","","","catch","sh","l","sw","196","164","167","245","208","201","spektor","null","null","null","null","null","null","null","null","null","null","null","","180","200","260","200","36000","52000","[2,3]","539.9106543660197","128.12386728018004","490.3804102883086"
"","canvas-keyboard-response","128","134589","0.0-6.0-3.17","49","","","","","rectangles with change","null","null","","","catch","sh","l","sw","196","164","167","245","208","201","spektor","null","null","null","null","null","null","null","null","null","null","null","","180","200","260","200","36000","52000","[2,3]","539.9106543660197","128.12386728018004","490.3804102883086"
"","canvas-keyboard-response","129","134613","0.0-6.0-4.17","49","","","","","clear_screen","null","null","","","catch","sh","l","sw","196","164","167","245","208","201","spektor","null","null","null","null","null","null","null","null","null","null","null","","180","200","260","200","36000","52000","[2,3]","539.9106543660197","128.12386728018004","490.3804102883086"
"","canvas-keyboard-response","130","135204","0.0-6.0-5.17","49","","","","","make choice","586","3","","","catch","sh","l","sw","196","164","167","245","208","201","spektor","null","null","null","null","null","null","null","null","null","null","null","","180","200","260","200","36000","52000","[2,3]","","",""
"","canvas-keyboard-response","131","135225","0.0-6.0-6.17","49","","","","","clear_screen","null","null","","","catch","sh","l","sw","196","164","167","245","208","201","spektor","null","null","null","null","null","null","null","null","null","null","null","","180","200","260","200","36000","52000","[2,3]","","",""
"","canvas-keyboard-response","132","135426","0.0-6.0-0.18","49","","","","","pre trial waiting period","null","null","","","catch","sw","l","sh","180","200","213","294","170","193","spektor","null","null","null","null","null","null","null","null","null","null","null","","180","200","260","200","36000","52000","[2,3]","505.1596076614984","84.62693317423256","516.2346234746034"
"","canvas-keyboard-response","133","135449","0.0-6.0-1.18","49","","","","","clear_screen","null","null","","","catch","sw","l","sh","180","200","213","294","170","193","spektor","null","null","null","null","null","null","null","null","null","null","null","","180","200","260","200","36000","52000","[2,3]","505.1596076614984","84.62693317423256","516.2346234746034"
"","canvas-keyboard-response","134","135960","0.0-6.0-2.18","49","","","","","rectangles no change","null","null","","","catch","sw","l","sh","180","200","213","294","170","193","spektor","null","null","null","null","null","null","null","null","null","null","null","","180","200","260","200","36000","52000","[2,3]","505.1596076614984","84.62693317423256","516.2346234746034"
"","canvas-keyboard-response","135","137298","0.0-6.0-3.18","49","","","","","rectangles with change","null","null","","","catch","sw","l","sh","180","200","213","294","170","193","spektor","null","null","null","null","null","null","null","null","null","null","null","","180","200","260","200","36000","52000","[2,3]","505.1596076614984","84.62693317423256","516.2346234746034"
"","canvas-keyboard-response","136","137319","0.0-6.0-4.18","49","","","","","clear_screen","null","null","","","catch","sw","l","sh","180","200","213","294","170","193","spektor","null","null","null","null","null","null","null","null","null","null","null","","180","200","260","200","36000","52000","[2,3]","505.1596076614984","84.62693317423256","516.2346234746034"
"","canvas-keyboard-response","137","137829","0.0-6.0-5.18","49","","","","","make choice","504","2","","","catch","sw","l","sh","180","200","213","294","170","193","spektor","null","null","null","null","null","null","null","null","null","null","null","","180","200","260","200","36000","52000","[2,3]","","",""
"","canvas-keyboard-response","138","137849","0.0-6.0-6.18","49","","","","","clear_screen","null","null","","","catch","sw","l","sh","180","200","213","294","170","193","spektor","null","null","null","null","null","null","null","null","null","null","null","","180","200","260","200","36000","52000","[2,3]","","",""
"","canvas-keyboard-response","139","138050","0.0-6.0-0.19","49","","","","","pre trial waiting period","null","null","","","critical","c","t","d","164","240","240","164","227.1683","158.0083","spektor","0.09","w","240","164","164","240","227.1683","158.0083","39360","39360","35894.4834","tc","null","null","null","null","null","null","[2,1]","463.6264437115182","207.8500281004117","509.2067192872513"
"","canvas-keyboard-response","140","138068","0.0-6.0-1.19","49","","","","","clear_screen","null","null","","","critical","c","t","d","164","240","240","164","227.1683","158.0083","spektor","0.09","w","240","164","164","240","227.1683","158.0083","39360","39360","35894.4834","tc","null","null","null","null","null","null","[2,1]","463.6264437115182","207.8500281004117","509.2067192872513"
"","canvas-keyboard-response","141","138579","0.0-6.0-2.19","49","","","","","rectangles no change","null","null","","","critical","c","t","d","164","240","240","164","227.1683","158.0083","spektor","0.09","w","240","164","164","240","227.1683","158.0083","39360","39360","35894.4834","tc","null","null","null","null","null","null","[2,1]","463.6264437115182","207.8500281004117","509.2067192872513"
"","canvas-keyboard-response","142","139917","0.0-6.0-3.19","49","","","","","rectangles with change","null","null","","","critical","c","t","d","164","240","240","164","227.1683","158.0083","spektor","0.09","w","240","164","164","240","227.1683","158.0083","39360","39360","35894.4834","tc","null","null","null","null","null","null","[2,1]","463.6264437115182","207.8500281004117","509.2067192872513"
"","canvas-keyboard-response","143","139940","0.0-6.0-4.19","49","","","","","clear_screen","null","null","","","critical","c","t","d","164","240","240","164","227.1683","158.0083","spektor","0.09","w","240","164","164","240","227.1683","158.0083","39360","39360","35894.4834","tc","null","null","null","null","null","null","[2,1]","463.6264437115182","207.8500281004117","509.2067192872513"
"","canvas-keyboard-response","144","140877","0.0-6.0-5.19","49","","","","","make choice","931","2","","","critical","c","t","d","164","240","240","164","227.1683","158.0083","spektor","0.09","w","240","164","164","240","227.1683","158.0083","39360","39360","35894.4834","tc","null","null","null","null","null","null","[2,1]","","",""
"","canvas-keyboard-response","145","140897","0.0-6.0-6.19","49","","","","","clear_screen","null","null","","","critical","c","t","d","164","240","240","164","227.1683","158.0083","spektor","0.09","w","240","164","164","240","227.1683","158.0083","39360","39360","35894.4834","tc","null","null","null","null","null","null","[2,1]","","",""
"","canvas-keyboard-response","146","141097","0.0-6.0-0.20","49","","","","","pre trial waiting period","null","null","","","critical","t","d","c","240","164","232.8713","160.6713","164","240","trueblood","0.05","w","240","164","164","240","232.8713","160.6713","39360","39360","37415.7294","tc","null","null","null","null","null","null","[1,3]","473.617921765262","498.3742700154855","454.77375010902915"
"","canvas-keyboard-response","147","141122","0.0-6.0-1.20","49","","","","","clear_screen","null","null","","","critical","t","d","c","240","164","232.8713","160.6713","164","240","trueblood","0.05","w","240","164","164","240","232.8713","160.6713","39360","39360","37415.7294","tc","null","null","null","null","null","null","[1,3]","473.617921765262","498.3742700154855","454.77375010902915"
"","canvas-keyboard-response","148","141630","0.0-6.0-2.20","49","","","","","rectangles no change","null","null","","","critical","t","d","c","240","164","232.8713","160.6713","164","240","trueblood","0.05","w","240","164","164","240","232.8713","160.6713","39360","39360","37415.7294","tc","null","null","null","null","null","null","[1,3]","473.617921765262","498.3742700154855","454.77375010902915"
"","canvas-keyboard-response","149","142969","0.0-6.0-3.20","49","","","","","rectangles with change","null","null","","","critical","t","d","c","240","164","232.8713","160.6713","164","240","trueblood","0.05","w","240","164","164","240","232.8713","160.6713","39360","39360","37415.7294","tc","null","null","null","null","null","null","[1,3]","473.617921765262","498.3742700154855","454.77375010902915"
"","canvas-keyboard-response","150","142992","0.0-6.0-4.20","49","","","","","clear_screen","null","null","","","critical","t","d","c","240","164","232.8713","160.6713","164","240","trueblood","0.05","w","240","164","164","240","232.8713","160.6713","39360","39360","37415.7294","tc","null","null","null","null","null","null","[1,3]","473.617921765262","498.3742700154855","454.77375010902915"
"","canvas-keyboard-response","151","143564","0.0-6.0-5.20","49","","","","","make choice","567","1","","","critical","t","d","c","240","164","232.8713","160.6713","164","240","trueblood","0.05","w","240","164","164","240","232.8713","160.6713","39360","39360","37415.7294","tc","null","null","null","null","null","null","[1,3]","","",""
"","canvas-keyboard-response","152","143583","0.0-6.0-6.20","49","","","","","clear_screen","null","null","","","critical","t","d","c","240","164","232.8713","160.6713","164","240","trueblood","0.05","w","240","164","164","240","232.8713","160.6713","39360","39360","37415.7294","tc","null","null","null","null","null","null","[1,3]","","",""
"","canvas-keyboard-response","153","143784","0.0-6.0-0.21","49","","","","","pre trial waiting period","null","null","","","catch","sw","l","sh","180","200","163","294","162","175","trueblood","null","null","null","null","null","null","null","null","null","null","null","","180","200","260","200","36000","52000","[2,3]","480.75517498762497","407.39950577599063","468.0753609539221"
"","canvas-keyboard-response","154","143806","0.0-6.0-1.21","49","","","","","clear_screen","null","null","","","catch","sw","l","sh","180","200","163","294","162","175","trueblood","null","null","null","null","null","null","null","null","null","null","null","","180","200","260","200","36000","52000","[2,3]","480.75517498762497","407.39950577599063","468.0753609539221"
"","canvas-keyboard-response","155","144313","0.0-6.0-2.21","49","","","","","rectangles no change","null","null","","","catch","sw","l","sh","180","200","163","294","162","175","trueblood","null","null","null","null","null","null","null","null","null","null","null","","180","200","260","200","36000","52000","[2,3]","480.75517498762497","407.39950577599063","468.0753609539221"
"","canvas-keyboard-response","156","145652","0.0-6.0-3.21","49","","","","","rectangles with change","null","null","","","catch","sw","l","sh","180","200","163","294","162","175","trueblood","null","null","null","null","null","null","null","null","null","null","null","","180","200","260","200","36000","52000","[2,3]","480.75517498762497","407.39950577599063","468.0753609539221"
"","canvas-keyboard-response","157","145672","0.0-6.0-4.21","49","","","","","clear_screen","null","null","","","catch","sw","l","sh","180","200","163","294","162","175","trueblood","null","null","null","null","null","null","null","null","null","null","null","","180","200","260","200","36000","52000","[2,3]","480.75517498762497","407.39950577599063","468.0753609539221"
"","canvas-keyboard-response","158","146107","0.0-6.0-5.21","49","","","","","make choice","430","2","","","catch","sw","l","sh","180","200","163","294","162","175","trueblood","null","null","null","null","null","null","null","null","null","null","null","","180","200","260","200","36000","52000","[2,3]","","",""
"","canvas-keyboard-response","159","146126","0.0-6.0-6.21","49","","","","","clear_screen","null","null","","","catch","sw","l","sh","180","200","163","294","162","175","trueblood","null","null","null","null","null","null","null","null","null","null","null","","180","200","260","200","36000","52000","[2,3]","","",""
"","canvas-keyboard-response","160","146327","0.0-6.0-0.22","49","","","","","pre trial waiting period","null","null","","","critical","t","d","c","164","240","158.0083","227.1683","240","164","trueblood","0.09","h","164","240","240","164","158.0083","227.1683","39360","39360","35894.4834","td","null","null","null","null","null","null","[1,2]","450.086181484905","427.7215054794799","492.48208350460976"
"","canvas-keyboard-response","161","146353","0.0-6.0-1.22","49","","","","","clear_screen","null","null","","","critical","t","d","c","164","240","158.0083","227.1683","240","164","trueblood","0.09","h","164","240","240","164","158.0083","227.1683","39360","39360","35894.4834","td","null","null","null","null","null","null","[1,2]","450.086181484905","427.7215054794799","492.48208350460976"
"","canvas-keyboard-response","162","146861","0.0-6.0-2.22","49","","","","","rectangles no change","null","null","","","critical","t","d","c","164","240","158.0083","227.1683","240","164","trueblood","0.09","h","164","240","240","164","158.0083","227.1683","39360","39360","35894.4834","td","null","null","null","null","null","null","[1,2]","450.086181484905","427.7215054794799","492.48208350460976"
"","canvas-keyboard-response","163","148198","0.0-6.0-3.22","49","","","","","rectangles with change","null","null","","","critical","t","d","c","164","240","158.0083","227.1683","240","164","trueblood","0.09","h","164","240","240","164","158.0083","227.1683","39360","39360","35894.4834","td","null","null","null","null","null","null","[1,2]","450.086181484905","427.7215054794799","492.48208350460976"
"","canvas-keyboard-response","164","148218","0.0-6.0-4.22","49","","","","","clear_screen","null","null","","","critical","t","d","c","164","240","158.0083","227.1683","240","164","trueblood","0.09","h","164","240","240","164","158.0083","227.1683","39360","39360","35894.4834","td","null","null","null","null","null","null","[1,2]","450.086181484905","427.7215054794799","492.48208350460976"
"","canvas-keyboard-response","165","148949","0.0-6.0-5.22","49","","","","","make choice","725","1","","","critical","t","d","c","164","240","158.0083","227.1683","240","164","trueblood","0.09","h","164","240","240","164","158.0083","227.1683","39360","39360","35894.4834","td","null","null","null","null","null","null","[1,2]","","",""
"","canvas-keyboard-response","166","148969","0.0-6.0-6.22","49","","","","","clear_screen","null","null","","","critical","t","d","c","164","240","158.0083","227.1683","240","164","trueblood","0.09","h","164","240","240","164","158.0083","227.1683","39360","39360","35894.4834","td","null","null","null","null","null","null","[1,2]","","",""
"","canvas-keyboard-response","167","149169","0.0-6.0-0.23","49","","","","","pre trial waiting period","null","null","","","critical","t","c","d","240","164","164","240","237.1485","162.6685","spektor","0.02","w","240","164","164","240","237.1485","162.6685","39360","39360","38576.5967","dc","null","null","null","null","null","null","[3,2]","499.18433989465063","156.8797085300452","534.4651015556907"
"","canvas-keyboard-response","168","149193","0.0-6.0-1.23","49","","","","","clear_screen","null","null","","","critical","t","c","d","240","164","164","240","237.1485","162.6685","spektor","0.02","w","240","164","164","240","237.1485","162.6685","39360","39360","38576.5967","dc","null","null","null","null","null","null","[3,2]","499.18433989465063","156.8797085300452","534.4651015556907"
"","canvas-keyboard-response","169","149701","0.0-6.0-2.23","49","","","","","rectangles no change","null","null","","","critical","t","c","d","240","164","164","240","237.1485","162.6685","spektor","0.02","w","240","164","164","240","237.1485","162.6685","39360","39360","38576.5967","dc","null","null","null","null","null","null","[3,2]","499.18433989465063","156.8797085300452","534.4651015556907"
"","canvas-keyboard-response","170","151042","0.0-6.0-3.23","49","","","","","rectangles with change","null","null","","","critical","t","c","d","240","164","164","240","237.1485","162.6685","spektor","0.02","w","240","164","164","240","237.1485","162.6685","39360","39360","38576.5967","dc","null","null","null","null","null","null","[3,2]","499.18433989465063","156.8797085300452","534.4651015556907"
"","canvas-keyboard-response","171","151066","0.0-6.0-4.23","49","","","","","clear_screen","null","null","","","critical","t","c","d","240","164","164","240","237.1485","162.6685","spektor","0.02","w","240","164","164","240","237.1485","162.6685","39360","39360","38576.5967","dc","null","null","null","null","null","null","[3,2]","499.18433989465063","156.8797085300452","534.4651015556907"
"","canvas-keyboard-response","172","151589","0.0-6.0-5.23","49","","","","","make choice","517","3","","","critical","t","c","d","240","164","164","240","237.1485","162.6685","spektor","0.02","w","240","164","164","240","237.1485","162.6685","39360","39360","38576.5967","dc","null","null","null","null","null","null","[3,2]","","",""
"","canvas-keyboard-response","173","151611","0.0-6.0-6.23","49","","","","","clear_screen","null","null","","","critical","t","c","d","240","164","164","240","237.1485","162.6685","spektor","0.02","w","240","164","164","240","237.1485","162.6685","39360","39360","38576.5967","dc","null","null","null","null","null","null","[3,2]","","",""
"","canvas-keyboard-response","174","151811","0.0-6.0-0.24","49","","","","","pre trial waiting period","null","null","","","critical","d","t","c","154.6796","220.0396","164","240","240","164","trueblood","0.14","h","164","240","240","164","154.6796","220.0396","39360","39360","34035.6388","td","null","null","null","null","null","null","[2,1]","459.3197510335549","457.8552855300334","505.97298651134736"
"","canvas-keyboard-response","175","151835","0.0-6.0-1.24","49","","","","","clear_screen","null","null","","","critical","d","t","c","154.6796","220.0396","164","240","240","164","trueblood","0.14","h","164","240","240","164","154.6796","220.0396","39360","39360","34035.6388","td","null","null","null","null","null","null","[2,1]","459.3197510335549","457.8552855300334","505.97298651134736"
"","canvas-keyboard-response","176","152343","0.0-6.0-2.24","49","","","","","rectangles no change","null","null","","","critical","d","t","c","154.6796","220.0396","164","240","240","164","trueblood","0.14","h","164","240","240","164","154.6796","220.0396","39360","39360","34035.6388","td","null","null","null","null","null","null","[2,1]","459.3197510335549","457.8552855300334","505.97298651134736"
"","canvas-keyboard-response","177","153680","0.0-6.0-3.24","49","","","","","rectangles with change","null","null","","","critical","d","t","c","154.6796","220.0396","164","240","240","164","trueblood","0.14","h","164","240","240","164","154.6796","220.0396","39360","39360","34035.6388","td","null","null","null","null","null","null","[2,1]","459.3197510335549","457.8552855300334","505.97298651134736"
"","canvas-keyboard-response","178","153699","0.0-6.0-4.24","49","","","","","clear_screen","null","null","","","critical","d","t","c","154.6796","220.0396","164","240","240","164","trueblood","0.14","h","164","240","240","164","154.6796","220.0396","39360","39360","34035.6388","td","null","null","null","null","null","null","[2,1]","459.3197510335549","457.8552855300334","505.97298651134736"
"","canvas-keyboard-response","179","154245","0.0-6.0-5.24","49","","","","","make choice","539","2","","","critical","d","t","c","154.6796","220.0396","164","240","240","164","trueblood","0.14","h","164","240","240","164","154.6796","220.0396","39360","39360","34035.6388","td","null","null","null","null","null","null","[2,1]","","",""
"","canvas-keyboard-response","180","154266","0.0-6.0-6.24","49","","","","","clear_screen","null","null","","","critical","d","t","c","154.6796","220.0396","164","240","240","164","trueblood","0.14","h","164","240","240","164","154.6796","220.0396","39360","39360","34035.6388","td","null","null","null","null","null","null","[2,1]","","",""
"","canvas-keyboard-response","181","154468","0.0-6.0-0.25","49","","","","","pre trial waiting period","null","null","","","critical","t","c","d","240","164","164","240","227.1683","158.0083","trueblood","0.09","w","240","164","164","240","227.1683","158.0083","39360","39360","35894.4834","td","null","null","null","null","null","null","[1,3]","503.6216501901017","448.5109038033808","510.5349656212137"
"","canvas-keyboard-response","182","154490","0.0-6.0-1.25","49","","","","","clear_screen","null","null","","","critical","t","c","d","240","164","164","240","227.1683","158.0083","trueblood","0.09","w","240","164","164","240","227.1683","158.0083","39360","39360","35894.4834","td","null","null","null","null","null","null","[1,3]","503.6216501901017","448.5109038033808","510.5349656212137"
"","canvas-keyboard-response","183","154999","0.0-6.0-2.25","49","","","","","rectangles no change","null","null","","","critical","t","c","d","240","164","164","240","227.1683","158.0083","trueblood","0.09","w","240","164","164","240","227.1683","158.0083","39360","39360","35894.4834","td","null","null","null","null","null","null","[1,3]","503.6216501901017","448.5109038033808","510.5349656212137"
"","canvas-keyboard-response","184","156341","0.0-6.0-3.25","49","","","","","rectangles with change","null","null","","","critical","t","c","d","240","164","164","240","227.1683","158.0083","trueblood","0.09","w","240","164","164","240","227.1683","158.0083","39360","39360","35894.4834","td","null","null","null","null","null","null","[1,3]","503.6216501901017","448.5109038033808","510.5349656212137"
"","canvas-keyboard-response","185","156365","0.0-6.0-4.25","49","","","","","clear_screen","null","null","","","critical","t","c","d","240","164","164","240","227.1683","158.0083","trueblood","0.09","w","240","164","164","240","227.1683","158.0083","39360","39360","35894.4834","td","null","null","null","null","null","null","[1,3]","503.6216501901017","448.5109038033808","510.5349656212137"
"","canvas-keyboard-response","186","157061","0.0-6.0-5.25","49","","","","","make choice","689","1","","","critical","t","c","d","240","164","164","240","227.1683","158.0083","trueblood","0.09","w","240","164","164","240","227.1683","158.0083","39360","39360","35894.4834","td","null","null","null","null","null","null","[1,3]","","",""
"","canvas-keyboard-response","187","157082","0.0-6.0-6.25","49","","","","","clear_screen","null","null","","","critical","t","c","d","240","164","164","240","227.1683","158.0083","trueblood","0.09","w","240","164","164","240","227.1683","158.0083","39360","39360","35894.4834","td","null","null","null","null","null","null","[1,3]","","",""
"","canvas-keyboard-response","188","157283","0.0-6.0-0.26","49","","","","","pre trial waiting period","null","null","","","catch","l","sw","sh","235","195","208","231","181","189","trueblood","null","null","null","null","null","null","null","null","null","null","null","","180","200","260","200","36000","52000","[1,3]","451.68022278222014","428.33129625278065","457.55515217065545"
"","canvas-keyboard-response","189","157306","0.0-6.0-1.26","49","","","","","clear_screen","null","null","","","catch","l","sw","sh","235","195","208","231","181","189","trueblood","null","null","null","null","null","null","null","null","null","null","null","","180","200","260","200","36000","52000","[1,3]","451.68022278222014","428.33129625278065","457.55515217065545"
"","canvas-keyboard-response","190","157815","0.0-6.0-2.26","49","","","","","rectangles no change","null","null","","","catch","l","sw","sh","235","195","208","231","181","189","trueblood","null","null","null","null","null","null","null","null","null","null","null","","180","200","260","200","36000","52000","[1,3]","451.68022278222014","428.33129625278065","457.55515217065545"
"","canvas-keyboard-response","191","159151","0.0-6.0-3.26","49","","","","","rectangles with change","null","null","","","catch","l","sw","sh","235","195","208","231","181","189","trueblood","null","null","null","null","null","null","null","null","null","null","null","","180","200","260","200","36000","52000","[1,3]","451.68022278222014","428.33129625278065","457.55515217065545"
"","canvas-keyboard-response","192","159170","0.0-6.0-4.26","49","","","","","clear_screen","null","null","","","catch","l","sw","sh","235","195","208","231","181","189","trueblood","null","null","null","null","null","null","null","null","null","null","null","","180","200","260","200","36000","52000","[1,3]","451.68022278222014","428.33129625278065","457.55515217065545"
"","canvas-keyboard-response","193","159845","0.0-6.0-5.26","49","","","","","make choice","670","1","","","catch","l","sw","sh","235","195","208","231","181","189","trueblood","null","null","null","null","null","null","null","null","null","null","null","","180","200","260","200","36000","52000","[1,3]","","",""
"","canvas-keyboard-response","194","159864","0.0-6.0-6.26","49","","","","","clear_screen","null","null","","","catch","l","sw","sh","235","195","208","231","181","189","trueblood","null","null","null","null","null","null","null","null","null","null","null","","180","200","260","200","36000","52000","[1,3]","","",""
"","canvas-keyboard-response","195","160065","0.0-6.0-0.27","49","","","","","pre trial waiting period","null","null","","","catch","sh","sw","l","218","154","146","197","193","241","spektor","null","null","null","null","null","null","null","null","null","null","null","","180","200","260","200","36000","52000","[2,3]","502.2239279361441","168.1862861899685","466.4063199692469"
"","canvas-keyboard-response","196","160089","0.0-6.0-1.27","49","","","","","clear_screen","null","null","","","catch","sh","sw","l","218","154","146","197","193","241","spektor","null","null","null","null","null","null","null","null","null","null","null","","180","200","260","200","36000","52000","[2,3]","502.2239279361441","168.1862861899685","466.4063199692469"
"","canvas-keyboard-response","197","160597","0.0-6.0-2.27","49","","","","","rectangles no change","null","null","","","catch","sh","sw","l","218","154","146","197","193","241","spektor","null","null","null","null","null","null","null","null","null","null","null","","180","200","260","200","36000","52000","[2,3]","502.2239279361441","168.1862861899685","466.4063199692469"
"","canvas-keyboard-response","198","161937","0.0-6.0-3.27","49","","","","","rectangles with change","null","null","","","catch","sh","sw","l","218","154","146","197","193","241","spektor","null","null","null","null","null","null","null","null","null","null","null","","180","200","260","200","36000","52000","[2,3]","502.2239279361441","168.1862861899685","466.4063199692469"
"","canvas-keyboard-response","199","161960","0.0-6.0-4.27","49","","","","","clear_screen","null","null","","","catch","sh","sw","l","218","154","146","197","193","241","spektor","null","null","null","null","null","null","null","null","null","null","null","","180","200","260","200","36000","52000","[2,3]","502.2239279361441","168.1862861899685","466.4063199692469"
"","canvas-keyboard-response","200","162445","0.0-6.0-5.27","49","","","","","make choice","478","3","","","catch","sh","sw","l","218","154","146","197","193","241","spektor","null","null","null","null","null","null","null","null","null","null","null","","180","200","260","200","36000","52000","[2,3]","","",""
"","canvas-keyboard-response","201","162463","0.0-6.0-6.27","49","","","","","clear_screen","null","null","","","catch","sh","sw","l","218","154","146","197","193","241","spektor","null","null","null","null","null","null","null","null","null","null","null","","180","200","260","200","36000","52000","[2,3]","","",""
"","canvas-keyboard-response","202","162664","0.0-6.0-0.28","49","","","","","pre trial waiting period","null","null","","","catch","sh","l","sw","212","143","218","285","213","178","trueblood","null","null","null","null","null","null","null","null","null","null","null","","180","200","260","200","36000","52000","[1,2]","494.3038469465035","395.3599794761315","470.35357728273385"
"","canvas-keyboard-response","203","162683","0.0-6.0-1.28","49","","","","","clear_screen","null","null","","","catch","sh","l","sw","212","143","218","285","213","178","trueblood","null","null","null","null","null","null","null","null","null","null","null","","180","200","260","200","36000","52000","[1,2]","494.3038469465035","395.3599794761315","470.35357728273385"
"","canvas-keyboard-response","204","163192","0.0-6.0-2.28","49","","","","","rectangles no change","null","null","","","catch","sh","l","sw","212","143","218","285","213","178","trueblood","null","null","null","null","null","null","null","null","null","null","null","","180","200","260","200","36000","52000","[1,2]","494.3038469465035","395.3599794761315","470.35357728273385"
"","canvas-keyboard-response","205","164530","0.0-6.0-3.28","49","","","","","rectangles with change","null","null","","","catch","sh","l","sw","212","143","218","285","213","178","trueblood","null","null","null","null","null","null","null","null","null","null","null","","180","200","260","200","36000","52000","[1,2]","494.3038469465035","395.3599794761315","470.35357728273385"
"","canvas-keyboard-response","206","164551","0.0-6.0-4.28","49","","","","","clear_screen","null","null","","","catch","sh","l","sw","212","143","218","285","213","178","trueblood","null","null","null","null","null","null","null","null","null","null","null","","180","200","260","200","36000","52000","[1,2]","494.3038469465035","395.3599794761315","470.35357728273385"
"","canvas-keyboard-response","207","164909","0.0-6.0-5.28","49","","","","","make choice","350","2","","","catch","sh","l","sw","212","143","218","285","213","178","trueblood","null","null","null","null","null","null","null","null","null","null","null","","180","200","260","200","36000","52000","[1,2]","","",""
"","canvas-keyboard-response","208","164929","0.0-6.0-6.28","49","","","","","clear_screen","null","null","","","catch","sh","l","sw","212","143","218","285","213","178","trueblood","null","null","null","null","null","null","null","null","null","null","null","","180","200","260","200","36000","52000","[1,2]","","",""
"","canvas-keyboard-response","209","165130","0.0-6.0-0.29","49","","","","","pre trial waiting period","null","null","","","critical","d","t","c","164","240","164","240","240","164","spektor","0","h","164","240","240","164","164","240","39360","39360","39360","td","null","null","null","null","null","null","[2,1]","499.84212842058855","104.93568462015782","502.06413232955424"
"","canvas-keyboard-response","210","165147","0.0-6.0-1.29","49","","","","","clear_screen","null","null","","","critical","d","t","c","164","240","164","240","240","164","spektor","0","h","164","240","240","164","164","240","39360","39360","39360","td","null","null","null","null","null","null","[2,1]","499.84212842058855","104.93568462015782","502.06413232955424"
"","canvas-keyboard-response","211","165653","0.0-6.0-2.29","49","","","","","rectangles no change","null","null","","","critical","d","t","c","164","240","164","240","240","164","spektor","0","h","164","240","240","164","164","240","39360","39360","39360","td","null","null","null","null","null","null","[2,1]","499.84212842058855","104.93568462015782","502.06413232955424"
"","canvas-keyboard-response","212","166993","0.0-6.0-3.29","49","","","","","rectangles with change","null","null","","","critical","d","t","c","164","240","164","240","240","164","spektor","0","h","164","240","240","164","164","240","39360","39360","39360","td","null","null","null","null","null","null","[2,1]","499.84212842058855","104.93568462015782","502.06413232955424"
"","canvas-keyboard-response","213","167013","0.0-6.0-4.29","49","","","","","clear_screen","null","null","","","critical","d","t","c","164","240","164","240","240","164","spektor","0","h","164","240","240","164","164","240","39360","39360","39360","td","null","null","null","null","null","null","[2,1]","499.84212842058855","104.93568462015782","502.06413232955424"
"","canvas-keyboard-response","214","167484","0.0-6.0-5.29","49","","","","","make choice","465","1","","","critical","d","t","c","164","240","164","240","240","164","spektor","0","h","164","240","240","164","164","240","39360","39360","39360","td","null","null","null","null","null","null","[2,1]","","",""
"","canvas-keyboard-response","215","167504","0.0-6.0-6.29","49","","","","","clear_screen","null","null","","","critical","d","t","c","164","240","164","240","240","164","spektor","0","h","164","240","240","164","164","240","39360","39360","39360","td","null","null","null","null","null","null","[2,1]","","",""
"","canvas-keyboard-response","216","167705","0.0-6.0-0.30","49","","","","","pre trial waiting period","null","null","","","critical","d","c","t","160.6713","232.8713","240","164","164","240","trueblood","0.05","h","164","240","240","164","160.6713","232.8713","39360","39360","37415.7294","dc","null","null","null","null","null","null","[1,2]","446.79905782568426","475.8689756416803","444.0002723375731"
"","canvas-keyboard-response","217","167729","0.0-6.0-1.30","49","","","","","clear_screen","null","null","","","critical","d","c","t","160.6713","232.8713","240","164","164","240","trueblood","0.05","h","164","240","240","164","160.6713","232.8713","39360","39360","37415.7294","dc","null","null","null","null","null","null","[1,2]","446.79905782568426","475.8689756416803","444.0002723375731"
"","canvas-keyboard-response","218","168242","0.0-6.0-2.30","49","","","","","rectangles no change","null","null","","","critical","d","c","t","160.6713","232.8713","240","164","164","240","trueblood","0.05","h","164","240","240","164","160.6713","232.8713","39360","39360","37415.7294","dc","null","null","null","null","null","null","[1,2]","446.79905782568426","475.8689756416803","444.0002723375731"
"","canvas-keyboard-response","219","169581","0.0-6.0-3.30","49","","","","","rectangles with change","null","null","","","critical","d","c","t","160.6713","232.8713","240","164","164","240","trueblood","0.05","h","164","240","240","164","160.6713","232.8713","39360","39360","37415.7294","dc","null","null","null","null","null","null","[1,2]","446.79905782568426","475.8689756416803","444.0002723375731"
"","canvas-keyboard-response","220","169604","0.0-6.0-4.30","49","","","","","clear_screen","null","null","","","critical","d","c","t","160.6713","232.8713","240","164","164","240","trueblood","0.05","h","164","240","240","164","160.6713","232.8713","39360","39360","37415.7294","dc","null","null","null","null","null","null","[1,2]","446.79905782568426","475.8689756416803","444.0002723375731"
"","canvas-keyboard-response","221","170020","0.0-6.0-5.30","49","","","","","make choice","409","2","","","critical","d","c","t","160.6713","232.8713","240","164","164","240","trueblood","0.05","h","164","240","240","164","160.6713","232.8713","39360","39360","37415.7294","dc","null","null","null","null","null","null","[1,2]","","",""
"","canvas-keyboard-response","222","170041","0.0-6.0-6.30","49","","","","","clear_screen","null","null","","","critical","d","c","t","160.6713","232.8713","240","164","164","240","trueblood","0.05","h","164","240","240","164","160.6713","232.8713","39360","39360","37415.7294","dc","null","null","null","null","null","null","[1,2]","","",""
"","canvas-keyboard-response","223","170242","0.0-6.0-0.31","49","","","","","pre trial waiting period","null","null","","","critical","t","d","c","240","164","220.0396","154.6796","164","240","spektor","0.14","w","240","164","164","240","220.0396","154.6796","39360","39360","34035.6388","dc","null","null","null","null","null","null","[2,3]","538.819674574031","222.53399722178972","455.8965341641544"
"","canvas-keyboard-response","224","170265","0.0-6.0-1.31","49","","","","","clear_screen","null","null","","","critical","t","d","c","240","164","220.0396","154.6796","164","240","spektor","0.14","w","240","164","164","240","220.0396","154.6796","39360","39360","34035.6388","dc","null","null","null","null","null","null","[2,3]","538.819674574031","222.53399722178972","455.8965341641544"
"","canvas-keyboard-response","225","170772","0.0-6.0-2.31","49","","","","","rectangles no change","null","null","","","critical","t","d","c","240","164","220.0396","154.6796","164","240","spektor","0.14","w","240","164","164","240","220.0396","154.6796","39360","39360","34035.6388","dc","null","null","null","null","null","null","[2,3]","538.819674574031","222.53399722178972","455.8965341641544"
"","canvas-keyboard-response","226","172113","0.0-6.0-3.31","49","","","","","rectangles with change","null","null","","","critical","t","d","c","240","164","220.0396","154.6796","164","240","spektor","0.14","w","240","164","164","240","220.0396","154.6796","39360","39360","34035.6388","dc","null","null","null","null","null","null","[2,3]","538.819674574031","222.53399722178972","455.8965341641544"
"","canvas-keyboard-response","227","172136","0.0-6.0-4.31","49","","","","","clear_screen","null","null","","","critical","t","d","c","240","164","220.0396","154.6796","164","240","spektor","0.14","w","240","164","164","240","220.0396","154.6796","39360","39360","34035.6388","dc","null","null","null","null","null","null","[2,3]","538.819674574031","222.53399722178972","455.8965341641544"
"","canvas-keyboard-response","228","172781","0.0-6.0-5.31","49","","","","","make choice","638","3","","","critical","t","d","c","240","164","220.0396","154.6796","164","240","spektor","0.14","w","240","164","164","240","220.0396","154.6796","39360","39360","34035.6388","dc","null","null","null","null","null","null","[2,3]","","",""
"","canvas-keyboard-response","229","172799","0.0-6.0-6.31","49","","","","","clear_screen","null","null","","","critical","t","d","c","240","164","220.0396","154.6796","164","240","spektor","0.14","w","240","164","164","240","220.0396","154.6796","39360","39360","34035.6388","dc","null","null","null","null","null","null","[2,3]","","",""
"","canvas-keyboard-response","230","173000","0.0-6.0-0.32","49","","","","","pre trial waiting period","null","null","","","catch","sw","l","sh","180","200","286","186","184","184","trueblood","null","null","null","null","null","null","null","null","null","null","null","","180","200","260","200","36000","52000","[2,3]","491.16985920620886","482.2381190220163","466.6682610148414"
"","canvas-keyboard-response","231","173022","0.0-6.0-1.32","49","","","","","clear_screen","null","null","","","catch","sw","l","sh","180","200","286","186","184","184","trueblood","null","null","null","null","null","null","null","null","null","null","null","","180","200","260","200","36000","52000","[2,3]","491.16985920620886","482.2381190220163","466.6682610148414"
"","canvas-keyboard-response","232","173530","0.0-6.0-2.32","49","","","","","rectangles no change","null","null","","","catch","sw","l","sh","180","200","286","186","184","184","trueblood","null","null","null","null","null","null","null","null","null","null","null","","180","200","260","200","36000","52000","[2,3]","491.16985920620886","482.2381190220163","466.6682610148414"
"","canvas-keyboard-response","233","174869","0.0-6.0-3.32","49","","","","","rectangles with change","null","null","","","catch","sw","l","sh","180","200","286","186","184","184","trueblood","null","null","null","null","null","null","null","null","null","null","null","","180","200","260","200","36000","52000","[2,3]","491.16985920620886","482.2381190220163","466.6682610148414"
"","canvas-keyboard-response","234","174893","0.0-6.0-4.32","49","","","","","clear_screen","null","null","","","catch","sw","l","sh","180","200","286","186","184","184","trueblood","null","null","null","null","null","null","null","null","null","null","null","","180","200","260","200","36000","52000","[2,3]","491.16985920620886","482.2381190220163","466.6682610148414"
"","canvas-keyboard-response","235","175405","0.0-6.0-5.32","49","","","","","make choice","508","2","","","catch","sw","l","sh","180","200","286","186","184","184","trueblood","null","null","null","null","null","null","null","null","null","null","null","","180","200","260","200","36000","52000","[2,3]","","",""
"","canvas-keyboard-response","236","175423","0.0-6.0-6.32","49","","","","","clear_screen","null","null","","","catch","sw","l","sh","180","200","286","186","184","184","trueblood","null","null","null","null","null","null","null","null","null","null","null","","180","200","260","200","36000","52000","[2,3]","","",""
"","canvas-keyboard-response","237","175625","0.0-6.0-0.33","49","","","","","pre trial waiting period","null","null","","","catch","sh","l","sw","203","197","180","256","186","173","trueblood","null","null","null","null","null","null","null","null","null","null","null","","180","200","260","200","36000","52000","[2,3]","458.41563758116985","435.86232797755184","476.5037471404315"
"","canvas-keyboard-response","238","175645","0.0-6.0-1.33","49","","","","","clear_screen","null","null","","","catch","sh","l","sw","203","197","180","256","186","173","trueblood","null","null","null","null","null","null","null","null","null","null","null","","180","200","260","200","36000","52000","[2,3]","458.41563758116985","435.86232797755184","476.5037471404315"
"","canvas-keyboard-response","239","176154","0.0-6.0-2.33","49","","","","","rectangles no change","null","null","","","catch","sh","l","sw","203","197","180","256","186","173","trueblood","null","null","null","null","null","null","null","null","null","null","null","","180","200","260","200","36000","52000","[2,3]","458.41563758116985","435.86232797755184","476.5037471404315"
"","canvas-keyboard-response","240","177494","0.0-6.0-3.33","49","","","","","rectangles with change","null","null","","","catch","sh","l","sw","203","197","180","256","186","173","trueblood","null","null","null","null","null","null","null","null","null","null","null","","180","200","260","200","36000","52000","[2,3]","458.41563758116985","435.86232797755184","476.5037471404315"
"","canvas-keyboard-response","241","177514","0.0-6.0-4.33","49","","","","","clear_screen","null","null","","","catch","sh","l","sw","203","197","180","256","186","173","trueblood","null","null","null","null","null","null","null","null","null","null","null","","180","200","260","200","36000","52000","[2,3]","458.41563758116985","435.86232797755184","476.5037471404315"
"","canvas-keyboard-response","242","177965","0.0-6.0-5.33","49","","","","","make choice","443","2","","","catch","sh","l","sw","203","197","180","256","186","173","trueblood","null","null","null","null","null","null","null","null","null","null","null","","180","200","260","200","36000","52000","[2,3]","","",""
"","canvas-keyboard-response","243","177985","0.0-6.0-6.33","49","","","","","clear_screen","null","null","","","catch","sh","l","sw","203","197","180","256","186","173","trueblood","null","null","null","null","null","null","null","null","null","null","null","","180","200","260","200","36000","52000","[2,3]","","",""
"","canvas-keyboard-response","244","178186","0.0-6.0-0.34","49","","","","","pre trial waiting period","null","null","","","critical","d","t","c","227.1683","158.0083","240","164","164","240","trueblood","0.09","w","240","164","164","240","227.1683","158.0083","39360","39360","35894.4834","tc","null","null","null","null","null","null","[2,3]","493.4399347367033","470.54653289105767","427.34963479466876"
"","canvas-keyboard-response","245","178206","0.0-6.0-1.34","49","","","","","clear_screen","null","null","","","critical","d","t","c","227.1683","158.0083","240","164","164","240","trueblood","0.09","w","240","164","164","240","227.1683","158.0083","39360","39360","35894.4834","tc","null","null","null","null","null","null","[2,3]","493.4399347367033","470.54653289105767","427.34963479466876"
"","canvas-keyboard-response","246","178713","0.0-6.0-2.34","49","","","","","rectangles no change","null","null","","","critical","d","t","c","227.1683","158.0083","240","164","164","240","trueblood","0.09","w","240","164","164","240","227.1683","158.0083","39360","39360","35894.4834","tc","null","null","null","null","null","null","[2,3]","493.4399347367033","470.54653289105767","427.34963479466876"
"","canvas-keyboard-response","247","180050","0.0-6.0-3.34","49","","","","","rectangles with change","null","null","","","critical","d","t","c","227.1683","158.0083","240","164","164","240","trueblood","0.09","w","240","164","164","240","227.1683","158.0083","39360","39360","35894.4834","tc","null","null","null","null","null","null","[2,3]","493.4399347367033","470.54653289105767","427.34963479466876"
"","canvas-keyboard-response","248","180072","0.0-6.0-4.34","49","","","","","clear_screen","null","null","","","critical","d","t","c","227.1683","158.0083","240","164","164","240","trueblood","0.09","w","240","164","164","240","227.1683","158.0083","39360","39360","35894.4834","tc","null","null","null","null","null","null","[2,3]","493.4399347367033","470.54653289105767","427.34963479466876"
"","canvas-keyboard-response","249","180548","0.0-6.0-5.34","49","","","","","make choice","471","2","","","critical","d","t","c","227.1683","158.0083","240","164","164","240","trueblood","0.09","w","240","164","164","240","227.1683","158.0083","39360","39360","35894.4834","tc","null","null","null","null","null","null","[2,3]","","",""
"","canvas-keyboard-response","250","180568","0.0-6.0-6.34","49","","","","","clear_screen","null","null","","","critical","d","t","c","227.1683","158.0083","240","164","164","240","trueblood","0.09","w","240","164","164","240","227.1683","158.0083","39360","39360","35894.4834","tc","null","null","null","null","null","null","[2,3]","","",""
"","canvas-keyboard-response","251","180769","0.0-6.0-0.35","49","","","","","pre trial waiting period","null","null","","","catch","l","sh","sw","191","292","166","191","198","170","spektor","null","null","null","null","null","null","null","null","null","null","null","","180","200","260","200","36000","52000","[1,2]","474.50013322071436","155.93169929634195","495.59189971628405"
"","canvas-keyboard-response","252","180793","0.0-6.0-1.35","49","","","","","clear_screen","null","null","","","catch","l","sh","sw","191","292","166","191","198","170","spektor","null","null","null","null","null","null","null","null","null","null","null","","180","200","260","200","36000","52000","[1,2]","474.50013322071436","155.93169929634195","495.59189971628405"
"","canvas-keyboard-response","253","181300","0.0-6.0-2.35","49","","","","","rectangles no change","null","null","","","catch","l","sh","sw","191","292","166","191","198","170","spektor","null","null","null","null","null","null","null","null","null","null","null","","180","200","260","200","36000","52000","[1,2]","474.50013322071436","155.93169929634195","495.59189971628405"
"","canvas-keyboard-response","254","182640","0.0-6.0-3.35","49","","","","","rectangles with change","null","null","","","catch","l","sh","sw","191","292","166","191","198","170","spektor","null","null","null","null","null","null","null","null","null","null","null","","180","200","260","200","36000","52000","[1,2]","474.50013322071436","155.93169929634195","495.59189971628405"
"","canvas-keyboard-response","255","182661","0.0-6.0-4.35","49","","","","","clear_screen","null","null","","","catch","l","sh","sw","191","292","166","191","198","170","spektor","null","null","null","null","null","null","null","null","null","null","null","","180","200","260","200","36000","52000","[1,2]","474.50013322071436","155.93169929634195","495.59189971628405"
"","canvas-keyboard-response","256","183108","0.0-6.0-5.35","49","","","","","make choice","439","1","","","catch","l","sh","sw","191","292","166","191","198","170","spektor","null","null","null","null","null","null","null","null","null","null","null","","180","200","260","200","36000","52000","[1,2]","","",""
"","canvas-keyboard-response","257","183129","0.0-6.0-6.35","49","","","","","clear_screen","null","null","","","catch","l","sh","sw","191","292","166","191","198","170","spektor","null","null","null","null","null","null","null","null","null","null","null","","180","200","260","200","36000","52000","[1,2]","","",""
"","canvas-keyboard-response","258","183329","0.0-6.0-0.36","49","","","","","pre trial waiting period","null","null","","","catch","sw","l","sh","180","200","220","251","196","181","spektor","null","null","null","null","null","null","null","null","null","null","null","","180","200","260","200","36000","52000","[2,3]","519.7414205298787","130.69068596783097","494.226367474235"
"","canvas-keyboard-response","259","183350","0.0-6.0-1.36","49","","","","","clear_screen","null","null","","","catch","sw","l","sh","180","200","220","251","196","181","spektor","null","null","null","null","null","null","null","null","null","null","null","","180","200","260","200","36000","52000","[2,3]","519.7414205298787","130.69068596783097","494.226367474235"
"","canvas-keyboard-response","260","183860","0.0-6.0-2.36","49","","","","","rectangles no change","null","null","","","catch","sw","l","sh","180","200","220","251","196","181","spektor","null","null","null","null","null","null","null","null","null","null","null","","180","200","260","200","36000","52000","[2,3]","519.7414205298787","130.69068596783097","494.226367474235"
"","canvas-keyboard-response","261","185200","0.0-6.0-3.36","49","","","","","rectangles with change","null","null","","","catch","sw","l","sh","180","200","220","251","196","181","spektor","null","null","null","null","null","null","null","null","null","null","null","","180","200","260","200","36000","52000","[2,3]","519.7414205298787","130.69068596783097","494.226367474235"
"","canvas-keyboard-response","262","185221","0.0-6.0-4.36","49","","","","","clear_screen","null","null","","","catch","sw","l","sh","180","200","220","251","196","181","spektor","null","null","null","null","null","null","null","null","null","null","null","","180","200","260","200","36000","52000","[2,3]","519.7414205298787","130.69068596783097","494.226367474235"
"","canvas-keyboard-response","263","185741","0.0-6.0-5.36","49","","","","","make choice","512","2","","","catch","sw","l","sh","180","200","220","251","196","181","spektor","null","null","null","null","null","null","null","null","null","null","null","","180","200","260","200","36000","52000","[2,3]","","",""
"","canvas-keyboard-response","264","185761","0.0-6.0-6.36","49","","","","","clear_screen","null","null","","","catch","sw","l","sh","180","200","220","251","196","181","spektor","null","null","null","null","null","null","null","null","null","null","null","","180","200","260","200","36000","52000","[2,3]","","",""
"","canvas-keyboard-response","265","185962","0.0-6.0-0.37","49","","","","","pre trial waiting period","null","null","","","catch","l","sh","sw","283","236","164","152","145","179","trueblood","null","null","null","null","null","null","null","null","null","null","null","","180","200","260","200","36000","52000","[1,2]","433.0005524690091","492.4995691220973","464.94790435945015"
"","canvas-keyboard-response","266","185986","0.0-6.0-1.37","49","","","","","clear_screen","null","null","","","catch","l","sh","sw","283","236","164","152","145","179","trueblood","null","null","null","null","null","null","null","null","null","null","null","","180","200","260","200","36000","52000","[1,2]","433.0005524690091","492.4995691220973","464.94790435945015"
"","canvas-keyboard-response","267","186493","0.0-6.0-2.37","49","","","","","rectangles no change","null","null","","","catch","l","sh","sw","283","236","164","152","145","179","trueblood","null","null","null","null","null","null","null","null","null","null","null","","180","200","260","200","36000","52000","[1,2]","433.0005524690091","492.4995691220973","464.94790435945015"
"","canvas-keyboard-response","268","187830","0.0-6.0-3.37","49","","","","","rectangles with change","null","null","","","catch","l","sh","sw","283","236","164","152","145","179","trueblood","null","null","null","null","null","null","null","null","null","null","null","","180","200","260","200","36000","52000","[1,2]","433.0005524690091","492.4995691220973","464.94790435945015"
