"success","trial_type","trial_index","time_elapsed","internal_node_id","sub_n","timeout","failed_images","failed_audio","failed_video","screen_id","rt","response","stimulus","view_history","trial","r1","r2","r3","w1","h1","w2","h2","w3","h3","display","tdd","tdo","tw","th","cw","ch","dw","dh","ta","ca","da","probe","csls","csss","clls","clss","sa","la","probe_rects","r1yloc","r2yloc","r3yloc"
"true","fullscreen","0","1961","0.0-0.0","519","","","","","","","","","","","","","","","","","","","","","","","","","","","","","","","","","","","","","","","","","",""
"true","preload","1","2033","0.0-1.0","519","false","[]","[]","[]","img preload","","","","","","","","","","","","","","","","","","","","","","","","","","","","","","","","","","","","",""
"","survey-html-form","2","4274","0.0-2.0","519","","","","","enter-sub-number","2233","{""response"":""519""}","","","","","","","","","","","","","","","","","","","","","","","","","","","","","","","","","","",""
"","image-button-response","3","30585","0.0-3.0","519","","","","","","26237","0","consent.png","","","","","","","","","","","","","","","","","","","","","","","","","","","","","","","","","",""
"","html-button-response","4","32249","0.0-4.0","519","","","","","intro mssg","1661","0","<div style= ""font-size:25px;"" <p> <strong> Welcome! </strong><br> <p style=""color:#8B0000; font-size:25px;""><strong> Please do NOT exit full screen until you are done with the experiment. </strong> </p><p style=""font-size:25px;color:#8B0000;""> <strong> Your data will be lost <br> if you try to go back or refresh the page after the experiment starts. Feel free to click ""previous"" during the instructions, however.</strong> </p><br><p> <strong> Thanks in advance for your contribution to our research! </strong></p>","","","","","","","","","","","","","","","","","","","","","","","","","","","","","","","","","",""
"","instructions","5","59570","0.0-5.0","519","","","","","instructions","27316","","","[{""page_index"":0,""viewing_time"":5572},{""page_index"":1,""viewing_time"":5591},{""page_index"":2,""viewing_time"":2713},{""page_index"":3,""viewing_time"":5064},{""page_index"":4,""viewing_time"":3240},{""page_index"":5,""viewing_time"":2184},{""page_index"":6,""viewing_time"":1744},{""page_index"":7,""viewing_time"":1208}]","","","","","","","","","","","","","","","","","","","","","","","","","","","","","","","","",""
"","canvas-keyboard-response","6","59775","0.0-6.0-0.0","519","","","","","pre trial waiting period","null","null","","","critical","t","c","d","240","164","164","240","220.0396","154.6796","trueblood","0.14","w","240","164","164","240","220.0396","154.6796","39360","39360","34035.6388","dc","null","null","null","null","null","null","[3,2]","493.64518941800077","420.6079609384759","519.6448552785262"
"","canvas-keyboard-response","7","59797","0.0-6.0-1.0","519","","","","","clear_screen","null","null","","","critical","t","c","d","240","164","164","240","220.0396","154.6796","trueblood","0.14","w","240","164","164","240","220.0396","154.6796","39360","39360","34035.6388","dc","null","null","null","null","null","null","[3,2]","493.64518941800077","420.6079609384759","519.6448552785262"
"","canvas-keyboard-response","8","60309","0.0-6.0-2.0","519","","","","","rectangles no change","null","null","","","critical","t","c","d","240","164","164","240","220.0396","154.6796","trueblood","0.14","w","240","164","164","240","220.0396","154.6796","39360","39360","34035.6388","dc","null","null","null","null","null","null","[3,2]","493.64518941800077","420.6079609384759","519.6448552785262"
"","canvas-keyboard-response","9","61647","0.0-6.0-3.0","519","","","","","rectangles with change","null","null","","","critical","t","c","d","240","164","164","240","220.0396","154.6796","trueblood","0.14","w","240","164","164","240","220.0396","154.6796","39360","39360","34035.6388","dc","null","null","null","null","null","null","[3,2]","493.64518941800077","420.6079609384759","519.6448552785262"
"","canvas-keyboard-response","10","61663","0.0-6.0-4.0","519","","","","","clear_screen","null","null","","","critical","t","c","d","240","164","164","240","220.0396","154.6796","trueblood","0.14","w","240","164","164","240","220.0396","154.6796","39360","39360","34035.6388","dc","null","null","null","null","null","null","[3,2]","493.64518941800077","420.6079609384759","519.6448552785262"
"","canvas-keyboard-response","11","64549","0.0-6.0-5.0","519","","","","","make choice","2879","2","","","critical","t","c","d","240","164","164","240","220.0396","154.6796","trueblood","0.14","w","240","164","164","240","220.0396","154.6796","39360","39360","34035.6388","dc","null","null","null","null","null","null","[3,2]","","",""
"","canvas-keyboard-response","12","64567","0.0-6.0-6.0","519","","","","","clear_screen","null","null","","","critical","t","c","d","240","164","164","240","220.0396","154.6796","trueblood","0.14","w","240","164","164","240","220.0396","154.6796","39360","39360","34035.6388","dc","null","null","null","null","null","null","[3,2]","","",""
"","canvas-keyboard-response","13","64767","0.0-6.0-0.1","519","","","","","pre trial waiting period","null","null","","","critical","d","t","c","227.1683","158.0083","240","164","164","240","spektor","0.09","w","240","164","164","240","227.1683","158.0083","39360","39360","35894.4834","td","null","null","null","null","null","null","[2,1]","541.3367457254559","198.44282391665288","501.4728065693661"
"","canvas-keyboard-response","14","64787","0.0-6.0-1.1","519","","","","","clear_screen","null","null","","","critical","d","t","c","227.1683","158.0083","240","164","164","240","spektor","0.09","w","240","164","164","240","227.1683","158.0083","39360","39360","35894.4834","td","null","null","null","null","null","null","[2,1]","541.3367457254559","198.44282391665288","501.4728065693661"
"","canvas-keyboard-response","15","65296","0.0-6.0-2.1","519","","","","","rectangles no change","null","null","","","critical","d","t","c","227.1683","158.0083","240","164","164","240","spektor","0.09","w","240","164","164","240","227.1683","158.0083","39360","39360","35894.4834","td","null","null","null","null","null","null","[2,1]","541.3367457254559","198.44282391665288","501.4728065693661"
"","canvas-keyboard-response","16","66633","0.0-6.0-3.1","519","","","","","rectangles with change","null","null","","","critical","d","t","c","227.1683","158.0083","240","164","164","240","spektor","0.09","w","240","164","164","240","227.1683","158.0083","39360","39360","35894.4834","td","null","null","null","null","null","null","[2,1]","541.3367457254559","198.44282391665288","501.4728065693661"
"","canvas-keyboard-response","17","66655","0.0-6.0-4.1","519","","","","","clear_screen","null","null","","","critical","d","t","c","227.1683","158.0083","240","164","164","240","spektor","0.09","w","240","164","164","240","227.1683","158.0083","39360","39360","35894.4834","td","null","null","null","null","null","null","[2,1]","541.3367457254559","198.44282391665288","501.4728065693661"
"","canvas-keyboard-response","18","67565","0.0-6.0-5.1","519","","","","","make choice","902","2","","","critical","d","t","c","227.1683","158.0083","240","164","164","240","spektor","0.09","w","240","164","164","240","227.1683","158.0083","39360","39360","35894.4834","td","null","null","null","null","null","null","[2,1]","","",""
"","canvas-keyboard-response","19","67585","0.0-6.0-6.1","519","","","","","clear_screen","null","null","","","critical","d","t","c","227.1683","158.0083","240","164","164","240","spektor","0.09","w","240","164","164","240","227.1683","158.0083","39360","39360","35894.4834","td","null","null","null","null","null","null","[2,1]","","",""
"","canvas-keyboard-response","20","67786","0.0-6.0-0.2","519","","","","","pre trial waiting period","null","null","","","catch","l","sw","sh","228","225","157","209","160","168","spektor","null","null","null","null","null","null","null","null","null","null","null","","180","200","260","200","36000","52000","[1,3]","495.2473136845737","150.06466815733168","539.0415730733395"
"","canvas-keyboard-response","21","67809","0.0-6.0-1.2","519","","","","","clear_screen","null","null","","","catch","l","sw","sh","228","225","157","209","160","168","spektor","null","null","null","null","null","null","null","null","null","null","null","","180","200","260","200","36000","52000","[1,3]","495.2473136845737","150.06466815733168","539.0415730733395"
"","canvas-keyboard-response","22","68316","0.0-6.0-2.2","519","","","","","rectangles no change","null","null","","","catch","l","sw","sh","228","225","157","209","160","168","spektor","null","null","null","null","null","null","null","null","null","null","null","","180","200","260","200","36000","52000","[1,3]","495.2473136845737","150.06466815733168","539.0415730733395"
"","canvas-keyboard-response","23","69652","0.0-6.0-3.2","519","","","","","rectangles with change","null","null","","","catch","l","sw","sh","228","225","157","209","160","168","spektor","null","null","null","null","null","null","null","null","null","null","null","","180","200","260","200","36000","52000","[1,3]","495.2473136845737","150.06466815733168","539.0415730733395"
"","canvas-keyboard-response","24","69671","0.0-6.0-4.2","519","","","","","clear_screen","null","null","","","catch","l","sw","sh","228","225","157","209","160","168","spektor","null","null","null","null","null","null","null","null","null","null","null","","180","200","260","200","36000","52000","[1,3]","495.2473136845737","150.06466815733168","539.0415730733395"
"","canvas-keyboard-response","25","70013","0.0-6.0-5.2","519","","","","","make choice","335","1","","","catch","l","sw","sh","228","225","157","209","160","168","spektor","null","null","null","null","null","null","null","null","null","null","null","","180","200","260","200","36000","52000","[1,3]","","",""
"","canvas-keyboard-response","26","70034","0.0-6.0-6.2","519","","","","","clear_screen","null","null","","","catch","l","sw","sh","228","225","157","209","160","168","spektor","null","null","null","null","null","null","null","null","null","null","null","","180","200","260","200","36000","52000","[1,3]","","",""
"","canvas-keyboard-response","27","70235","0.0-6.0-0.3","519","","","","","pre trial waiting period","null","null","","","critical","d","t","c","154.6796","220.0396","164","240","240","164","spektor","0.14","h","164","240","240","164","154.6796","220.0396","39360","39360","34035.6388","tc","null","null","null","null","null","null","[2,3]","489.8703043051052","120.39793701841788","505.428089274231"
"","canvas-keyboard-response","28","70257","0.0-6.0-1.3","519","","","","","clear_screen","null","null","","","critical","d","t","c","154.6796","220.0396","164","240","240","164","spektor","0.14","h","164","240","240","164","154.6796","220.0396","39360","39360","34035.6388","tc","null","null","null","null","null","null","[2,3]","489.8703043051052","120.39793701841788","505.428089274231"
"","canvas-keyboard-response","29","70765","0.0-6.0-2.3","519","","","","","rectangles no change","null","null","","","critical","d","t","c","154.6796","220.0396","164","240","240","164","spektor","0.14","h","164","240","240","164","154.6796","220.0396","39360","39360","34035.6388","tc","null","null","null","null","null","null","[2,3]","489.8703043051052","120.39793701841788","505.428089274231"
"","canvas-keyboard-response","30","72106","0.0-6.0-3.3","519","","","","","rectangles with change","null","null","","","critical","d","t","c","154.6796","220.0396","164","240","240","164","spektor","0.14","h","164","240","240","164","154.6796","220.0396","39360","39360","34035.6388","tc","null","null","null","null","null","null","[2,3]","489.8703043051052","120.39793701841788","505.428089274231"
"","canvas-keyboard-response","31","72126","0.0-6.0-4.3","519","","","","","clear_screen","null","null","","","critical","d","t","c","154.6796","220.0396","164","240","240","164","spektor","0.14","h","164","240","240","164","154.6796","220.0396","39360","39360","34035.6388","tc","null","null","null","null","null","null","[2,3]","489.8703043051052","120.39793701841788","505.428089274231"
"","canvas-keyboard-response","32","75293","0.0-6.0-5.3","519","","","","","make choice","3161","3","","","critical","d","t","c","154.6796","220.0396","164","240","240","164","spektor","0.14","h","164","240","240","164","154.6796","220.0396","39360","39360","34035.6388","tc","null","null","null","null","null","null","[2,3]","","",""
"","canvas-keyboard-response","33","75314","0.0-6.0-6.3","519","","","","","clear_screen","null","null","","","critical","d","t","c","154.6796","220.0396","164","240","240","164","spektor","0.14","h","164","240","240","164","154.6796","220.0396","39360","39360","34035.6388","tc","null","null","null","null","null","null","[2,3]","","",""
"","canvas-keyboard-response","34","75515","0.0-6.0-0.4","519","","","","","pre trial waiting period","null","null","","","critical","t","d","c","240","164","220.0396","154.6796","164","240","spektor","0.14","w","240","164","164","240","220.0396","154.6796","39360","39360","34035.6388","tc","null","null","null","null","null","null","[1,3]","496.3618030302388","221.22539611846008","491.7691452290312"
"","canvas-keyboard-response","35","75536","0.0-6.0-1.4","519","","","","","clear_screen","null","null","","","critical","t","d","c","240","164","220.0396","154.6796","164","240","spektor","0.14","w","240","164","164","240","220.0396","154.6796","39360","39360","34035.6388","tc","null","null","null","null","null","null","[1,3]","496.3618030302388","221.22539611846008","491.7691452290312"
"","canvas-keyboard-response","36","76045","0.0-6.0-2.4","519","","","","","rectangles no change","null","null","","","critical","t","d","c","240","164","220.0396","154.6796","164","240","spektor","0.14","w","240","164","164","240","220.0396","154.6796","39360","39360","34035.6388","tc","null","null","null","null","null","null","[1,3]","496.3618030302388","221.22539611846008","491.7691452290312"
"","canvas-keyboard-response","37","77379","0.0-6.0-3.4","519","","","","","rectangles with change","null","null","","","critical","t","d","c","240","164","220.0396","154.6796","164","240","spektor","0.14","w","240","164","164","240","220.0396","154.6796","39360","39360","34035.6388","tc","null","null","null","null","null","null","[1,3]","496.3618030302388","221.22539611846008","491.7691452290312"
"","canvas-keyboard-response","38","77397","0.0-6.0-4.4","519","","","","","clear_screen","null","null","","","critical","t","d","c","240","164","220.0396","154.6796","164","240","spektor","0.14","w","240","164","164","240","220.0396","154.6796","39360","39360","34035.6388","tc","null","null","null","null","null","null","[1,3]","496.3618030302388","221.22539611846008","491.7691452290312"
"","canvas-keyboard-response","39","77461","0.0-6.0-5.4","519","","","","","make choice","59","1","","","critical","t","d","c","240","164","220.0396","154.6796","164","240","spektor","0.14","w","240","164","164","240","220.0396","154.6796","39360","39360","34035.6388","tc","null","null","null","null","null","null","[1,3]","","",""
"","canvas-keyboard-response","40","77479","0.0-6.0-6.4","519","","","","","clear_screen","null","null","","","critical","t","d","c","240","164","220.0396","154.6796","164","240","spektor","0.14","w","240","164","164","240","220.0396","154.6796","39360","39360","34035.6388","tc","null","null","null","null","null","null","[1,3]","","",""
"","canvas-keyboard-response","41","77680","0.0-6.0-0.5","519","","","","","pre trial waiting period","null","null","","","catch","sw","l","sh","180","200","233","286","213","169","spektor","null","null","null","null","null","null","null","null","null","null","null","","180","200","260","200","36000","52000","[2,3]","502.6995569685814","60.11901016463985","538.7791338643653"
"","canvas-keyboard-response","42","77701","0.0-6.0-1.5","519","","","","","clear_screen","null","null","","","catch","sw","l","sh","180","200","233","286","213","169","spektor","null","null","null","null","null","null","null","null","null","null","null","","180","200","260","200","36000","52000","[2,3]","502.6995569685814","60.11901016463985","538.7791338643653"
"","canvas-keyboard-response","43","78213","0.0-6.0-2.5","519","","","","","rectangles no change","null","null","","","catch","sw","l","sh","180","200","233","286","213","169","spektor","null","null","null","null","null","null","null","null","null","null","null","","180","200","260","200","36000","52000","[2,3]","502.6995569685814","60.11901016463985","538.7791338643653"
"","canvas-keyboard-response","44","79548","0.0-6.0-3.5","519","","","","","rectangles with change","null","null","","","catch","sw","l","sh","180","200","233","286","213","169","spektor","null","null","null","null","null","null","null","null","null","null","null","","180","200","260","200","36000","52000","[2,3]","502.6995569685814","60.11901016463985","538.7791338643653"
"","canvas-keyboard-response","45","79567","0.0-6.0-4.5","519","","","","","clear_screen","null","null","","","catch","sw","l","sh","180","200","233","286","213","169","spektor","null","null","null","null","null","null","null","null","null","null","null","","180","200","260","200","36000","52000","[2,3]","502.6995569685814","60.11901016463985","538.7791338643653"
"","canvas-keyboard-response","46","80028","0.0-6.0-5.5","519","","","","","make choice","458","2","","","catch","sw","l","sh","180","200","233","286","213","169","spektor","null","null","null","null","null","null","null","null","null","null","null","","180","200","260","200","36000","52000","[2,3]","","",""
"","canvas-keyboard-response","47","80042","0.0-6.0-6.5","519","","","","","clear_screen","null","null","","","catch","sw","l","sh","180","200","233","286","213","169","spektor","null","null","null","null","null","null","null","null","null","null","null","","180","200","260","200","36000","52000","[2,3]","","",""
"","canvas-keyboard-response","48","80242","0.0-6.0-0.6","519","","","","","pre trial waiting period","null","null","","","catch","sw","sh","l","180","200","160","151","175","270","spektor","null","null","null","null","null","null","null","null","null","null","null","","180","200","260","200","36000","52000","[1,3]","476.5371813196034","164.24065225670586","456.5543537611924"
"","canvas-keyboard-response","49","80257","0.0-6.0-1.6","519","","","","","clear_screen","null","null","","","catch","sw","sh","l","180","200","160","151","175","270","spektor","null","null","null","null","null","null","null","null","null","null","null","","180","200","260","200","36000","52000","[1,3]","476.5371813196034","164.24065225670586","456.5543537611924"
"","canvas-keyboard-response","50","80769","0.0-6.0-2.6","519","","","","","rectangles no change","null","null","","","catch","sw","sh","l","180","200","160","151","175","270","spektor","null","null","null","null","null","null","null","null","null","null","null","","180","200","260","200","36000","52000","[1,3]","476.5371813196034","164.24065225670586","456.5543537611924"
"","canvas-keyboard-response","51","82109","0.0-6.0-3.6","519","","","","","rectangles with change","null","null","","","catch","sw","sh","l","180","200","160","151","175","270","spektor","null","null","null","null","null","null","null","null","null","null","null","","180","200","260","200","36000","52000","[1,3]","476.5371813196034","164.24065225670586","456.5543537611924"
"","canvas-keyboard-response","52","82130","0.0-6.0-4.6","519","","","","","clear_screen","null","null","","","catch","sw","sh","l","180","200","160","151","175","270","spektor","null","null","null","null","null","null","null","null","null","null","null","","180","200","260","200","36000","52000","[1,3]","476.5371813196034","164.24065225670586","456.5543537611924"
"","canvas-keyboard-response","53","82276","0.0-6.0-5.6","519","","","","","make choice","143","3","","","catch","sw","sh","l","180","200","160","151","175","270","spektor","null","null","null","null","null","null","null","null","null","null","null","","180","200","260","200","36000","52000","[1,3]","","",""
"","canvas-keyboard-response","54","82296","0.0-6.0-6.6","519","","","","","clear_screen","null","null","","","catch","sw","sh","l","180","200","160","151","175","270","spektor","null","null","null","null","null","null","null","null","null","null","null","","180","200","260","200","36000","52000","[1,3]","","",""
"","canvas-keyboard-response","55","82497","0.0-6.0-0.7","519","","","","","pre trial waiting period","null","null","","","critical","c","t","d","164","240","240","164","232.8713","160.6713","spektor","0.05","w","240","164","164","240","232.8713","160.6713","39360","39360","37415.7294","tc","null","null","null","null","null","null","[2,1]","463.5272097866285","178.68731098099892","517.3267936803915"
"","canvas-keyboard-response","56","82519","0.0-6.0-1.7","519","","","","","clear_screen","null","null","","","critical","c","t","d","164","240","240","164","232.8713","160.6713","spektor","0.05","w","240","164","164","240","232.8713","160.6713","39360","39360","37415.7294","tc","null","null","null","null","null","null","[2,1]","463.5272097866285","178.68731098099892","517.3267936803915"
"","canvas-keyboard-response","57","83023","0.0-6.0-2.7","519","","","","","rectangles no change","null","null","","","critical","c","t","d","164","240","240","164","232.8713","160.6713","spektor","0.05","w","240","164","164","240","232.8713","160.6713","39360","39360","37415.7294","tc","null","null","null","null","null","null","[2,1]","463.5272097866285","178.68731098099892","517.3267936803915"
"","canvas-keyboard-response","58","84358","0.0-6.0-3.7","519","","","","","rectangles with change","null","null","","","critical","c","t","d","164","240","240","164","232.8713","160.6713","spektor","0.05","w","240","164","164","240","232.8713","160.6713","39360","39360","37415.7294","tc","null","null","null","null","null","null","[2,1]","463.5272097866285","178.68731098099892","517.3267936803915"
"","canvas-keyboard-response","59","84381","0.0-6.0-4.7","519","","","","","clear_screen","null","null","","","critical","c","t","d","164","240","240","164","232.8713","160.6713","spektor","0.05","w","240","164","164","240","232.8713","160.6713","39360","39360","37415.7294","tc","null","null","null","null","null","null","[2,1]","463.5272097866285","178.68731098099892","517.3267936803915"
"","canvas-keyboard-response","60","84662","0.0-6.0-5.7","519","","","","","make choice","275","1","","","critical","c","t","d","164","240","240","164","232.8713","160.6713","spektor","0.05","w","240","164","164","240","232.8713","160.6713","39360","39360","37415.7294","tc","null","null","null","null","null","null","[2,1]","","",""
"","canvas-keyboard-response","61","84682","0.0-6.0-6.7","519","","","","","clear_screen","null","null","","","critical","c","t","d","164","240","240","164","232.8713","160.6713","spektor","0.05","w","240","164","164","240","232.8713","160.6713","39360","39360","37415.7294","tc","null","null","null","null","null","null","[2,1]","","",""
"","canvas-keyboard-response","62","84883","0.0-6.0-0.8","519","","","","","pre trial waiting period","null","null","","","catch","l","sw","sh","208","295","177","187","229","189","trueblood","null","null","null","null","null","null","null","null","null","null","null","","180","200","260","200","36000","52000","[1,2]","403.4413596236612","484.04038762527944","492.7838171358039"
"","canvas-keyboard-response","63","84903","0.0-6.0-1.8","519","","","","","clear_screen","null","null","","","catch","l","sw","sh","208","295","177","187","229","189","trueblood","null","null","null","null","null","null","null","null","null","null","null","","180","200","260","200","36000","52000","[1,2]","403.4413596236612","484.04038762527944","492.7838171358039"
"","canvas-keyboard-response","64","85410","0.0-6.0-2.8","519","","","","","rectangles no change","null","null","","","catch","l","sw","sh","208","295","177","187","229","189","trueblood","null","null","null","null","null","null","null","null","null","null","null","","180","200","260","200","36000","52000","[1,2]","403.4413596236612","484.04038762527944","492.7838171358039"
"","canvas-keyboard-response","65","86743","0.0-6.0-3.8","519","","","","","rectangles with change","null","null","","","catch","l","sw","sh","208","295","177","187","229","189","trueblood","null","null","null","null","null","null","null","null","null","null","null","","180","200","260","200","36000","52000","[1,2]","403.4413596236612","484.04038762527944","492.7838171358039"
"","canvas-keyboard-response","66","86765","0.0-6.0-4.8","519","","","","","clear_screen","null","null","","","catch","l","sw","sh","208","295","177","187","229","189","trueblood","null","null","null","null","null","null","null","null","null","null","null","","180","200","260","200","36000","52000","[1,2]","403.4413596236612","484.04038762527944","492.7838171358039"
"","canvas-keyboard-response","67","86973","0.0-6.0-5.8","519","","","","","make choice","201","1","","","catch","l","sw","sh","208","295","177","187","229","189","trueblood","null","null","null","null","null","null","null","null","null","null","null","","180","200","260","200","36000","52000","[1,2]","","",""
"","canvas-keyboard-response","68","86993","0.0-6.0-6.8","519","","","","","clear_screen","null","null","","","catch","l","sw","sh","208","295","177","187","229","189","trueblood","null","null","null","null","null","null","null","null","null","null","null","","180","200","260","200","36000","52000","[1,2]","","",""
"","canvas-keyboard-response","69","87194","0.0-6.0-0.9","519","","","","","pre trial waiting period","null","null","","","catch","sh","l","sw","211","171","236","223","215","211","trueblood","null","null","null","null","null","null","null","null","null","null","null","","180","200","260","200","36000","52000","[2,3]","508.3154364500691","478.19374715181914","464.0487391919203"
"","canvas-keyboard-response","70","87212","0.0-6.0-1.9","519","","","","","clear_screen","null","null","","","catch","sh","l","sw","211","171","236","223","215","211","trueblood","null","null","null","null","null","null","null","null","null","null","null","","180","200","260","200","36000","52000","[2,3]","508.3154364500691","478.19374715181914","464.0487391919203"
"","canvas-keyboard-response","71","87720","0.0-6.0-2.9","519","","","","","rectangles no change","null","null","","","catch","sh","l","sw","211","171","236","223","215","211","trueblood","null","null","null","null","null","null","null","null","null","null","null","","180","200","260","200","36000","52000","[2,3]","508.3154364500691","478.19374715181914","464.0487391919203"
"","canvas-keyboard-response","72","89057","0.0-6.0-3.9","519","","","","","rectangles with change","null","null","","","catch","sh","l","sw","211","171","236","223","215","211","trueblood","null","null","null","null","null","null","null","null","null","null","null","","180","200","260","200","36000","52000","[2,3]","508.3154364500691","478.19374715181914","464.0487391919203"
"","canvas-keyboard-response","73","89077","0.0-6.0-4.9","519","","","","","clear_screen","null","null","","","catch","sh","l","sw","211","171","236","223","215","211","trueblood","null","null","null","null","null","null","null","null","null","null","null","","180","200","260","200","36000","52000","[2,3]","508.3154364500691","478.19374715181914","464.0487391919203"
"","canvas-keyboard-response","74","89316","0.0-6.0-5.9","519","","","","","make choice","233","2","","","catch","sh","l","sw","211","171","236","223","215","211","trueblood","null","null","null","null","null","null","null","null","null","null","null","","180","200","260","200","36000","52000","[2,3]","","",""
"","canvas-keyboard-response","75","89336","0.0-6.0-6.9","519","","","","","clear_screen","null","null","","","catch","sh","l","sw","211","171","236","223","215","211","trueblood","null","null","null","null","null","null","null","null","null","null","null","","180","200","260","200","36000","52000","[2,3]","","",""
"","canvas-keyboard-response","76","89538","0.0-6.0-0.10","519","","","","","pre trial waiting period","null","null","","","critical","t","c","d","240","164","164","240","240","164","spektor","0","w","240","164","164","240","240","164","39360","39360","39360","tc","null","null","null","null","null","null","[1,2]","531.9215360541309","128.86847414841182","508.4845755951637"
"","canvas-keyboard-response","77","89562","0.0-6.0-1.10","519","","","","","clear_screen","null","null","","","critical","t","c","d","240","164","164","240","240","164","spektor","0","w","240","164","164","240","240","164","39360","39360","39360","tc","null","null","null","null","null","null","[1,2]","531.9215360541309","128.86847414841182","508.4845755951637"
"","canvas-keyboard-response","78","90070","0.0-6.0-2.10","519","","","","","rectangles no change","null","null","","","critical","t","c","d","240","164","164","240","240","164","spektor","0","w","240","164","164","240","240","164","39360","39360","39360","tc","null","null","null","null","null","null","[1,2]","531.9215360541309","128.86847414841182","508.4845755951637"
"","canvas-keyboard-response","79","91405","0.0-6.0-3.10","519","","","","","rectangles with change","null","null","","","critical","t","c","d","240","164","164","240","240","164","spektor","0","w","240","164","164","240","240","164","39360","39360","39360","tc","null","null","null","null","null","null","[1,2]","531.9215360541309","128.86847414841182","508.4845755951637"
"","canvas-keyboard-response","80","91425","0.0-6.0-4.10","519","","","","","clear_screen","null","null","","","critical","t","c","d","240","164","164","240","240","164","spektor","0","w","240","164","164","240","240","164","39360","39360","39360","tc","null","null","null","null","null","null","[1,2]","531.9215360541309","128.86847414841182","508.4845755951637"
"","canvas-keyboard-response","81","91653","0.0-6.0-5.10","519","","","","","make choice","221","1","","","critical","t","c","d","240","164","164","240","240","164","spektor","0","w","240","164","164","240","240","164","39360","39360","39360","tc","null","null","null","null","null","null","[1,2]","","",""
"","canvas-keyboard-response","82","91672","0.0-6.0-6.10","519","","","","","clear_screen","null","null","","","critical","t","c","d","240","164","164","240","240","164","spektor","0","w","240","164","164","240","240","164","39360","39360","39360","tc","null","null","null","null","null","null","[1,2]","","",""
"","canvas-keyboard-response","83","91873","0.0-6.0-0.11","519","","","","","pre trial waiting period","null","null","","","critical","t","c","d","240","164","164","240","227.1683","158.0083","trueblood","0.09","w","240","164","164","240","227.1683","158.0083","39360","39360","35894.4834","dc","null","null","null","null","null","null","[3,2]","505.8080811297007","454.64843341415957","511.4598990033651"
"","canvas-keyboard-response","84","91896","0.0-6.0-1.11","519","","","","","clear_screen","null","null","","","critical","t","c","d","240","164","164","240","227.1683","158.0083","trueblood","0.09","w","240","164","164","240","227.1683","158.0083","39360","39360","35894.4834","dc","null","null","null","null","null","null","[3,2]","505.8080811297007","454.64843341415957","511.4598990033651"
"","canvas-keyboard-response","85","92402","0.0-6.0-2.11","519","","","","","rectangles no change","null","null","","","critical","t","c","d","240","164","164","240","227.1683","158.0083","trueblood","0.09","w","240","164","164","240","227.1683","158.0083","39360","39360","35894.4834","dc","null","null","null","null","null","null","[3,2]","505.8080811297007","454.64843341415957","511.4598990033651"
"","canvas-keyboard-response","86","93738","0.0-6.0-3.11","519","","","","","rectangles with change","null","null","","","critical","t","c","d","240","164","164","240","227.1683","158.0083","trueblood","0.09","w","240","164","164","240","227.1683","158.0083","39360","39360","35894.4834","dc","null","null","null","null","null","null","[3,2]","505.8080811297007","454.64843341415957","511.4598990033651"
"","canvas-keyboard-response","87","93756","0.0-6.0-4.11","519","","","","","clear_screen","null","null","","","critical","t","c","d","240","164","164","240","227.1683","158.0083","trueblood","0.09","w","240","164","164","240","227.1683","158.0083","39360","39360","35894.4834","dc","null","null","null","null","null","null","[3,2]","505.8080811297007","454.64843341415957","511.4598990033651"
"","canvas-keyboard-response","88","94597","0.0-6.0-5.11","519","","","","","make choice","836","2","","","critical","t","c","d","240","164","164","240","227.1683","158.0083","trueblood","0.09","w","240","164","164","240","227.1683","158.0083","39360","39360","35894.4834","dc","null","null","null","null","null","null","[3,2]","","",""
"","canvas-keyboard-response","89","94614","0.0-6.0-6.11","519","","","","","clear_screen","null","null","","","critical","t","c","d","240","164","164","240","227.1683","158.0083","trueblood","0.09","w","240","164","164","240","227.1683","158.0083","39360","39360","35894.4834","dc","null","null","null","null","null","null","[3,2]","","",""
"","canvas-keyboard-response","90","94816","0.0-6.0-0.12","519","","","","","pre trial waiting period","null","null","","","critical","t","c","d","164","240","240","164","154.6796","220.0396","spektor","0.14","h","164","240","240","164","154.6796","220.0396","39360","39360","34035.6388","td","null","null","null","null","null","null","[1,3]","456.85798116935376","155.28393796149717","513.2277785533736"
"","canvas-keyboard-response","91","94837","0.0-6.0-1.12","519","","","","","clear_screen","null","null","","","critical","t","c","d","164","240","240","164","154.6796","220.0396","spektor","0.14","h","164","240","240","164","154.6796","220.0396","39360","39360","34035.6388","td","null","null","null","null","null","null","[1,3]","456.85798116935376","155.28393796149717","513.2277785533736"
"","canvas-keyboard-response","92","95343","0.0-6.0-2.12","519","","","","","rectangles no change","null","null","","","critical","t","c","d","164","240","240","164","154.6796","220.0396","spektor","0.14","h","164","240","240","164","154.6796","220.0396","39360","39360","34035.6388","td","null","null","null","null","null","null","[1,3]","456.85798116935376","155.28393796149717","513.2277785533736"
"","canvas-keyboard-response","93","96678","0.0-6.0-3.12","519","","","","","rectangles with change","null","null","","","critical","t","c","d","164","240","240","164","154.6796","220.0396","spektor","0.14","h","164","240","240","164","154.6796","220.0396","39360","39360","34035.6388","td","null","null","null","null","null","null","[1,3]","456.85798116935376","155.28393796149717","513.2277785533736"
"","canvas-keyboard-response","94","96693","0.0-6.0-4.12","519","","","","","clear_screen","null","null","","","critical","t","c","d","164","240","240","164","154.6796","220.0396","spektor","0.14","h","164","240","240","164","154.6796","220.0396","39360","39360","34035.6388","td","null","null","null","null","null","null","[1,3]","456.85798116935376","155.28393796149717","513.2277785533736"
"","canvas-keyboard-response","95","98523","0.0-6.0-5.12","519","","","","","make choice","1823","3","","","critical","t","c","d","164","240","240","164","154.6796","220.0396","spektor","0.14","h","164","240","240","164","154.6796","220.0396","39360","39360","34035.6388","td","null","null","null","null","null","null","[1,3]","","",""
"","canvas-keyboard-response","96","98539","0.0-6.0-6.12","519","","","","","clear_screen","null","null","","","critical","t","c","d","164","240","240","164","154.6796","220.0396","spektor","0.14","h","164","240","240","164","154.6796","220.0396","39360","39360","34035.6388","td","null","null","null","null","null","null","[1,3]","","",""
"","canvas-keyboard-response","97","98740","0.0-6.0-0.13","519","","","","","pre trial waiting period","null","null","","","catch","l","sw","sh","167","275","189","201","169","160","spektor","null","null","null","null","null","null","null","null","null","null","null","","180","200","260","200","36000","52000","[1,3]","449.7745843412432","149.4555857990419","544.8783589387081"
"","canvas-keyboard-response","98","98764","0.0-6.0-1.13","519","","","","","clear_screen","null","null","","","catch","l","sw","sh","167","275","189","201","169","160","spektor","null","null","null","null","null","null","null","null","null","null","null","","180","200","260","200","36000","52000","[1,3]","449.7745843412432","149.4555857990419","544.8783589387081"
"","canvas-keyboard-response","99","99270","0.0-6.0-2.13","519","","","","","rectangles no change","null","null","","","catch","l","sw","sh","167","275","189","201","169","160","spektor","null","null","null","null","null","null","null","null","null","null","null","","180","200","260","200","36000","52000","[1,3]","449.7745843412432","149.4555857990419","544.8783589387081"
"","canvas-keyboard-response","100","100607","0.0-6.0-3.13","519","","","","","rectangles with change","null","null","","","catch","l","sw","sh","167","275","189","201","169","160","spektor","null","null","null","null","null","null","null","null","null","null","null","","180","200","260","200","36000","52000","[1,3]","449.7745843412432","149.4555857990419","544.8783589387081"
"","canvas-keyboard-response","101","100624","0.0-6.0-4.13","519","","","","","clear_screen","null","null","","","catch","l","sw","sh","167","275","189","201","169","160","spektor","null","null","null","null","null","null","null","null","null","null","null","","180","200","260","200","36000","52000","[1,3]","449.7745843412432","149.4555857990419","544.8783589387081"
"","canvas-keyboard-response","102","101189","0.0-6.0-5.13","519","","","","","make choice","561","1","","","catch","l","sw","sh","167","275","189","201","169","160","spektor","null","null","null","null","null","null","null","null","null","null","null","","180","200","260","200","36000","52000","[1,3]","","",""
"","canvas-keyboard-response","103","101208","0.0-6.0-6.13","519","","","","","clear_screen","null","null","","","catch","l","sw","sh","167","275","189","201","169","160","spektor","null","null","null","null","null","null","null","null","null","null","null","","180","200","260","200","36000","52000","[1,3]","","",""
"","canvas-keyboard-response","104","101409","0.0-6.0-0.14","519","","","","","pre trial waiting period","null","null","","","critical","c","t","d","240","164","164","240","158.0083","227.1683","spektor","0.09","h","164","240","240","164","158.0083","227.1683","39360","39360","35894.4834","dc","null","null","null","null","null","null","[3,1]","510.88025972144914","139.06598478518444","488.2157406836863"
"","canvas-keyboard-response","105","101431","0.0-6.0-1.14","519","","","","","clear_screen","null","null","","","critical","c","t","d","240","164","164","240","158.0083","227.1683","spektor","0.09","h","164","240","240","164","158.0083","227.1683","39360","39360","35894.4834","dc","null","null","null","null","null","null","[3,1]","510.88025972144914","139.06598478518444","488.2157406836863"
"","canvas-keyboard-response","106","101938","0.0-6.0-2.14","519","","","","","rectangles no change","null","null","","","critical","c","t","d","240","164","164","240","158.0083","227.1683","spektor","0.09","h","164","240","240","164","158.0083","227.1683","39360","39360","35894.4834","dc","null","null","null","null","null","null","[3,1]","510.88025972144914","139.06598478518444","488.2157406836863"
"","canvas-keyboard-response","107","103274","0.0-6.0-3.14","519","","","","","rectangles with change","null","null","","","critical","c","t","d","240","164","164","240","158.0083","227.1683","spektor","0.09","h","164","240","240","164","158.0083","227.1683","39360","39360","35894.4834","dc","null","null","null","null","null","null","[3,1]","510.88025972144914","139.06598478518444","488.2157406836863"
"","canvas-keyboard-response","108","103296","0.0-6.0-4.14","519","","","","","clear_screen","null","null","","","critical","c","t","d","240","164","164","240","158.0083","227.1683","spektor","0.09","h","164","240","240","164","158.0083","227.1683","39360","39360","35894.4834","dc","null","null","null","null","null","null","[3,1]","510.88025972144914","139.06598478518444","488.2157406836863"
"","canvas-keyboard-response","109","103822","0.0-6.0-5.14","519","","","","","make choice","520","1","","","critical","c","t","d","240","164","164","240","158.0083","227.1683","spektor","0.09","h","164","240","240","164","158.0083","227.1683","39360","39360","35894.4834","dc","null","null","null","null","null","null","[3,1]","","",""
"","canvas-keyboard-response","110","103843","0.0-6.0-6.14","519","","","","","clear_screen","null","null","","","critical","c","t","d","240","164","164","240","158.0083","227.1683","spektor","0.09","h","164","240","240","164","158.0083","227.1683","39360","39360","35894.4834","dc","null","null","null","null","null","null","[3,1]","","",""
"","canvas-keyboard-response","111","104044","0.0-6.0-0.15","519","","","","","pre trial waiting period","null","null","","","catch","sw","l","sh","180","200","239","239","209","205","spektor","null","null","null","null","null","null","null","null","null","null","null","","180","200","260","200","36000","52000","[1,2]","483.9649325553892","129.7178738716026","485.71900339951674"
"","canvas-keyboard-response","112","104062","0.0-6.0-1.15","519","","","","","clear_screen","null","null","","","catch","sw","l","sh","180","200","239","239","209","205","spektor","null","null","null","null","null","null","null","null","null","null","null","","180","200","260","200","36000","52000","[1,2]","483.9649325553892","129.7178738716026","485.71900339951674"
"","canvas-keyboard-response","113","104572","0.0-6.0-2.15","519","","","","","rectangles no change","null","null","","","catch","sw","l","sh","180","200","239","239","209","205","spektor","null","null","null","null","null","null","null","null","null","null","null","","180","200","260","200","36000","52000","[1,2]","483.9649325553892","129.7178738716026","485.71900339951674"
"","canvas-keyboard-response","114","105910","0.0-6.0-3.15","519","","","","","rectangles with change","null","null","","","catch","sw","l","sh","180","200","239","239","209","205","spektor","null","null","null","null","null","null","null","null","null","null","null","","180","200","260","200","36000","52000","[1,2]","483.9649325553892","129.7178738716026","485.71900339951674"
"","canvas-keyboard-response","115","105933","0.0-6.0-4.15","519","","","","","clear_screen","null","null","","","catch","sw","l","sh","180","200","239","239","209","205","spektor","null","null","null","null","null","null","null","null","null","null","null","","180","200","260","200","36000","52000","[1,2]","483.9649325553892","129.7178738716026","485.71900339951674"
"","canvas-keyboard-response","116","106277","0.0-6.0-5.15","519","","","","","make choice","337","2","","","catch","sw","l","sh","180","200","239","239","209","205","spektor","null","null","null","null","null","null","null","null","null","null","null","","180","200","260","200","36000","52000","[1,2]","","",""
"","canvas-keyboard-response","117","106295","0.0-6.0-6.15","519","","","","","clear_screen","null","null","","","catch","sw","l","sh","180","200","239","239","209","205","spektor","null","null","null","null","null","null","null","null","null","null","null","","180","200","260","200","36000","52000","[1,2]","","",""
"","canvas-keyboard-response","118","106496","0.0-6.0-0.16","519","","","","","pre trial waiting period","null","null","","","catch","sh","l","sw","198","143","250","196","217","204","spektor","null","null","null","null","null","null","null","null","null","null","null","","180","200","260","200","36000","52000","[2,3]","551.6186359570346","196.43763602820158","501.35435060497394"
"","canvas-keyboard-response","119","106510","0.0-6.0-1.16","519","","","","","clear_screen","null","null","","","catch","sh","l","sw","198","143","250","196","217","204","spektor","null","null","null","null","null","null","null","null","null","null","null","","180","200","260","200","36000","52000","[2,3]","551.6186359570346","196.43763602820158","501.35435060497394"
"","canvas-keyboard-response","120","107021","0.0-6.0-2.16","519","","","","","rectangles no change","null","null","","","catch","sh","l","sw","198","143","250","196","217","204","spektor","null","null","null","null","null","null","null","null","null","null","null","","180","200","260","200","36000","52000","[2,3]","551.6186359570346","196.43763602820158","501.35435060497394"
"","canvas-keyboard-response","121","108360","0.0-6.0-3.16","519","","","","","rectangles with change","null","null","","","catch","sh","l","sw","198","143","250","196","217","204","spektor","null","null","null","null","null","null","null","null","null","null","null","","180","200","260","200","36000","52000","[2,3]","551.6186359570346","196.43763602820158","501.35435060497394"
"","canvas-keyboard-response","122","108375","0.0-6.0-4.16","519","","","","","clear_screen","null","null","","","catch","sh","l","sw","198","143","250","196","217","204","spektor","null","null","null","null","null","null","null","null","null","null","null","","180","200","260","200","36000","52000","[2,3]","551.6186359570346","196.43763602820158","501.35435060497394"
"","canvas-keyboard-response","123","108772","0.0-6.0-5.16","519","","","","","make choice","393","2","","","catch","sh","l","sw","198","143","250","196","217","204","spektor","null","null","null","null","null","null","null","null","null","null","null","","180","200","260","200","36000","52000","[2,3]","","",""
"","canvas-keyboard-response","124","108791","0.0-6.0-6.16","519","","","","","clear_screen","null","null","","","catch","sh","l","sw","198","143","250","196","217","204","spektor","null","null","null","null","null","null","null","null","null","null","null","","180","200","260","200","36000","52000","[2,3]","","",""
"","canvas-keyboard-response","125","108992","0.0-6.0-0.17","519","","","","","pre trial waiting period","null","null","","","critical","c","t","d","240","164","164","240","162.6685","237.1485","trueblood","0.02","h","164","240","240","164","162.6685","237.1485","39360","39360","38576.5967","td","null","null","null","null","null","null","[2,3]","511.07799663115685","445.7767715213486","462.0704841746634"
"","canvas-keyboard-response","126","109011","0.0-6.0-1.17","519","","","","","clear_screen","null","null","","","critical","c","t","d","240","164","164","240","162.6685","237.1485","trueblood","0.02","h","164","240","240","164","162.6685","237.1485","39360","39360","38576.5967","td","null","null","null","null","null","null","[2,3]","511.07799663115685","445.7767715213486","462.0704841746634"
"","canvas-keyboard-response","127","109517","0.0-6.0-2.17","519","","","","","rectangles no change","null","null","","","critical","c","t","d","240","164","164","240","162.6685","237.1485","trueblood","0.02","h","164","240","240","164","162.6685","237.1485","39360","39360","38576.5967","td","null","null","null","null","null","null","[2,3]","511.07799663115685","445.7767715213486","462.0704841746634"
"","canvas-keyboard-response","128","110853","0.0-6.0-3.17","519","","","","","rectangles with change","null","null","","","critical","c","t","d","240","164","164","240","162.6685","237.1485","trueblood","0.02","h","164","240","240","164","162.6685","237.1485","39360","39360","38576.5967","td","null","null","null","null","null","null","[2,3]","511.07799663115685","445.7767715213486","462.0704841746634"
"","canvas-keyboard-response","129","110875","0.0-6.0-4.17","519","","","","","clear_screen","null","null","","","critical","c","t","d","240","164","164","240","162.6685","237.1485","trueblood","0.02","h","164","240","240","164","162.6685","237.1485","39360","39360","38576.5967","td","null","null","null","null","null","null","[2,3]","511.07799663115685","445.7767715213486","462.0704841746634"
"","canvas-keyboard-response","130","111268","0.0-6.0-5.17","519","","","","","make choice","390","2","","","critical","c","t","d","240","164","164","240","162.6685","237.1485","trueblood","0.02","h","164","240","240","164","162.6685","237.1485","39360","39360","38576.5967","td","null","null","null","null","null","null","[2,3]","","",""
"","canvas-keyboard-response","131","111286","0.0-6.0-6.17","519","","","","","clear_screen","null","null","","","critical","c","t","d","240","164","164","240","162.6685","237.1485","trueblood","0.02","h","164","240","240","164","162.6685","237.1485","39360","39360","38576.5967","td","null","null","null","null","null","null","[2,3]","","",""
"","canvas-keyboard-response","132","111488","0.0-6.0-0.18","519","","","","","pre trial waiting period","null","null","","","critical","d","t","c","160.6713","232.8713","164","240","240","164","spektor","0.05","h","164","240","240","164","160.6713","232.8713","39360","39360","37415.7294","tc","null","null","null","null","null","null","[2,3]","501.0918691366103","110.27617610137678","518.6940620206223"
"","canvas-keyboard-response","133","111507","0.0-6.0-1.18","519","","","","","clear_screen","null","null","","","critical","d","t","c","160.6713","232.8713","164","240","240","164","spektor","0.05","h","164","240","240","164","160.6713","232.8713","39360","39360","37415.7294","tc","null","null","null","null","null","null","[2,3]","501.0918691366103","110.27617610137678","518.6940620206223"
"","canvas-keyboard-response","134","112012","0.0-6.0-2.18","519","","","","","rectangles no change","null","null","","","critical","d","t","c","160.6713","232.8713","164","240","240","164","spektor","0.05","h","164","240","240","164","160.6713","232.8713","39360","39360","37415.7294","tc","null","null","null","null","null","null","[2,3]","501.0918691366103","110.27617610137678","518.6940620206223"
"","canvas-keyboard-response","135","113350","0.0-6.0-3.18","519","","","","","rectangles with change","null","null","","","critical","d","t","c","160.6713","232.8713","164","240","240","164","spektor","0.05","h","164","240","240","164","160.6713","232.8713","39360","39360","37415.7294","tc","null","null","null","null","null","null","[2,3]","501.0918691366103","110.27617610137678","518.6940620206223"
"","canvas-keyboard-response","136","113370","0.0-6.0-4.18","519","","","","","clear_screen","null","null","","","critical","d","t","c","160.6713","232.8713","164","240","240","164","spektor","0.05","h","164","240","240","164","160.6713","232.8713","39360","39360","37415.7294","tc","null","null","null","null","null","null","[2,3]","501.0918691366103","110.27617610137678","518.6940620206223"
"","canvas-keyboard-response","137","113645","0.0-6.0-5.18","519","","","","","make choice","271","3","","","critical","d","t","c","160.6713","232.8713","164","240","240","164","spektor","0.05","h","164","240","240","164","160.6713","232.8713","39360","39360","37415.7294","tc","null","null","null","null","null","null","[2,3]","","",""
"","canvas-keyboard-response","138","113665","0.0-6.0-6.18","519","","","","","clear_screen","null","null","","","critical","d","t","c","160.6713","232.8713","164","240","240","164","spektor","0.05","h","164","240","240","164","160.6713","232.8713","39360","39360","37415.7294","tc","null","null","null","null","null","null","[2,3]","","",""
"","canvas-keyboard-response","139","113866","0.0-6.0-0.19","519","","","","","pre trial waiting period","null","null","","","catch","l","sh","sw","239","227","195","175","159","195","spektor","null","null","null","null","null","null","null","null","null","null","null","","180","200","260","200","36000","52000","[1,2]","490.0529063553609","159.19513052304228","524.3339386362827"
"","canvas-keyboard-response","140","113886","0.0-6.0-1.19","519","","","","","clear_screen","null","null","","","catch","l","sh","sw","239","227","195","175","159","195","spektor","null","null","null","null","null","null","null","null","null","null","null","","180","200","260","200","36000","52000","[1,2]","490.0529063553609","159.19513052304228","524.3339386362827"
"","canvas-keyboard-response","141","114396","0.0-6.0-2.19","519","","","","","rectangles no change","null","null","","","catch","l","sh","sw","239","227","195","175","159","195","spektor","null","null","null","null","null","null","null","null","null","null","null","","180","200","260","200","36000","52000","[1,2]","490.0529063553609","159.19513052304228","524.3339386362827"
"","canvas-keyboard-response","142","115730","0.0-6.0-3.19","519","","","","","rectangles with change","null","null","","","catch","l","sh","sw","239","227","195","175","159","195","spektor","null","null","null","null","null","null","null","null","null","null","null","","180","200","260","200","36000","52000","[1,2]","490.0529063553609","159.19513052304228","524.3339386362827"
"","canvas-keyboard-response","143","115753","0.0-6.0-4.19","519","","","","","clear_screen","null","null","","","catch","l","sh","sw","239","227","195","175","159","195","spektor","null","null","null","null","null","null","null","null","null","null","null","","180","200","260","200","36000","52000","[1,2]","490.0529063553609","159.19513052304228","524.3339386362827"
"","canvas-keyboard-response","144","116013","0.0-6.0-5.19","519","","","","","make choice","255","1","","","catch","l","sh","sw","239","227","195","175","159","195","spektor","null","null","null","null","null","null","null","null","null","null","null","","180","200","260","200","36000","52000","[1,2]","","",""
"","canvas-keyboard-response","145","116032","0.0-6.0-6.19","519","","","","","clear_screen","null","null","","","catch","l","sh","sw","239","227","195","175","159","195","spektor","null","null","null","null","null","null","null","null","null","null","null","","180","200","260","200","36000","52000","[1,2]","","",""
"","canvas-keyboard-response","146","116233","0.0-6.0-0.20","519","","","","","pre trial waiting period","null","null","","","catch","sh","sw","l","182","182","153","238","231","205","trueblood","null","null","null","null","null","null","null","null","null","null","null","","180","200","260","200","36000","52000","[2,3]","470.09186492990506","426.71696066451136","454.21368615056207"
"","canvas-keyboard-response","147","116252","0.0-6.0-1.20","519","","","","","clear_screen","null","null","","","catch","sh","sw","l","182","182","153","238","231","205","trueblood","null","null","null","null","null","null","null","null","null","null","null","","180","200","260","200","36000","52000","[2,3]","470.09186492990506","426.71696066451136","454.21368615056207"
"","canvas-keyboard-response","148","116762","0.0-6.0-2.20","519","","","","","rectangles no change","null","null","","","catch","sh","sw","l","182","182","153","238","231","205","trueblood","null","null","null","null","null","null","null","null","null","null","null","","180","200","260","200","36000","52000","[2,3]","470.09186492990506","426.71696066451136","454.21368615056207"
"","canvas-keyboard-response","149","118096","0.0-6.0-3.20","519","","","","","rectangles with change","null","null","","","catch","sh","sw","l","182","182","153","238","231","205","trueblood","null","null","null","null","null","null","null","null","null","null","null","","180","200","260","200","36000","52000","[2,3]","470.09186492990506","426.71696066451136","454.21368615056207"
"","canvas-keyboard-response","150","118118","0.0-6.0-4.20","519","","","","","clear_screen","null","null","","","catch","sh","sw","l","182","182","153","238","231","205","trueblood","null","null","null","null","null","null","null","null","null","null","null","","180","200","260","200","36000","52000","[2,3]","470.09186492990506","426.71696066451136","454.21368615056207"
"","canvas-keyboard-response","151","118419","0.0-6.0-5.20","519","","","","","make choice","296","3","","","catch","sh","sw","l","182","182","153","238","231","205","trueblood","null","null","null","null","null","null","null","null","null","null","null","","180","200","260","200","36000","52000","[2,3]","","",""
"","canvas-keyboard-response","152","118435","0.0-6.0-6.20","519","","","","","clear_screen","null","null","","","catch","sh","sw","l","182","182","153","238","231","205","trueblood","null","null","null","null","null","null","null","null","null","null","null","","180","200","260","200","36000","52000","[2,3]","","",""
"","canvas-keyboard-response","153","118638","0.0-6.0-0.21","519","","","","","pre trial waiting period","null","null","","","catch","sh","l","sw","220","158","230","271","144","192","spektor","null","null","null","null","null","null","null","null","null","null","null","","180","200","260","200","36000","52000","[2,3]","500.6750719575893","89.43082228536589","485.5506665386575"
"","canvas-keyboard-response","154","118659","0.0-6.0-1.21","519","","","","","clear_screen","null","null","","","catch","sh","l","sw","220","158","230","271","144","192","spektor","null","null","null","null","null","null","null","null","null","null","null","","180","200","260","200","36000","52000","[2,3]","500.6750719575893","89.43082228536589","485.5506665386575"
"","canvas-keyboard-response","155","119164","0.0-6.0-2.21","519","","","","","rectangles no change","null","null","","","catch","sh","l","sw","220","158","230","271","144","192","spektor","null","null","null","null","null","null","null","null","null","null","null","","180","200","260","200","36000","52000","[2,3]","500.6750719575893","89.43082228536589","485.5506665386575"
"","canvas-keyboard-response","156","120499","0.0-6.0-3.21","519","","","","","rectangles with change","null","null","","","catch","sh","l","sw","220","158","230","271","144","192","spektor","null","null","null","null","null","null","null","null","null","null","null","","180","200","260","200","36000","52000","[2,3]","500.6750719575893","89.43082228536589","485.5506665386575"
"","canvas-keyboard-response","157","120521","0.0-6.0-4.21","519","","","","","clear_screen","null","null","","","catch","sh","l","sw","220","158","230","271","144","192","spektor","null","null","null","null","null","null","null","null","null","null","null","","180","200","260","200","36000","52000","[2,3]","500.6750719575893","89.43082228536589","485.5506665386575"
"","canvas-keyboard-response","158","120821","0.0-6.0-5.21","519","","","","","make choice","295","2","","","catch","sh","l","sw","220","158","230","271","144","192","spektor","null","null","null","null","null","null","null","null","null","null","null","","180","200","260","200","36000","52000","[2,3]","","",""
"","canvas-keyboard-response","159","120838","0.0-6.0-6.21","519","","","","","clear_screen","null","null","","","catch","sh","l","sw","220","158","230","271","144","192","spektor","null","null","null","null","null","null","null","null","null","null","null","","180","200","260","200","36000","52000","[2,3]","","",""
"","canvas-keyboard-response","160","121040","0.0-6.0-0.22","519","","","","","pre trial waiting period","null","null","","","critical","d","t","c","232.8713","160.6713","240","164","164","240","spektor","0.05","w","240","164","164","240","232.8713","160.6713","39360","39360","37415.7294","td","null","null","null","null","null","null","[2,1]","514.4728757040266","191.7973728395302","481.6098954743118"
"","canvas-keyboard-response","161","121059","0.0-6.0-1.22","519","","","","","clear_screen","null","null","","","critical","d","t","c","232.8713","160.6713","240","164","164","240","spektor","0.05","w","240","164","164","240","232.8713","160.6713","39360","39360","37415.7294","td","null","null","null","null","null","null","[2,1]","514.4728757040266","191.7973728395302","481.6098954743118"
"","canvas-keyboard-response","162","121565","0.0-6.0-2.22","519","","","","","rectangles no change","null","null","","","critical","d","t","c","232.8713","160.6713","240","164","164","240","spektor","0.05","w","240","164","164","240","232.8713","160.6713","39360","39360","37415.7294","td","null","null","null","null","null","null","[2,1]","514.4728757040266","191.7973728395302","481.6098954743118"
"","canvas-keyboard-response","163","122895","0.0-6.0-3.22","519","","","","","rectangles with change","null","null","","","critical","d","t","c","232.8713","160.6713","240","164","164","240","spektor","0.05","w","240","164","164","240","232.8713","160.6713","39360","39360","37415.7294","td","null","null","null","null","null","null","[2,1]","514.4728757040266","191.7973728395302","481.6098954743118"
"","canvas-keyboard-response","164","122914","0.0-6.0-4.22","519","","","","","clear_screen","null","null","","","critical","d","t","c","232.8713","160.6713","240","164","164","240","spektor","0.05","w","240","164","164","240","232.8713","160.6713","39360","39360","37415.7294","td","null","null","null","null","null","null","[2,1]","514.4728757040266","191.7973728395302","481.6098954743118"
"","canvas-keyboard-response","165","123157","0.0-6.0-5.22","519","","","","","make choice","233","1","","","critical","d","t","c","232.8713","160.6713","240","164","164","240","spektor","0.05","w","240","164","164","240","232.8713","160.6713","39360","39360","37415.7294","td","null","null","null","null","null","null","[2,1]","","",""
"","canvas-keyboard-response","166","123176","0.0-6.0-6.22","519","","","","","clear_screen","null","null","","","critical","d","t","c","232.8713","160.6713","240","164","164","240","spektor","0.05","w","240","164","164","240","232.8713","160.6713","39360","39360","37415.7294","td","null","null","null","null","null","null","[2,1]","","",""
"","canvas-keyboard-response","167","123377","0.0-6.0-0.23","519","","","","","pre trial waiting period","null","null","","","critical","t","d","c","240","164","227.1683","158.0083","164","240","trueblood","0.09","w","240","164","164","240","227.1683","158.0083","39360","39360","35894.4834","tc","null","null","null","null","null","null","[1,3]","504.1724796834094","519.8695440459842","443.68581885237455"
"","canvas-keyboard-response","168","123400","0.0-6.0-1.23","519","","","","","clear_screen","null","null","","","critical","t","d","c","240","164","227.1683","158.0083","164","240","trueblood","0.09","w","240","164","164","240","227.1683","158.0083","39360","39360","35894.4834","tc","null","null","null","null","null","null","[1,3]","504.1724796834094","519.8695440459842","443.68581885237455"
"","canvas-keyboard-response","169","123906","0.0-6.0-2.23","519","","","","","rectangles no change","null","null","","","critical","t","d","c","240","164","227.1683","158.0083","164","240","trueblood","0.09","w","240","164","164","240","227.1683","158.0083","39360","39360","35894.4834","tc","null","null","null","null","null","null","[1,3]","504.1724796834094","519.8695440459842","443.68581885237455"
"","canvas-keyboard-response","170","125242","0.0-6.0-3.23","519","","","","","rectangles with change","null","null","","","critical","t","d","c","240","164","227.1683","158.0083","164","240","trueblood","0.09","w","240","164","164","240","227.1683","158.0083","39360","39360","35894.4834","tc","null","null","null","null","null","null","[1,3]","504.1724796834094","519.8695440459842","443.68581885237455"
"","canvas-keyboard-response","171","125261","0.0-6.0-4.23","519","","","","","clear_screen","null","null","","","critical","t","d","c","240","164","227.1683","158.0083","164","240","trueblood","0.09","w","240","164","164","240","227.1683","158.0083","39360","39360","35894.4834","tc","null","null","null","null","null","null","[1,3]","504.1724796834094","519.8695440459842","443.68581885237455"
"","canvas-keyboard-response","172","127060","0.0-6.0-5.23","519","","","","","make choice","1794","3","","","critical","t","d","c","240","164","227.1683","158.0083","164","240","trueblood","0.09","w","240","164","164","240","227.1683","158.0083","39360","39360","35894.4834","tc","null","null","null","null","null","null","[1,3]","","",""
"","canvas-keyboard-response","173","127081","0.0-6.0-6.23","519","","","","","clear_screen","null","null","","","critical","t","d","c","240","164","227.1683","158.0083","164","240","trueblood","0.09","w","240","164","164","240","227.1683","158.0083","39360","39360","35894.4834","tc","null","null","null","null","null","null","[1,3]","","",""
"","canvas-keyboard-response","174","127282","0.0-6.0-0.24","519","","","","","pre trial waiting period","null","null","","","critical","c","d","t","240","164","162.6685","237.1485","164","240","spektor","0.02","h","164","240","240","164","162.6685","237.1485","39360","39360","38576.5967","td","null","null","null","null","null","null","[3,2]","529.7542476701195","111.44295545473015","486.0256635655771"
"","canvas-keyboard-response","175","127301","0.0-6.0-1.24","519","","","","","clear_screen","null","null","","","critical","c","d","t","240","164","162.6685","237.1485","164","240","spektor","0.02","h","164","240","240","164","162.6685","237.1485","39360","39360","38576.5967","td","null","null","null","null","null","null","[3,2]","529.7542476701195","111.44295545473015","486.0256635655771"
"","canvas-keyboard-response","176","127809","0.0-6.0-2.24","519","","","","","rectangles no change","null","null","","","critical","c","d","t","240","164","162.6685","237.1485","164","240","spektor","0.02","h","164","240","240","164","162.6685","237.1485","39360","39360","38576.5967","td","null","null","null","null","null","null","[3,2]","529.7542476701195","111.44295545473015","486.0256635655771"
"","canvas-keyboard-response","177","129145","0.0-6.0-3.24","519","","","","","rectangles with change","null","null","","","critical","c","d","t","240","164","162.6685","237.1485","164","240","spektor","0.02","h","164","240","240","164","162.6685","237.1485","39360","39360","38576.5967","td","null","null","null","null","null","null","[3,2]","529.7542476701195","111.44295545473015","486.0256635655771"
"","canvas-keyboard-response","178","129164","0.0-6.0-4.24","519","","","","","clear_screen","null","null","","","critical","c","d","t","240","164","162.6685","237.1485","164","240","spektor","0.02","h","164","240","240","164","162.6685","237.1485","39360","39360","38576.5967","td","null","null","null","null","null","null","[3,2]","529.7542476701195","111.44295545473015","486.0256635655771"
"","canvas-keyboard-response","179","129533","0.0-6.0-5.24","519","","","","","make choice","364","3","","","critical","c","d","t","240","164","162.6685","237.1485","164","240","spektor","0.02","h","164","240","240","164","162.6685","237.1485","39360","39360","38576.5967","td","null","null","null","null","null","null","[3,2]","","",""
"","canvas-keyboard-response","180","129551","0.0-6.0-6.24","519","","","","","clear_screen","null","null","","","critical","c","d","t","240","164","162.6685","237.1485","164","240","spektor","0.02","h","164","240","240","164","162.6685","237.1485","39360","39360","38576.5967","td","null","null","null","null","null","null","[3,2]","","",""
"","canvas-keyboard-response","181","129752","0.0-6.0-0.25","519","","","","","pre trial waiting period","null","null","","","catch","sh","sw","l","234","160","159","210","211","272","trueblood","null","null","null","null","null","null","null","null","null","null","null","","180","200","260","200","36000","52000","[1,3]","515.2240126222445","445.08885609485606","443.1675426596798"
"","canvas-keyboard-response","182","129772","0.0-6.0-1.25","519","","","","","clear_screen","null","null","","","catch","sh","sw","l","234","160","159","210","211","272","trueblood","null","null","null","null","null","null","null","null","null","null","null","","180","200","260","200","36000","52000","[1,3]","515.2240126222445","445.08885609485606","443.1675426596798"
"","canvas-keyboard-response","183","130281","0.0-6.0-2.25","519","","","","","rectangles no change","null","null","","","catch","sh","sw","l","234","160","159","210","211","272","trueblood","null","null","null","null","null","null","null","null","null","null","null","","180","200","260","200","36000","52000","[1,3]","515.2240126222445","445.08885609485606","443.1675426596798"
"","canvas-keyboard-response","184","131615","0.0-6.0-3.25","519","","","","","rectangles with change","null","null","","","catch","sh","sw","l","234","160","159","210","211","272","trueblood","null","null","null","null","null","null","null","null","null","null","null","","180","200","260","200","36000","52000","[1,3]","515.2240126222445","445.08885609485606","443.1675426596798"
"","canvas-keyboard-response","185","131630","0.0-6.0-4.25","519","","","","","clear_screen","null","null","","","catch","sh","sw","l","234","160","159","210","211","272","trueblood","null","null","null","null","null","null","null","null","null","null","null","","180","200","260","200","36000","52000","[1,3]","515.2240126222445","445.08885609485606","443.1675426596798"
"","canvas-keyboard-response","186","131861","0.0-6.0-5.25","519","","","","","make choice","225","3","","","catch","sh","sw","l","234","160","159","210","211","272","trueblood","null","null","null","null","null","null","null","null","null","null","null","","180","200","260","200","36000","52000","[1,3]","","",""
"","canvas-keyboard-response","187","131879","0.0-6.0-6.25","519","","","","","clear_screen","null","null","","","catch","sh","sw","l","234","160","159","210","211","272","trueblood","null","null","null","null","null","null","null","null","null","null","null","","180","200","260","200","36000","52000","[1,3]","","",""
"","canvas-keyboard-response","188","132080","0.0-6.0-0.26","519","","","","","pre trial waiting period","null","null","","","critical","c","t","d","240","164","164","240","164","240","spektor","0","h","164","240","240","164","164","240","39360","39360","39360","dc","null","null","null","null","null","null","[3,1]","505.25931883536157","102.20738126146479","485.63569803586495"
"","canvas-keyboard-response","189","132102","0.0-6.0-1.26","519","","","","","clear_screen","null","null","","","critical","c","t","d","240","164","164","240","164","240","spektor","0","h","164","240","240","164","164","240","39360","39360","39360","dc","null","null","null","null","null","null","[3,1]","505.25931883536157","102.20738126146479","485.63569803586495"
"","canvas-keyboard-response","190","132613","0.0-6.0-2.26","519","","","","","rectangles no change","null","null","","","critical","c","t","d","240","164","164","240","164","240","spektor","0","h","164","240","240","164","164","240","39360","39360","39360","dc","null","null","null","null","null","null","[3,1]","505.25931883536157","102.20738126146479","485.63569803586495"
"","canvas-keyboard-response","191","133946","0.0-6.0-3.26","519","","","","","rectangles with change","null","null","","","critical","c","t","d","240","164","164","240","164","240","spektor","0","h","164","240","240","164","164","240","39360","39360","39360","dc","null","null","null","null","null","null","[3,1]","505.25931883536157","102.20738126146479","485.63569803586495"
"","canvas-keyboard-response","192","133967","0.0-6.0-4.26","519","","","","","clear_screen","null","null","","","critical","c","t","d","240","164","164","240","164","240","spektor","0","h","164","240","240","164","164","240","39360","39360","39360","dc","null","null","null","null","null","null","[3,1]","505.25931883536157","102.20738126146479","485.63569803586495"
"","canvas-keyboard-response","193","134212","0.0-6.0-5.26","519","","","","","make choice","241","1","","","critical","c","t","d","240","164","164","240","164","240","spektor","0","h","164","240","240","164","164","240","39360","39360","39360","dc","null","null","null","null","null","null","[3,1]","","",""
"","canvas-keyboard-response","194","134232","0.0-6.0-6.26","519","","","","","clear_screen","null","null","","","critical","c","t","d","240","164","164","240","164","240","spektor","0","h","164","240","240","164","164","240","39360","39360","39360","dc","null","null","null","null","null","null","[3,1]","","",""
"","canvas-keyboard-response","195","134434","0.0-6.0-0.27","519","","","","","pre trial waiting period","null","null","","","catch","l","sh","sw","239","202","186","172","210","208","trueblood","null","null","null","null","null","null","null","null","null","null","null","","180","200","260","200","36000","52000","[1,3]","452.0441750743203","463.90642627598896","448.6294188351689"
"","canvas-keyboard-response","196","134457","0.0-6.0-1.27","519","","","","","clear_screen","null","null","","","catch","l","sh","sw","239","202","186","172","210","208","trueblood","null","null","null","null","null","null","null","null","null","null","null","","180","200","260","200","36000","52000","[1,3]","452.0441750743203","463.90642627598896","448.6294188351689"
"","canvas-keyboard-response","197","134964","0.0-6.0-2.27","519","","","","","rectangles no change","null","null","","","catch","l","sh","sw","239","202","186","172","210","208","trueblood","null","null","null","null","null","null","null","null","null","null","null","","180","200","260","200","36000","52000","[1,3]","452.0441750743203","463.90642627598896","448.6294188351689"
"","canvas-keyboard-response","198","136300","0.0-6.0-3.27","519","","","","","rectangles with change","null","null","","","catch","l","sh","sw","239","202","186","172","210","208","trueblood","null","null","null","null","null","null","null","null","null","null","null","","180","200","260","200","36000","52000","[1,3]","452.0441750743203","463.90642627598896","448.6294188351689"
"","canvas-keyboard-response","199","136322","0.0-6.0-4.27","519","","","","","clear_screen","null","null","","","catch","l","sh","sw","239","202","186","172","210","208","trueblood","null","null","null","null","null","null","null","null","null","null","null","","180","200","260","200","36000","52000","[1,3]","452.0441750743203","463.90642627598896","448.6294188351689"
"","canvas-keyboard-response","200","136557","0.0-6.0-5.27","519","","","","","make choice","230","1","","","catch","l","sh","sw","239","202","186","172","210","208","trueblood","null","null","null","null","null","null","null","null","null","null","null","","180","200","260","200","36000","52000","[1,3]","","",""
"","canvas-keyboard-response","201","136578","0.0-6.0-6.27","519","","","","","clear_screen","null","null","","","catch","l","sh","sw","239","202","186","172","210","208","trueblood","null","null","null","null","null","null","null","null","null","null","null","","180","200","260","200","36000","52000","[1,3]","","",""
"","canvas-keyboard-response","202","136779","0.0-6.0-0.28","519","","","","","pre trial waiting period","null","null","","","critical","d","t","c","158.0083","227.1683","164","240","240","164","spektor","0.09","h","164","240","240","164","158.0083","227.1683","39360","39360","35894.4834","tc","null","null","null","null","null","null","[2,3]","481.41835905917367","124.93372910790734","534.5549966858604"
"","canvas-keyboard-response","203","136798","0.0-6.0-1.28","519","","","","","clear_screen","null","null","","","critical","d","t","c","158.0083","227.1683","164","240","240","164","spektor","0.09","h","164","240","240","164","158.0083","227.1683","39360","39360","35894.4834","tc","null","null","null","null","null","null","[2,3]","481.41835905917367","124.93372910790734","534.5549966858604"
"","canvas-keyboard-response","204","137303","0.0-6.0-2.28","519","","","","","rectangles no change","null","null","","","critical","d","t","c","158.0083","227.1683","164","240","240","164","spektor","0.09","h","164","240","240","164","158.0083","227.1683","39360","39360","35894.4834","tc","null","null","null","null","null","null","[2,3]","481.41835905917367","124.93372910790734","534.5549966858604"
"","canvas-keyboard-response","205","138644","0.0-6.0-3.28","519","","","","","rectangles with change","null","null","","","critical","d","t","c","158.0083","227.1683","164","240","240","164","spektor","0.09","h","164","240","240","164","158.0083","227.1683","39360","39360","35894.4834","tc","null","null","null","null","null","null","[2,3]","481.41835905917367","124.93372910790734","534.5549966858604"
"","canvas-keyboard-response","206","138659","0.0-6.0-4.28","519","","","","","clear_screen","null","null","","","critical","d","t","c","158.0083","227.1683","164","240","240","164","spektor","0.09","h","164","240","240","164","158.0083","227.1683","39360","39360","35894.4834","tc","null","null","null","null","null","null","[2,3]","481.41835905917367","124.93372910790734","534.5549966858604"
"","canvas-keyboard-response","207","138965","0.0-6.0-5.28","519","","","","","make choice","298","3","","","critical","d","t","c","158.0083","227.1683","164","240","240","164","spektor","0.09","h","164","240","240","164","158.0083","227.1683","39360","39360","35894.4834","tc","null","null","null","null","null","null","[2,3]","","",""
"","canvas-keyboard-response","208","138984","0.0-6.0-6.28","519","","","","","clear_screen","null","null","","","critical","d","t","c","158.0083","227.1683","164","240","240","164","spektor","0.09","h","164","240","240","164","158.0083","227.1683","39360","39360","35894.4834","tc","null","null","null","null","null","null","[2,3]","","",""
"","canvas-keyboard-response","209","139186","0.0-6.0-0.29","519","","","","","pre trial waiting period","null","null","","","critical","t","c","d","240","164","164","240","220.0396","154.6796","spektor","0.14","w","240","164","164","240","220.0396","154.6796","39360","39360","34035.6388","dc","null","null","null","null","null","null","[3,2]","494.26942887637506","115.04772843524509","540.2342692513593"
"","canvas-keyboard-response","210","139210","0.0-6.0-1.29","519","","","","","clear_screen","null","null","","","critical","t","c","d","240","164","164","240","220.0396","154.6796","spektor","0.14","w","240","164","164","240","220.0396","154.6796","39360","39360","34035.6388","dc","null","null","null","null","null","null","[3,2]","494.26942887637506","115.04772843524509","540.2342692513593"
"","canvas-keyboard-response","211","139718","0.0-6.0-2.29","519","","","","","rectangles no change","null","null","","","critical","t","c","d","240","164","164","240","220.0396","154.6796","spektor","0.14","w","240","164","164","240","220.0396","154.6796","39360","39360","34035.6388","dc","null","null","null","null","null","null","[3,2]","494.26942887637506","115.04772843524509","540.2342692513593"
"","canvas-keyboard-response","212","141057","0.0-6.0-3.29","519","","","","","rectangles with change","null","null","","","critical","t","c","d","240","164","164","240","220.0396","154.6796","spektor","0.14","w","240","164","164","240","220.0396","154.6796","39360","39360","34035.6388","dc","null","null","null","null","null","null","[3,2]","494.26942887637506","115.04772843524509","540.2342692513593"
"","canvas-keyboard-response","213","141076","0.0-6.0-4.29","519","","","","","clear_screen","null","null","","","critical","t","c","d","240","164","164","240","220.0396","154.6796","spektor","0.14","w","240","164","164","240","220.0396","154.6796","39360","39360","34035.6388","dc","null","null","null","null","null","null","[3,2]","494.26942887637506","115.04772843524509","540.2342692513593"
"","canvas-keyboard-response","214","141366","0.0-6.0-5.29","519","","","","","make choice","284","3","","","critical","t","c","d","240","164","164","240","220.0396","154.6796","spektor","0.14","w","240","164","164","240","220.0396","154.6796","39360","39360","34035.6388","dc","null","null","null","null","null","null","[3,2]","","",""
"","canvas-keyboard-response","215","141382","0.0-6.0-6.29","519","","","","","clear_screen","null","null","","","critical","t","c","d","240","164","164","240","220.0396","154.6796","spektor","0.14","w","240","164","164","240","220.0396","154.6796","39360","39360","34035.6388","dc","null","null","null","null","null","null","[3,2]","","",""
"","canvas-keyboard-response","216","141584","0.0-6.0-0.30","519","","","","","pre trial waiting period","null","null","","","critical","c","t","d","164","240","240","164","227.1683","158.0083","spektor","0.09","w","240","164","164","240","227.1683","158.0083","39360","39360","35894.4834","dc","null","null","null","null","null","null","[3,1]","489.5270375688277","170.58209793192714","533.9324981634851"
"","canvas-keyboard-response","217","141606","0.0-6.0-1.30","519","","","","","clear_screen","null","null","","","critical","c","t","d","164","240","240","164","227.1683","158.0083","spektor","0.09","w","240","164","164","240","227.1683","158.0083","39360","39360","35894.4834","dc","null","null","null","null","null","null","[3,1]","489.5270375688277","170.58209793192714","533.9324981634851"
"","canvas-keyboard-response","218","142115","0.0-6.0-2.30","519","","","","","rectangles no change","null","null","","","critical","c","t","d","164","240","240","164","227.1683","158.0083","spektor","0.09","w","240","164","164","240","227.1683","158.0083","39360","39360","35894.4834","dc","null","null","null","null","null","null","[3,1]","489.5270375688277","170.58209793192714","533.9324981634851"
"","canvas-keyboard-response","219","143450","0.0-6.0-3.30","519","","","","","rectangles with change","null","null","","","critical","c","t","d","164","240","240","164","227.1683","158.0083","spektor","0.09","w","240","164","164","240","227.1683","158.0083","39360","39360","35894.4834","dc","null","null","null","null","null","null","[3,1]","489.5270375688277","170.58209793192714","533.9324981634851"
"","canvas-keyboard-response","220","143472","0.0-6.0-4.30","519","","","","","clear_screen","null","null","","","critical","c","t","d","164","240","240","164","227.1683","158.0083","spektor","0.09","w","240","164","164","240","227.1683","158.0083","39360","39360","35894.4834","dc","null","null","null","null","null","null","[3,1]","489.5270375688277","170.58209793192714","533.9324981634851"
"","canvas-keyboard-response","221","143692","0.0-6.0-5.30","519","","","","","make choice","211","1","","","critical","c","t","d","164","240","240","164","227.1683","158.0083","spektor","0.09","w","240","164","164","240","227.1683","158.0083","39360","39360","35894.4834","dc","null","null","null","null","null","null","[3,1]","","",""
"","canvas-keyboard-response","222","143709","0.0-6.0-6.30","519","","","","","clear_screen","null","null","","","critical","c","t","d","164","240","240","164","227.1683","158.0083","spektor","0.09","w","240","164","164","240","227.1683","158.0083","39360","39360","35894.4834","dc","null","null","null","null","null","null","[3,1]","","",""
"","canvas-keyboard-response","223","143912","0.0-6.0-0.31","519","","","","","pre trial waiting period","null","null","","","catch","l","sh","sw","219","298","201","181","172","184","spektor","null","null","null","null","null","null","null","null","null","null","null","","180","200","260","200","36000","52000","[1,3]","451.1684717461855","173.63779372045207","524.2084272057049"
"","canvas-keyboard-response","224","143929","0.0-6.0-1.31","519","","","","","clear_screen","null","null","","","catch","l","sh","sw","219","298","201","181","172","184","spektor","null","null","null","null","null","null","null","null","null","null","null","","180","200","260","200","36000","52000","[1,3]","451.1684717461855","173.63779372045207","524.2084272057049"
"","canvas-keyboard-response","225","144438","0.0-6.0-2.31","519","","","","","rectangles no change","null","null","","","catch","l","sh","sw","219","298","201","181","172","184","spektor","null","null","null","null","null","null","null","null","null","null","null","","180","200","260","200","36000","52000","[1,3]","451.1684717461855","173.63779372045207","524.2084272057049"
"","canvas-keyboard-response","226","145775","0.0-6.0-3.31","519","","","","","rectangles with change","null","null","","","catch","l","sh","sw","219","298","201","181","172","184","spektor","null","null","null","null","null","null","null","null","null","null","null","","180","200","260","200","36000","52000","[1,3]","451.1684717461855","173.63779372045207","524.2084272057049"
"","canvas-keyboard-response","227","145794","0.0-6.0-4.31","519","","","","","clear_screen","null","null","","","catch","l","sh","sw","219","298","201","181","172","184","spektor","null","null","null","null","null","null","null","null","null","null","null","","180","200","260","200","36000","52000","[1,3]","451.1684717461855","173.63779372045207","524.2084272057049"
"","canvas-keyboard-response","228","146045","0.0-6.0-5.31","519","","","","","make choice","244","1","","","catch","l","sh","sw","219","298","201","181","172","184","spektor","null","null","null","null","null","null","null","null","null","null","null","","180","200","260","200","36000","52000","[1,3]","","",""
"","canvas-keyboard-response","229","146064","0.0-6.0-6.31","519","","","","","clear_screen","null","null","","","catch","l","sh","sw","219","298","201","181","172","184","spektor","null","null","null","null","null","null","null","null","null","null","null","","180","200","260","200","36000","52000","[1,3]","","",""
"","canvas-keyboard-response","230","146267","0.0-6.0-0.32","519","","","","","pre trial waiting period","null","null","","","catch","l","sh","sw","256","228","186","206","190","178","spektor","null","null","null","null","null","null","null","null","null","null","null","","180","200","260","200","36000","52000","[1,2]","487.5375701720796","168.56260803596223","494.54940721895207"
"","canvas-keyboard-response","231","146290","0.0-6.0-1.32","519","","","","","clear_screen","null","null","","","catch","l","sh","sw","256","228","186","206","190","178","spektor","null","null","null","null","null","null","null","null","null","null","null","","180","200","260","200","36000","52000","[1,2]","487.5375701720796","168.56260803596223","494.54940721895207"
"","canvas-keyboard-response","232","146799","0.0-6.0-2.32","519","","","","","rectangles no change","null","null","","","catch","l","sh","sw","256","228","186","206","190","178","spektor","null","null","null","null","null","null","null","null","null","null","null","","180","200","260","200","36000","52000","[1,2]","487.5375701720796","168.56260803596223","494.54940721895207"
"","canvas-keyboard-response","233","148135","0.0-6.0-3.32","519","","","","","rectangles with change","null","null","","","catch","l","sh","sw","256","228","186","206","190","178","spektor","null","null","null","null","null","null","null","null","null","null","null","","180","200","260","200","36000","52000","[1,2]","487.5375701720796","168.56260803596223","494.54940721895207"
"","canvas-keyboard-response","234","148158","0.0-6.0-4.32","519","","","","","clear_screen","null","null","","","catch","l","sh","sw","256","228","186","206","190","178","spektor","null","null","null","null","null","null","null","null","null","null","null","","180","200","260","200","36000","52000","[1,2]","487.5375701720796","168.56260803596223","494.54940721895207"
"","canvas-keyboard-response","235","148455","0.0-6.0-5.32","519","","","","","make choice","290","1","","","catch","l","sh","sw","256","228","186","206","190","178","spektor","null","null","null","null","null","null","null","null","null","null","null","","180","200","260","200","36000","52000","[1,2]","","",""
"","canvas-keyboard-response","236","148472","0.0-6.0-6.32","519","","","","","clear_screen","null","null","","","catch","l","sh","sw","256","228","186","206","190","178","spektor","null","null","null","null","null","null","null","null","null","null","null","","180","200","260","200","36000","52000","[1,2]","","",""
"","canvas-keyboard-response","237","148674","0.0-6.0-0.33","519","","","","","pre trial waiting period","null","null","","","critical","c","d","t","164","240","220.0396","154.6796","240","164","trueblood","0.14","w","240","164","164","240","220.0396","154.6796","39360","39360","34035.6388","td","null","null","null","null","null","null","[3,2]","424.76586576949194","475.5662819186774","504.6355362260006"
"","canvas-keyboard-response","238","148695","0.0-6.0-1.33","519","","","","","clear_screen","null","null","","","critical","c","d","t","164","240","220.0396","154.6796","240","164","trueblood","0.14","w","240","164","164","240","220.0396","154.6796","39360","39360","34035.6388","td","null","null","null","null","null","null","[3,2]","424.76586576949194","475.5662819186774","504.6355362260006"
"","canvas-keyboard-response","239","149203","0.0-6.0-2.33","519","","","","","rectangles no change","null","null","","","critical","c","d","t","164","240","220.0396","154.6796","240","164","trueblood","0.14","w","240","164","164","240","220.0396","154.6796","39360","39360","34035.6388","td","null","null","null","null","null","null","[3,2]","424.76586576949194","475.5662819186774","504.6355362260006"
"","canvas-keyboard-response","240","150539","0.0-6.0-3.33","519","","","","","rectangles with change","null","null","","","critical","c","d","t","164","240","220.0396","154.6796","240","164","trueblood","0.14","w","240","164","164","240","220.0396","154.6796","39360","39360","34035.6388","td","null","null","null","null","null","null","[3,2]","424.76586576949194","475.5662819186774","504.6355362260006"
"","canvas-keyboard-response","241","150559","0.0-6.0-4.33","519","","","","","clear_screen","null","null","","","critical","c","d","t","164","240","220.0396","154.6796","240","164","trueblood","0.14","w","240","164","164","240","220.0396","154.6796","39360","39360","34035.6388","td","null","null","null","null","null","null","[3,2]","424.76586576949194","475.5662819186774","504.6355362260006"
"","canvas-keyboard-response","242","150964","0.0-6.0-5.33","519","","","","","make choice","400","3","","","critical","c","d","t","164","240","220.0396","154.6796","240","164","trueblood","0.14","w","240","164","164","240","220.0396","154.6796","39360","39360","34035.6388","td","null","null","null","null","null","null","[3,2]","","",""
"","canvas-keyboard-response","243","150983","0.0-6.0-6.33","519","","","","","clear_screen","null","null","","","critical","c","d","t","164","240","220.0396","154.6796","240","164","trueblood","0.14","w","240","164","164","240","220.0396","154.6796","39360","39360","34035.6388","td","null","null","null","null","null","null","[3,2]","","",""
"","canvas-keyboard-response","244","151184","0.0-6.0-0.34","519","","","","","pre trial waiting period","null","null","","","critical","c","t","d","164","240","240","164","240","164","spektor","0","w","240","164","164","240","240","164","39360","39360","39360","dc","null","null","null","null","null","null","[3,1]","466.59694196845123","174.8862502759607","541.1516385956496"
"","canvas-keyboard-response","245","151203","0.0-6.0-1.34","519","","","","","clear_screen","null","null","","","critical","c","t","d","164","240","240","164","240","164","spektor","0","w","240","164","164","240","240","164","39360","39360","39360","dc","null","null","null","null","null","null","[3,1]","466.59694196845123","174.8862502759607","541.1516385956496"
"","canvas-keyboard-response","246","151712","0.0-6.0-2.34","519","","","","","rectangles no change","null","null","","","critical","c","t","d","164","240","240","164","240","164","spektor","0","w","240","164","164","240","240","164","39360","39360","39360","dc","null","null","null","null","null","null","[3,1]","466.59694196845123","174.8862502759607","541.1516385956496"
"","canvas-keyboard-response","247","153050","0.0-6.0-3.34","519","","","","","rectangles with change","null","null","","","critical","c","t","d","164","240","240","164","240","164","spektor","0","w","240","164","164","240","240","164","39360","39360","39360","dc","null","null","null","null","null","null","[3,1]","466.59694196845123","174.8862502759607","541.1516385956496"
"","canvas-keyboard-response","248","153069","0.0-6.0-4.34","519","","","","","clear_screen","null","null","","","critical","c","t","d","164","240","240","164","240","164","spektor","0","w","240","164","164","240","240","164","39360","39360","39360","dc","null","null","null","null","null","null","[3,1]","466.59694196845123","174.8862502759607","541.1516385956496"
"","canvas-keyboard-response","249","153629","0.0-6.0-5.34","519","","","","","make choice","555","1","","","critical","c","t","d","164","240","240","164","240","164","spektor","0","w","240","164","164","240","240","164","39360","39360","39360","dc","null","null","null","null","null","null","[3,1]","","",""
"","canvas-keyboard-response","250","153647","0.0-6.0-6.34","519","","","","","clear_screen","null","null","","","critical","c","t","d","164","240","240","164","240","164","spektor","0","w","240","164","164","240","240","164","39360","39360","39360","dc","null","null","null","null","null","null","[3,1]","","",""
"","canvas-keyboard-response","251","153848","0.0-6.0-0.35","519","","","","","pre trial waiting period","null","null","","","critical","c","t","d","164","240","240","164","237.1485","162.6685","spektor","0.02","w","240","164","164","240","237.1485","162.6685","39360","39360","38576.5967","dc","null","null","null","null","null","null","[3,1]","458.95196613438526","202.85362678955053","506.2137867756118"
"","canvas-keyboard-response","252","153873","0.0-6.0-1.35","519","","","","","clear_screen","null","null","","","critical","c","t","d","164","240","240","164","237.1485","162.6685","spektor","0.02","w","240","164","164","240","237.1485","162.6685","39360","39360","38576.5967","dc","null","null","null","null","null","null","[3,1]","458.95196613438526","202.85362678955053","506.2137867756118"
"","canvas-keyboard-response","253","154389","0.0-6.0-2.35","519","","","","","rectangles no change","null","null","","","critical","c","t","d","164","240","240","164","237.1485","162.6685","spektor","0.02","w","240","164","164","240","237.1485","162.6685","39360","39360","38576.5967","dc","null","null","null","null","null","null","[3,1]","458.95196613438526","202.85362678955053","506.2137867756118"
"","canvas-keyboard-response","254","155726","0.0-6.0-3.35","519","","","","","rectangles with change","null","null","","","critical","c","t","d","164","240","240","164","237.1485","162.6685","spektor","0.02","w","240","164","164","240","237.1485","162.6685","39360","39360","38576.5967","dc","null","null","null","null","null","null","[3,1]","458.95196613438526","202.85362678955053","506.2137867756118"
"","canvas-keyboard-response","255","155744","0.0-6.0-4.35","519","","","","","clear_screen","null","null","","","critical","c","t","d","164","240","240","164","237.1485","162.6685","spektor","0.02","w","240","164","164","240","237.1485","162.6685","39360","39360","38576.5967","dc","null","null","null","null","null","null","[3,1]","458.95196613438526","202.85362678955053","506.2137867756118"
"","canvas-keyboard-response","256","156132","0.0-6.0-5.35","519","","","","","make choice","386","1","","","critical","c","t","d","164","240","240","164","237.1485","162.6685","spektor","0.02","w","240","164","164","240","237.1485","162.6685","39360","39360","38576.5967","dc","null","null","null","null","null","null","[3,1]","","",""
"","canvas-keyboard-response","257","156153","0.0-6.0-6.35","519","","","","","clear_screen","null","null","","","critical","c","t","d","164","240","240","164","237.1485","162.6685","spektor","0.02","w","240","164","164","240","237.1485","162.6685","39360","39360","38576.5967","dc","null","null","null","null","null","null","[3,1]","","",""
"","canvas-keyboard-response","258","156354","0.0-6.0-0.36","519","","","","","pre trial waiting period","null","null","","","catch","sh","sw","l","171","214","202","238","260","220","spektor","null","null","null","null","null","null","null","null","null","null","null","","180","200","260","200","36000","52000","[2,3]","483.031160772427","89.70713509098553","502.39997047787847"
"","canvas-keyboard-response","259","156377","0.0-6.0-1.36","519","","","","","clear_screen","null","null","","","catch","sh","sw","l","171","214","202","238","260","220","spektor","null","null","null","null","null","null","null","null","null","null","null","","180","200","260","200","36000","52000","[2,3]","483.031160772427","89.70713509098553","502.39997047787847"
"","canvas-keyboard-response","260","156886","0.0-6.0-2.36","519","","","","","rectangles no change","null","null","","","catch","sh","sw","l","171","214","202","238","260","220","spektor","null","null","null","null","null","null","null","null","null","null","null","","180","200","260","200","36000","52000","[2,3]","483.031160772427","89.70713509098553","502.39997047787847"
"","canvas-keyboard-response","261","158223","0.0-6.0-3.36","519","","","","","rectangles with change","null","null","","","catch","sh","sw","l","171","214","202","238","260","220","spektor","null","null","null","null","null","null","null","null","null","null","null","","180","200","260","200","36000","52000","[2,3]","483.031160772427","89.70713509098553","502.39997047787847"
"","canvas-keyboard-response","262","158245","0.0-6.0-4.36","519","","","","","clear_screen","null","null","","","catch","sh","sw","l","171","214","202","238","260","220","spektor","null","null","null","null","null","null","null","null","null","null","null","","180","200","260","200","36000","52000","[2,3]","483.031160772427","89.70713509098553","502.39997047787847"
"","canvas-keyboard-response","263","158565","0.0-6.0-5.36","519","","","","","make choice","313","3","","","catch","sh","sw","l","171","214","202","238","260","220","spektor","null","null","null","null","null","null","null","null","null","null","null","","180","200","260","200","36000","52000","[2,3]","","",""
"","canvas-keyboard-response","264","158583","0.0-6.0-6.36","519","","","","","clear_screen","null","null","","","catch","sh","sw","l","171","214","202","238","260","220","spektor","null","null","null","null","null","null","null","null","null","null","null","","180","200","260","200","36000","52000","[2,3]","","",""
"","canvas-keyboard-response","265","158784","0.0-6.0-0.37","519","","","","","pre trial waiting period","null","null","","","catch","sh","l","sw","171","205","299","168","166","203","trueblood","null","null","null","null","null","null","null","null","null","null","null","","180","200","260","200","36000","52000","[2,3]","462.85420006479075","471.22821641691553","481.8300160150976"
"","canvas-keyboard-response","266","158802","0.0-6.0-1.37","519","","","","","clear_screen","null","null","","","catch","sh","l","sw","171","205","299","168","166","203","trueblood","null","null","null","null","null","null","null","null","null","null","null","","180","200","260","200","36000","52000","[2,3]","462.85420006479075","471.22821641691553","481.8300160150976"
"","canvas-keyboard-response","267","159308","0.0-6.0-2.37","519","","","","","rectangles no change","null","null","","","catch","sh","l","sw","171","205","299","168","166","203","trueblood","null","null","null","null","null","null","null","null","null","null","null","","180","200","260","200","36000","52000","[2,3]","462.85420006479075","471.22821641691553","481.8300160150976"
"","canvas-keyboard-response","268","160646","0.0-6.0-3.37","519","","","","","rectangles with change","null","null","","","catch","sh","l","sw","171","205","299","168","166","203","trueblood","null","null","null","null","null","null","null","null","null","null","null","","180","200","260","200","36000","52000","[2,3]","462.85420006479075","471.22821641691553","481.8300160150976"
