"success","trial_type","trial_index","time_elapsed","internal_node_id","sub_n","timeout","failed_images","failed_audio","failed_video","screen_id","rt","response","stimulus","view_history","trial","r1","r2","r3","w1","h1","w2","h2","w3","h3","display","tdd","tdo","tw","th","cw","ch","dw","dh","ta","ca","da","probe","csls","csss","clls","clss","sa","la","probe_rects","r1yloc","r2yloc","r3yloc"
"true","fullscreen","0","1981","0.0-0.0","528","","","","","","","","","","","","","","","","","","","","","","","","","","","","","","","","","","","","","","","","","",""
"true","preload","1","2052","0.0-1.0","528","false","[]","[]","[]","img preload","","","","","","","","","","","","","","","","","","","","","","","","","","","","","","","","","","","","",""
"","survey-html-form","2","5402","0.0-2.0","528","","","","","enter-sub-number","3342","{""response"":""528""}","","","","","","","","","","","","","","","","","","","","","","","","","","","","","","","","","","",""
"","image-button-response","3","21607","0.0-3.0","528","","","","","","16139","0","consent.png","","","","","","","","","","","","","","","","","","","","","","","","","","","","","","","","","",""
"","html-button-response","4","29886","0.0-4.0","528","","","","","intro mssg","8274","0","<div style= ""font-size:25px;"" <p> <strong> Welcome! </strong><br> <p style=""color:#8B0000; font-size:25px;""><strong> Please do NOT exit full screen until you are done with the experiment. </strong> </p><p style=""font-size:25px;color:#8B0000;""> <strong> Your data will be lost <br> if you try to go back or refresh the page after the experiment starts. Feel free to click ""previous"" during the instructions, however.</strong> </p><br><p> <strong> Thanks in advance for your contribution to our research! </strong></p>","","","","","","","","","","","","","","","","","","","","","","","","","","","","","","","","","",""
"","instructions","5","73759","0.0-5.0","528","","","","","instructions","43865","","","[{""page_index"":0,""viewing_time"":5791},{""page_index"":1,""viewing_time"":7818},{""page_index"":2,""viewing_time"":2520},{""page_index"":3,""viewing_time"":15519},{""page_index"":4,""viewing_time"":5745},{""page_index"":5,""viewing_time"":2319},{""page_index"":6,""viewing_time"":2280},{""page_index"":7,""viewing_time"":1873}]","","","","","","","","","","","","","","","","","","","","","","","","","","","","","","","","",""
"","canvas-keyboard-response","6","73964","0.0-6.0-0.0","528","","","","","pre trial waiting period","null","null","","","critical","d","c","t","237.1485","162.6685","164","240","240","164","trueblood","0.02","w","240","164","164","240","237.1485","162.6685","39360","39360","38576.5967","td","null","null","null","null","null","null","[3,1]","487.822063294325","446.13253338081284","494.0676567431503"
"","canvas-keyboard-response","7","73984","0.0-6.0-1.0","528","","","","","clear_screen","null","null","","","critical","d","c","t","237.1485","162.6685","164","240","240","164","trueblood","0.02","w","240","164","164","240","237.1485","162.6685","39360","39360","38576.5967","td","null","null","null","null","null","null","[3,1]","487.822063294325","446.13253338081284","494.0676567431503"
"","canvas-keyboard-response","8","74496","0.0-6.0-2.0","528","","","","","rectangles no change","null","null","","","critical","d","c","t","237.1485","162.6685","164","240","240","164","trueblood","0.02","w","240","164","164","240","237.1485","162.6685","39360","39360","38576.5967","td","null","null","null","null","null","null","[3,1]","487.822063294325","446.13253338081284","494.0676567431503"
"","canvas-keyboard-response","9","75833","0.0-6.0-3.0","528","","","","","rectangles with change","null","null","","","critical","d","c","t","237.1485","162.6685","164","240","240","164","trueblood","0.02","w","240","164","164","240","237.1485","162.6685","39360","39360","38576.5967","td","null","null","null","null","null","null","[3,1]","487.822063294325","446.13253338081284","494.0676567431503"
"","canvas-keyboard-response","10","75854","0.0-6.0-4.0","528","","","","","clear_screen","null","null","","","critical","d","c","t","237.1485","162.6685","164","240","240","164","trueblood","0.02","w","240","164","164","240","237.1485","162.6685","39360","39360","38576.5967","td","null","null","null","null","null","null","[3,1]","487.822063294325","446.13253338081284","494.0676567431503"
"","canvas-keyboard-response","11","78733","0.0-6.0-5.0","528","","","","","make choice","2872","3","","","critical","d","c","t","237.1485","162.6685","164","240","240","164","trueblood","0.02","w","240","164","164","240","237.1485","162.6685","39360","39360","38576.5967","td","null","null","null","null","null","null","[3,1]","","",""
"","canvas-keyboard-response","12","78754","0.0-6.0-6.0","528","","","","","clear_screen","null","null","","","critical","d","c","t","237.1485","162.6685","164","240","240","164","trueblood","0.02","w","240","164","164","240","237.1485","162.6685","39360","39360","38576.5967","td","null","null","null","null","null","null","[3,1]","","",""
"","canvas-keyboard-response","13","78957","0.0-6.0-0.1","528","","","","","pre trial waiting period","null","null","","","critical","d","t","c","240","164","240","164","164","240","trueblood","0","w","240","164","164","240","240","164","39360","39360","39360","td","null","null","null","null","null","null","[2,1]","487.96542883390896","472.69063999074604","423.0381058608204"
"","canvas-keyboard-response","14","78980","0.0-6.0-1.1","528","","","","","clear_screen","null","null","","","critical","d","t","c","240","164","240","164","164","240","trueblood","0","w","240","164","164","240","240","164","39360","39360","39360","td","null","null","null","null","null","null","[2,1]","487.96542883390896","472.69063999074604","423.0381058608204"
"","canvas-keyboard-response","15","79486","0.0-6.0-2.1","528","","","","","rectangles no change","null","null","","","critical","d","t","c","240","164","240","164","164","240","trueblood","0","w","240","164","164","240","240","164","39360","39360","39360","td","null","null","null","null","null","null","[2,1]","487.96542883390896","472.69063999074604","423.0381058608204"
"","canvas-keyboard-response","16","80816","0.0-6.0-3.1","528","","","","","rectangles with change","null","null","","","critical","d","t","c","240","164","240","164","164","240","trueblood","0","w","240","164","164","240","240","164","39360","39360","39360","td","null","null","null","null","null","null","[2,1]","487.96542883390896","472.69063999074604","423.0381058608204"
"","canvas-keyboard-response","17","80835","0.0-6.0-4.1","528","","","","","clear_screen","null","null","","","critical","d","t","c","240","164","240","164","164","240","trueblood","0","w","240","164","164","240","240","164","39360","39360","39360","td","null","null","null","null","null","null","[2,1]","487.96542883390896","472.69063999074604","423.0381058608204"
"","canvas-keyboard-response","18","82125","0.0-6.0-5.1","528","","","","","make choice","1279","2","","","critical","d","t","c","240","164","240","164","164","240","trueblood","0","w","240","164","164","240","240","164","39360","39360","39360","td","null","null","null","null","null","null","[2,1]","","",""
"","canvas-keyboard-response","19","82142","0.0-6.0-6.1","528","","","","","clear_screen","null","null","","","critical","d","t","c","240","164","240","164","164","240","trueblood","0","w","240","164","164","240","240","164","39360","39360","39360","td","null","null","null","null","null","null","[2,1]","","",""
"","canvas-keyboard-response","20","82343","0.0-6.0-0.2","528","","","","","pre trial waiting period","null","null","","","catch","sh","sw","l","186","168","170","234","267","174","trueblood","null","null","null","null","null","null","null","null","null","null","null","","180","200","260","200","36000","52000","[1,3]","482.58101893097097","471.4092227868541","467.23281701865756"
"","canvas-keyboard-response","21","82363","0.0-6.0-1.2","528","","","","","clear_screen","null","null","","","catch","sh","sw","l","186","168","170","234","267","174","trueblood","null","null","null","null","null","null","null","null","null","null","null","","180","200","260","200","36000","52000","[1,3]","482.58101893097097","471.4092227868541","467.23281701865756"
"","canvas-keyboard-response","22","82868","0.0-6.0-2.2","528","","","","","rectangles no change","null","null","","","catch","sh","sw","l","186","168","170","234","267","174","trueblood","null","null","null","null","null","null","null","null","null","null","null","","180","200","260","200","36000","52000","[1,3]","482.58101893097097","471.4092227868541","467.23281701865756"
"","canvas-keyboard-response","23","84203","0.0-6.0-3.2","528","","","","","rectangles with change","null","null","","","catch","sh","sw","l","186","168","170","234","267","174","trueblood","null","null","null","null","null","null","null","null","null","null","null","","180","200","260","200","36000","52000","[1,3]","482.58101893097097","471.4092227868541","467.23281701865756"
"","canvas-keyboard-response","24","84224","0.0-6.0-4.2","528","","","","","clear_screen","null","null","","","catch","sh","sw","l","186","168","170","234","267","174","trueblood","null","null","null","null","null","null","null","null","null","null","null","","180","200","260","200","36000","52000","[1,3]","482.58101893097097","471.4092227868541","467.23281701865756"
"","canvas-keyboard-response","25","85404","0.0-6.0-5.2","528","","","","","make choice","1174","3","","","catch","sh","sw","l","186","168","170","234","267","174","trueblood","null","null","null","null","null","null","null","null","null","null","null","","180","200","260","200","36000","52000","[1,3]","","",""
"","canvas-keyboard-response","26","85419","0.0-6.0-6.2","528","","","","","clear_screen","null","null","","","catch","sh","sw","l","186","168","170","234","267","174","trueblood","null","null","null","null","null","null","null","null","null","null","null","","180","200","260","200","36000","52000","[1,3]","","",""
"","canvas-keyboard-response","27","85620","0.0-6.0-0.3","528","","","","","pre trial waiting period","null","null","","","critical","c","t","d","164","240","240","164","227.1683","158.0083","trueblood","0.09","w","240","164","164","240","227.1683","158.0083","39360","39360","35894.4834","td","null","null","null","null","null","null","[2,3]","443.86696366663705","487.2730975390597","484.34519952955804"
"","canvas-keyboard-response","28","85644","0.0-6.0-1.3","528","","","","","clear_screen","null","null","","","critical","c","t","d","164","240","240","164","227.1683","158.0083","trueblood","0.09","w","240","164","164","240","227.1683","158.0083","39360","39360","35894.4834","td","null","null","null","null","null","null","[2,3]","443.86696366663705","487.2730975390597","484.34519952955804"
"","canvas-keyboard-response","29","86151","0.0-6.0-2.3","528","","","","","rectangles no change","null","null","","","critical","c","t","d","164","240","240","164","227.1683","158.0083","trueblood","0.09","w","240","164","164","240","227.1683","158.0083","39360","39360","35894.4834","td","null","null","null","null","null","null","[2,3]","443.86696366663705","487.2730975390597","484.34519952955804"
"","canvas-keyboard-response","30","87487","0.0-6.0-3.3","528","","","","","rectangles with change","null","null","","","critical","c","t","d","164","240","240","164","227.1683","158.0083","trueblood","0.09","w","240","164","164","240","227.1683","158.0083","39360","39360","35894.4834","td","null","null","null","null","null","null","[2,3]","443.86696366663705","487.2730975390597","484.34519952955804"
"","canvas-keyboard-response","31","87505","0.0-6.0-4.3","528","","","","","clear_screen","null","null","","","critical","c","t","d","164","240","240","164","227.1683","158.0083","trueblood","0.09","w","240","164","164","240","227.1683","158.0083","39360","39360","35894.4834","td","null","null","null","null","null","null","[2,3]","443.86696366663705","487.2730975390597","484.34519952955804"
"","canvas-keyboard-response","32","89277","0.0-6.0-5.3","528","","","","","make choice","1768","2","","","critical","c","t","d","164","240","240","164","227.1683","158.0083","trueblood","0.09","w","240","164","164","240","227.1683","158.0083","39360","39360","35894.4834","td","null","null","null","null","null","null","[2,3]","","",""
"","canvas-keyboard-response","33","89297","0.0-6.0-6.3","528","","","","","clear_screen","null","null","","","critical","c","t","d","164","240","240","164","227.1683","158.0083","trueblood","0.09","w","240","164","164","240","227.1683","158.0083","39360","39360","35894.4834","td","null","null","null","null","null","null","[2,3]","","",""
"","canvas-keyboard-response","34","89498","0.0-6.0-0.4","528","","","","","pre trial waiting period","null","null","","","critical","d","c","t","232.8713","160.6713","164","240","240","164","trueblood","0.05","w","240","164","164","240","232.8713","160.6713","39360","39360","37415.7294","tc","null","null","null","null","null","null","[3,2]","512.248742032387","434.91911370723886","514.9059247858825"
"","canvas-keyboard-response","35","89521","0.0-6.0-1.4","528","","","","","clear_screen","null","null","","","critical","d","c","t","232.8713","160.6713","164","240","240","164","trueblood","0.05","w","240","164","164","240","232.8713","160.6713","39360","39360","37415.7294","tc","null","null","null","null","null","null","[3,2]","512.248742032387","434.91911370723886","514.9059247858825"
"","canvas-keyboard-response","36","90027","0.0-6.0-2.4","528","","","","","rectangles no change","null","null","","","critical","d","c","t","232.8713","160.6713","164","240","240","164","trueblood","0.05","w","240","164","164","240","232.8713","160.6713","39360","39360","37415.7294","tc","null","null","null","null","null","null","[3,2]","512.248742032387","434.91911370723886","514.9059247858825"
"","canvas-keyboard-response","37","91364","0.0-6.0-3.4","528","","","","","rectangles with change","null","null","","","critical","d","c","t","232.8713","160.6713","164","240","240","164","trueblood","0.05","w","240","164","164","240","232.8713","160.6713","39360","39360","37415.7294","tc","null","null","null","null","null","null","[3,2]","512.248742032387","434.91911370723886","514.9059247858825"
"","canvas-keyboard-response","38","91380","0.0-6.0-4.4","528","","","","","clear_screen","null","null","","","critical","d","c","t","232.8713","160.6713","164","240","240","164","trueblood","0.05","w","240","164","164","240","232.8713","160.6713","39360","39360","37415.7294","tc","null","null","null","null","null","null","[3,2]","512.248742032387","434.91911370723886","514.9059247858825"
"","canvas-keyboard-response","39","92143","0.0-6.0-5.4","528","","","","","make choice","757","3","","","critical","d","c","t","232.8713","160.6713","164","240","240","164","trueblood","0.05","w","240","164","164","240","232.8713","160.6713","39360","39360","37415.7294","tc","null","null","null","null","null","null","[3,2]","","",""
"","canvas-keyboard-response","40","92161","0.0-6.0-6.4","528","","","","","clear_screen","null","null","","","critical","d","c","t","232.8713","160.6713","164","240","240","164","trueblood","0.05","w","240","164","164","240","232.8713","160.6713","39360","39360","37415.7294","tc","null","null","null","null","null","null","[3,2]","","",""
"","canvas-keyboard-response","41","92363","0.0-6.0-0.5","528","","","","","pre trial waiting period","null","null","","","catch","sh","l","sw","162","160","228","251","216","192","trueblood","null","null","null","null","null","null","null","null","null","null","null","","180","200","260","200","36000","52000","[2,3]","504.5855471707055","456.5749929504837","471.9078030868857"
"","canvas-keyboard-response","42","92384","0.0-6.0-1.5","528","","","","","clear_screen","null","null","","","catch","sh","l","sw","162","160","228","251","216","192","trueblood","null","null","null","null","null","null","null","null","null","null","null","","180","200","260","200","36000","52000","[2,3]","504.5855471707055","456.5749929504837","471.9078030868857"
"","canvas-keyboard-response","43","92892","0.0-6.0-2.5","528","","","","","rectangles no change","null","null","","","catch","sh","l","sw","162","160","228","251","216","192","trueblood","null","null","null","null","null","null","null","null","null","null","null","","180","200","260","200","36000","52000","[2,3]","504.5855471707055","456.5749929504837","471.9078030868857"
"","canvas-keyboard-response","44","94226","0.0-6.0-3.5","528","","","","","rectangles with change","null","null","","","catch","sh","l","sw","162","160","228","251","216","192","trueblood","null","null","null","null","null","null","null","null","null","null","null","","180","200","260","200","36000","52000","[2,3]","504.5855471707055","456.5749929504837","471.9078030868857"
"","canvas-keyboard-response","45","94242","0.0-6.0-4.5","528","","","","","clear_screen","null","null","","","catch","sh","l","sw","162","160","228","251","216","192","trueblood","null","null","null","null","null","null","null","null","null","null","null","","180","200","260","200","36000","52000","[2,3]","504.5855471707055","456.5749929504837","471.9078030868857"
"","canvas-keyboard-response","46","94805","0.0-6.0-5.5","528","","","","","make choice","557","2","","","catch","sh","l","sw","162","160","228","251","216","192","trueblood","null","null","null","null","null","null","null","null","null","null","null","","180","200","260","200","36000","52000","[2,3]","","",""
"","canvas-keyboard-response","47","94823","0.0-6.0-6.5","528","","","","","clear_screen","null","null","","","catch","sh","l","sw","162","160","228","251","216","192","trueblood","null","null","null","null","null","null","null","null","null","null","null","","180","200","260","200","36000","52000","[2,3]","","",""
"","canvas-keyboard-response","48","95024","0.0-6.0-0.6","528","","","","","pre trial waiting period","null","null","","","critical","d","c","t","160.6713","232.8713","240","164","164","240","spektor","0.05","h","164","240","240","164","160.6713","232.8713","39360","39360","37415.7294","td","null","null","null","null","null","null","[3,1]","466.1566578109696","182.36629675619895","467.10351291946927"
"","canvas-keyboard-response","49","95047","0.0-6.0-1.6","528","","","","","clear_screen","null","null","","","critical","d","c","t","160.6713","232.8713","240","164","164","240","spektor","0.05","h","164","240","240","164","160.6713","232.8713","39360","39360","37415.7294","td","null","null","null","null","null","null","[3,1]","466.1566578109696","182.36629675619895","467.10351291946927"
"","canvas-keyboard-response","50","95553","0.0-6.0-2.6","528","","","","","rectangles no change","null","null","","","critical","d","c","t","160.6713","232.8713","240","164","164","240","spektor","0.05","h","164","240","240","164","160.6713","232.8713","39360","39360","37415.7294","td","null","null","null","null","null","null","[3,1]","466.1566578109696","182.36629675619895","467.10351291946927"
"","canvas-keyboard-response","51","96890","0.0-6.0-3.6","528","","","","","rectangles with change","null","null","","","critical","d","c","t","160.6713","232.8713","240","164","164","240","spektor","0.05","h","164","240","240","164","160.6713","232.8713","39360","39360","37415.7294","td","null","null","null","null","null","null","[3,1]","466.1566578109696","182.36629675619895","467.10351291946927"
"","canvas-keyboard-response","52","96910","0.0-6.0-4.6","528","","","","","clear_screen","null","null","","","critical","d","c","t","160.6713","232.8713","240","164","164","240","spektor","0.05","h","164","240","240","164","160.6713","232.8713","39360","39360","37415.7294","td","null","null","null","null","null","null","[3,1]","466.1566578109696","182.36629675619895","467.10351291946927"
"","canvas-keyboard-response","53","97990","0.0-6.0-5.6","528","","","","","make choice","1072","3","","","critical","d","c","t","160.6713","232.8713","240","164","164","240","spektor","0.05","h","164","240","240","164","160.6713","232.8713","39360","39360","37415.7294","td","null","null","null","null","null","null","[3,1]","","",""
"","canvas-keyboard-response","54","98007","0.0-6.0-6.6","528","","","","","clear_screen","null","null","","","critical","d","c","t","160.6713","232.8713","240","164","164","240","spektor","0.05","h","164","240","240","164","160.6713","232.8713","39360","39360","37415.7294","td","null","null","null","null","null","null","[3,1]","","",""
"","canvas-keyboard-response","55","98208","0.0-6.0-0.7","528","","","","","pre trial waiting period","null","null","","","critical","c","t","d","240","164","164","240","160.6713","232.8713","spektor","0.05","h","164","240","240","164","160.6713","232.8713","39360","39360","37415.7294","tc","null","null","null","null","null","null","[2,1]","493.50040328391395","96.66684151223569","502.55528398977106"
"","canvas-keyboard-response","56","98231","0.0-6.0-1.7","528","","","","","clear_screen","null","null","","","critical","c","t","d","240","164","164","240","160.6713","232.8713","spektor","0.05","h","164","240","240","164","160.6713","232.8713","39360","39360","37415.7294","tc","null","null","null","null","null","null","[2,1]","493.50040328391395","96.66684151223569","502.55528398977106"
"","canvas-keyboard-response","57","98738","0.0-6.0-2.7","528","","","","","rectangles no change","null","null","","","critical","c","t","d","240","164","164","240","160.6713","232.8713","spektor","0.05","h","164","240","240","164","160.6713","232.8713","39360","39360","37415.7294","tc","null","null","null","null","null","null","[2,1]","493.50040328391395","96.66684151223569","502.55528398977106"
"","canvas-keyboard-response","58","100070","0.0-6.0-3.7","528","","","","","rectangles with change","null","null","","","critical","c","t","d","240","164","164","240","160.6713","232.8713","spektor","0.05","h","164","240","240","164","160.6713","232.8713","39360","39360","37415.7294","tc","null","null","null","null","null","null","[2,1]","493.50040328391395","96.66684151223569","502.55528398977106"
"","canvas-keyboard-response","59","100091","0.0-6.0-4.7","528","","","","","clear_screen","null","null","","","critical","c","t","d","240","164","164","240","160.6713","232.8713","spektor","0.05","h","164","240","240","164","160.6713","232.8713","39360","39360","37415.7294","tc","null","null","null","null","null","null","[2,1]","493.50040328391395","96.66684151223569","502.55528398977106"
"","canvas-keyboard-response","60","101500","0.0-6.0-5.7","528","","","","","make choice","1403","1","","","critical","c","t","d","240","164","164","240","160.6713","232.8713","spektor","0.05","h","164","240","240","164","160.6713","232.8713","39360","39360","37415.7294","tc","null","null","null","null","null","null","[2,1]","","",""
"","canvas-keyboard-response","61","101513","0.0-6.0-6.7","528","","","","","clear_screen","null","null","","","critical","c","t","d","240","164","164","240","160.6713","232.8713","spektor","0.05","h","164","240","240","164","160.6713","232.8713","39360","39360","37415.7294","tc","null","null","null","null","null","null","[2,1]","","",""
"","canvas-keyboard-response","62","101714","0.0-6.0-0.8","528","","","","","pre trial waiting period","null","null","","","catch","l","sw","sh","186","286","186","167","218","203","trueblood","null","null","null","null","null","null","null","null","null","null","null","","180","200","260","200","36000","52000","[1,3]","416.5765994505006","501.4186336015235","445.48535175960086"
"","canvas-keyboard-response","63","101732","0.0-6.0-1.8","528","","","","","clear_screen","null","null","","","catch","l","sw","sh","186","286","186","167","218","203","trueblood","null","null","null","null","null","null","null","null","null","null","null","","180","200","260","200","36000","52000","[1,3]","416.5765994505006","501.4186336015235","445.48535175960086"
"","canvas-keyboard-response","64","102240","0.0-6.0-2.8","528","","","","","rectangles no change","null","null","","","catch","l","sw","sh","186","286","186","167","218","203","trueblood","null","null","null","null","null","null","null","null","null","null","null","","180","200","260","200","36000","52000","[1,3]","416.5765994505006","501.4186336015235","445.48535175960086"
"","canvas-keyboard-response","65","103575","0.0-6.0-3.8","528","","","","","rectangles with change","null","null","","","catch","l","sw","sh","186","286","186","167","218","203","trueblood","null","null","null","null","null","null","null","null","null","null","null","","180","200","260","200","36000","52000","[1,3]","416.5765994505006","501.4186336015235","445.48535175960086"
"","canvas-keyboard-response","66","103593","0.0-6.0-4.8","528","","","","","clear_screen","null","null","","","catch","l","sw","sh","186","286","186","167","218","203","trueblood","null","null","null","null","null","null","null","null","null","null","null","","180","200","260","200","36000","52000","[1,3]","416.5765994505006","501.4186336015235","445.48535175960086"
"","canvas-keyboard-response","67","105302","0.0-6.0-5.8","528","","","","","make choice","1700","1","","","catch","l","sw","sh","186","286","186","167","218","203","trueblood","null","null","null","null","null","null","null","null","null","null","null","","180","200","260","200","36000","52000","[1,3]","","",""
"","canvas-keyboard-response","68","105320","0.0-6.0-6.8","528","","","","","clear_screen","null","null","","","catch","l","sw","sh","186","286","186","167","218","203","trueblood","null","null","null","null","null","null","null","null","null","null","null","","180","200","260","200","36000","52000","[1,3]","","",""
"","canvas-keyboard-response","69","105521","0.0-6.0-0.9","528","","","","","pre trial waiting period","null","null","","","critical","t","c","d","240","164","164","240","240","164","spektor","0","w","240","164","164","240","240","164","39360","39360","39360","dc","null","null","null","null","null","null","[3,2]","537.2753759302489","153.52265511402553","514.2845094753903"
"","canvas-keyboard-response","70","105540","0.0-6.0-1.9","528","","","","","clear_screen","null","null","","","critical","t","c","d","240","164","164","240","240","164","spektor","0","w","240","164","164","240","240","164","39360","39360","39360","dc","null","null","null","null","null","null","[3,2]","537.2753759302489","153.52265511402553","514.2845094753903"
"","canvas-keyboard-response","71","106045","0.0-6.0-2.9","528","","","","","rectangles no change","null","null","","","critical","t","c","d","240","164","164","240","240","164","spektor","0","w","240","164","164","240","240","164","39360","39360","39360","dc","null","null","null","null","null","null","[3,2]","537.2753759302489","153.52265511402553","514.2845094753903"
"","canvas-keyboard-response","72","107384","0.0-6.0-3.9","528","","","","","rectangles with change","null","null","","","critical","t","c","d","240","164","164","240","240","164","spektor","0","w","240","164","164","240","240","164","39360","39360","39360","dc","null","null","null","null","null","null","[3,2]","537.2753759302489","153.52265511402553","514.2845094753903"
"","canvas-keyboard-response","73","107403","0.0-6.0-4.9","528","","","","","clear_screen","null","null","","","critical","t","c","d","240","164","164","240","240","164","spektor","0","w","240","164","164","240","240","164","39360","39360","39360","dc","null","null","null","null","null","null","[3,2]","537.2753759302489","153.52265511402553","514.2845094753903"
"","canvas-keyboard-response","74","108486","0.0-6.0-5.9","528","","","","","make choice","1079","3","","","critical","t","c","d","240","164","164","240","240","164","spektor","0","w","240","164","164","240","240","164","39360","39360","39360","dc","null","null","null","null","null","null","[3,2]","","",""
"","canvas-keyboard-response","75","108503","0.0-6.0-6.9","528","","","","","clear_screen","null","null","","","critical","t","c","d","240","164","164","240","240","164","spektor","0","w","240","164","164","240","240","164","39360","39360","39360","dc","null","null","null","null","null","null","[3,2]","","",""
"","canvas-keyboard-response","76","108703","0.0-6.0-0.10","528","","","","","pre trial waiting period","null","null","","","catch","sw","l","sh","180","200","203","243","191","164","trueblood","null","null","null","null","null","null","null","null","null","null","null","","180","200","260","200","36000","52000","[1,2]","446.29952713072606","440.27384556316156","468.94133908093784"
"","canvas-keyboard-response","77","108725","0.0-6.0-1.10","528","","","","","clear_screen","null","null","","","catch","sw","l","sh","180","200","203","243","191","164","trueblood","null","null","null","null","null","null","null","null","null","null","null","","180","200","260","200","36000","52000","[1,2]","446.29952713072606","440.27384556316156","468.94133908093784"
"","canvas-keyboard-response","78","109234","0.0-6.0-2.10","528","","","","","rectangles no change","null","null","","","catch","sw","l","sh","180","200","203","243","191","164","trueblood","null","null","null","null","null","null","null","null","null","null","null","","180","200","260","200","36000","52000","[1,2]","446.29952713072606","440.27384556316156","468.94133908093784"
"","canvas-keyboard-response","79","110571","0.0-6.0-3.10","528","","","","","rectangles with change","null","null","","","catch","sw","l","sh","180","200","203","243","191","164","trueblood","null","null","null","null","null","null","null","null","null","null","null","","180","200","260","200","36000","52000","[1,2]","446.29952713072606","440.27384556316156","468.94133908093784"
"","canvas-keyboard-response","80","110586","0.0-6.0-4.10","528","","","","","clear_screen","null","null","","","catch","sw","l","sh","180","200","203","243","191","164","trueblood","null","null","null","null","null","null","null","null","null","null","null","","180","200","260","200","36000","52000","[1,2]","446.29952713072606","440.27384556316156","468.94133908093784"
"","canvas-keyboard-response","81","110612","0.0-6.0-5.10","528","","","","","make choice","18","2","","","catch","sw","l","sh","180","200","203","243","191","164","trueblood","null","null","null","null","null","null","null","null","null","null","null","","180","200","260","200","36000","52000","[1,2]","","",""
"","canvas-keyboard-response","82","110626","0.0-6.0-6.10","528","","","","","clear_screen","null","null","","","catch","sw","l","sh","180","200","203","243","191","164","trueblood","null","null","null","null","null","null","null","null","null","null","null","","180","200","260","200","36000","52000","[1,2]","","",""
"","canvas-keyboard-response","83","110827","0.0-6.0-0.11","528","","","","","pre trial waiting period","null","null","","","catch","sw","sh","l","180","200","221","213","246","171","trueblood","null","null","null","null","null","null","null","null","null","null","null","","180","200","260","200","36000","52000","[1,3]","475.38258670786587","437.7737683768346","490.93371529066013"
"","canvas-keyboard-response","84","110846","0.0-6.0-1.11","528","","","","","clear_screen","null","null","","","catch","sw","sh","l","180","200","221","213","246","171","trueblood","null","null","null","null","null","null","null","null","null","null","null","","180","200","260","200","36000","52000","[1,3]","475.38258670786587","437.7737683768346","490.93371529066013"
"","canvas-keyboard-response","85","111355","0.0-6.0-2.11","528","","","","","rectangles no change","null","null","","","catch","sw","sh","l","180","200","221","213","246","171","trueblood","null","null","null","null","null","null","null","null","null","null","null","","180","200","260","200","36000","52000","[1,3]","475.38258670786587","437.7737683768346","490.93371529066013"
"","canvas-keyboard-response","86","112693","0.0-6.0-3.11","528","","","","","rectangles with change","null","null","","","catch","sw","sh","l","180","200","221","213","246","171","trueblood","null","null","null","null","null","null","null","null","null","null","null","","180","200","260","200","36000","52000","[1,3]","475.38258670786587","437.7737683768346","490.93371529066013"
"","canvas-keyboard-response","87","112711","0.0-6.0-4.11","528","","","","","clear_screen","null","null","","","catch","sw","sh","l","180","200","221","213","246","171","trueblood","null","null","null","null","null","null","null","null","null","null","null","","180","200","260","200","36000","52000","[1,3]","475.38258670786587","437.7737683768346","490.93371529066013"
"","canvas-keyboard-response","88","112773","0.0-6.0-5.11","528","","","","","make choice","55","3","","","catch","sw","sh","l","180","200","221","213","246","171","trueblood","null","null","null","null","null","null","null","null","null","null","null","","180","200","260","200","36000","52000","[1,3]","","",""
"","canvas-keyboard-response","89","112792","0.0-6.0-6.11","528","","","","","clear_screen","null","null","","","catch","sw","sh","l","180","200","221","213","246","171","trueblood","null","null","null","null","null","null","null","null","null","null","null","","180","200","260","200","36000","52000","[1,3]","","",""
"","canvas-keyboard-response","90","112993","0.0-6.0-0.12","528","","","","","pre trial waiting period","null","null","","","catch","sh","l","sw","180","186","277","186","208","171","trueblood","null","null","null","null","null","null","null","null","null","null","null","","180","200","260","200","36000","52000","[2,3]","482.7275344288258","493.52968534647107","474.9190983587348"
"","canvas-keyboard-response","91","113014","0.0-6.0-1.12","528","","","","","clear_screen","null","null","","","catch","sh","l","sw","180","186","277","186","208","171","trueblood","null","null","null","null","null","null","null","null","null","null","null","","180","200","260","200","36000","52000","[2,3]","482.7275344288258","493.52968534647107","474.9190983587348"
"","canvas-keyboard-response","92","113525","0.0-6.0-2.12","528","","","","","rectangles no change","null","null","","","catch","sh","l","sw","180","186","277","186","208","171","trueblood","null","null","null","null","null","null","null","null","null","null","null","","180","200","260","200","36000","52000","[2,3]","482.7275344288258","493.52968534647107","474.9190983587348"
"","canvas-keyboard-response","93","114857","0.0-6.0-3.12","528","","","","","rectangles with change","null","null","","","catch","sh","l","sw","180","186","277","186","208","171","trueblood","null","null","null","null","null","null","null","null","null","null","null","","180","200","260","200","36000","52000","[2,3]","482.7275344288258","493.52968534647107","474.9190983587348"
"","canvas-keyboard-response","94","114878","0.0-6.0-4.12","528","","","","","clear_screen","null","null","","","catch","sh","l","sw","180","186","277","186","208","171","trueblood","null","null","null","null","null","null","null","null","null","null","null","","180","200","260","200","36000","52000","[2,3]","482.7275344288258","493.52968534647107","474.9190983587348"
"","canvas-keyboard-response","95","115766","0.0-6.0-5.12","528","","","","","make choice","882","2","","","catch","sh","l","sw","180","186","277","186","208","171","trueblood","null","null","null","null","null","null","null","null","null","null","null","","180","200","260","200","36000","52000","[2,3]","","",""
"","canvas-keyboard-response","96","115784","0.0-6.0-6.12","528","","","","","clear_screen","null","null","","","catch","sh","l","sw","180","186","277","186","208","171","trueblood","null","null","null","null","null","null","null","null","null","null","null","","180","200","260","200","36000","52000","[2,3]","","",""
"","canvas-keyboard-response","97","115985","0.0-6.0-0.13","528","","","","","pre trial waiting period","null","null","","","catch","sw","l","sh","180","200","271","165","221","174","spektor","null","null","null","null","null","null","null","null","null","null","null","","180","200","260","200","36000","52000","[1,2]","522.3316792094064","207.49185859011203","502.1463014922217"
"","canvas-keyboard-response","98","116004","0.0-6.0-1.13","528","","","","","clear_screen","null","null","","","catch","sw","l","sh","180","200","271","165","221","174","spektor","null","null","null","null","null","null","null","null","null","null","null","","180","200","260","200","36000","52000","[1,2]","522.3316792094064","207.49185859011203","502.1463014922217"
"","canvas-keyboard-response","99","116513","0.0-6.0-2.13","528","","","","","rectangles no change","null","null","","","catch","sw","l","sh","180","200","271","165","221","174","spektor","null","null","null","null","null","null","null","null","null","null","null","","180","200","260","200","36000","52000","[1,2]","522.3316792094064","207.49185859011203","502.1463014922217"
"","canvas-keyboard-response","100","117852","0.0-6.0-3.13","528","","","","","rectangles with change","null","null","","","catch","sw","l","sh","180","200","271","165","221","174","spektor","null","null","null","null","null","null","null","null","null","null","null","","180","200","260","200","36000","52000","[1,2]","522.3316792094064","207.49185859011203","502.1463014922217"
"","canvas-keyboard-response","101","117870","0.0-6.0-4.13","528","","","","","clear_screen","null","null","","","catch","sw","l","sh","180","200","271","165","221","174","spektor","null","null","null","null","null","null","null","null","null","null","null","","180","200","260","200","36000","52000","[1,2]","522.3316792094064","207.49185859011203","502.1463014922217"
"","canvas-keyboard-response","102","118262","0.0-6.0-5.13","528","","","","","make choice","385","2","","","catch","sw","l","sh","180","200","271","165","221","174","spektor","null","null","null","null","null","null","null","null","null","null","null","","180","200","260","200","36000","52000","[1,2]","","",""
"","canvas-keyboard-response","103","118278","0.0-6.0-6.13","528","","","","","clear_screen","null","null","","","catch","sw","l","sh","180","200","271","165","221","174","spektor","null","null","null","null","null","null","null","null","null","null","null","","180","200","260","200","36000","52000","[1,2]","","",""
"","canvas-keyboard-response","104","118479","0.0-6.0-0.14","528","","","","","pre trial waiting period","null","null","","","critical","t","c","d","164","240","240","164","154.6796","220.0396","trueblood","0.14","h","164","240","240","164","154.6796","220.0396","39360","39360","34035.6388","td","null","null","null","null","null","null","[1,3]","460.9180869646007","475.03193970727835","460.57733547053607"
"","canvas-keyboard-response","105","118499","0.0-6.0-1.14","528","","","","","clear_screen","null","null","","","critical","t","c","d","164","240","240","164","154.6796","220.0396","trueblood","0.14","h","164","240","240","164","154.6796","220.0396","39360","39360","34035.6388","td","null","null","null","null","null","null","[1,3]","460.9180869646007","475.03193970727835","460.57733547053607"
"","canvas-keyboard-response","106","119010","0.0-6.0-2.14","528","","","","","rectangles no change","null","null","","","critical","t","c","d","164","240","240","164","154.6796","220.0396","trueblood","0.14","h","164","240","240","164","154.6796","220.0396","39360","39360","34035.6388","td","null","null","null","null","null","null","[1,3]","460.9180869646007","475.03193970727835","460.57733547053607"
"","canvas-keyboard-response","107","120348","0.0-6.0-3.14","528","","","","","rectangles with change","null","null","","","critical","t","c","d","164","240","240","164","154.6796","220.0396","trueblood","0.14","h","164","240","240","164","154.6796","220.0396","39360","39360","34035.6388","td","null","null","null","null","null","null","[1,3]","460.9180869646007","475.03193970727835","460.57733547053607"
"","canvas-keyboard-response","108","120367","0.0-6.0-4.14","528","","","","","clear_screen","null","null","","","critical","t","c","d","164","240","240","164","154.6796","220.0396","trueblood","0.14","h","164","240","240","164","154.6796","220.0396","39360","39360","34035.6388","td","null","null","null","null","null","null","[1,3]","460.9180869646007","475.03193970727835","460.57733547053607"
"","canvas-keyboard-response","109","120404","0.0-6.0-5.14","528","","","","","make choice","30","1","","","critical","t","c","d","164","240","240","164","154.6796","220.0396","trueblood","0.14","h","164","240","240","164","154.6796","220.0396","39360","39360","34035.6388","td","null","null","null","null","null","null","[1,3]","","",""
"","canvas-keyboard-response","110","120420","0.0-6.0-6.14","528","","","","","clear_screen","null","null","","","critical","t","c","d","164","240","240","164","154.6796","220.0396","trueblood","0.14","h","164","240","240","164","154.6796","220.0396","39360","39360","34035.6388","td","null","null","null","null","null","null","[1,3]","","",""
"","canvas-keyboard-response","111","120623","0.0-6.0-0.15","528","","","","","pre trial waiting period","null","null","","","catch","sh","sw","l","234","193","195","195","173","237","spektor","null","null","null","null","null","null","null","null","null","null","null","","180","200","260","200","36000","52000","[2,3]","492.79031977453207","171.3579460527163","474.5543359028457"
"","canvas-keyboard-response","112","120639","0.0-6.0-1.15","528","","","","","clear_screen","null","null","","","catch","sh","sw","l","234","193","195","195","173","237","spektor","null","null","null","null","null","null","null","null","null","null","null","","180","200","260","200","36000","52000","[2,3]","492.79031977453207","171.3579460527163","474.5543359028457"
"","canvas-keyboard-response","113","121146","0.0-6.0-2.15","528","","","","","rectangles no change","null","null","","","catch","sh","sw","l","234","193","195","195","173","237","spektor","null","null","null","null","null","null","null","null","null","null","null","","180","200","260","200","36000","52000","[2,3]","492.79031977453207","171.3579460527163","474.5543359028457"
"","canvas-keyboard-response","114","122482","0.0-6.0-3.15","528","","","","","rectangles with change","null","null","","","catch","sh","sw","l","234","193","195","195","173","237","spektor","null","null","null","null","null","null","null","null","null","null","null","","180","200","260","200","36000","52000","[2,3]","492.79031977453207","171.3579460527163","474.5543359028457"
"","canvas-keyboard-response","115","122502","0.0-6.0-4.15","528","","","","","clear_screen","null","null","","","catch","sh","sw","l","234","193","195","195","173","237","spektor","null","null","null","null","null","null","null","null","null","null","null","","180","200","260","200","36000","52000","[2,3]","492.79031977453207","171.3579460527163","474.5543359028457"
"","canvas-keyboard-response","116","123573","0.0-6.0-5.15","528","","","","","make choice","1062","3","","","catch","sh","sw","l","234","193","195","195","173","237","spektor","null","null","null","null","null","null","null","null","null","null","null","","180","200","260","200","36000","52000","[2,3]","","",""
"","canvas-keyboard-response","117","123592","0.0-6.0-6.15","528","","","","","clear_screen","null","null","","","catch","sh","sw","l","234","193","195","195","173","237","spektor","null","null","null","null","null","null","null","null","null","null","null","","180","200","260","200","36000","52000","[2,3]","","",""
"","canvas-keyboard-response","118","123794","0.0-6.0-0.16","528","","","","","pre trial waiting period","null","null","","","catch","sh","l","sw","217","186","247","212","202","209","spektor","null","null","null","null","null","null","null","null","null","null","null","","180","200","260","200","36000","52000","[1,2]","488.32955095228806","146.3409648192637","473.76811707702655"
"","canvas-keyboard-response","119","123814","0.0-6.0-1.16","528","","","","","clear_screen","null","null","","","catch","sh","l","sw","217","186","247","212","202","209","spektor","null","null","null","null","null","null","null","null","null","null","null","","180","200","260","200","36000","52000","[1,2]","488.32955095228806","146.3409648192637","473.76811707702655"
"","canvas-keyboard-response","120","124322","0.0-6.0-2.16","528","","","","","rectangles no change","null","null","","","catch","sh","l","sw","217","186","247","212","202","209","spektor","null","null","null","null","null","null","null","null","null","null","null","","180","200","260","200","36000","52000","[1,2]","488.32955095228806","146.3409648192637","473.76811707702655"
"","canvas-keyboard-response","121","125661","0.0-6.0-3.16","528","","","","","rectangles with change","null","null","","","catch","sh","l","sw","217","186","247","212","202","209","spektor","null","null","null","null","null","null","null","null","null","null","null","","180","200","260","200","36000","52000","[1,2]","488.32955095228806","146.3409648192637","473.76811707702655"
"","canvas-keyboard-response","122","125679","0.0-6.0-4.16","528","","","","","clear_screen","null","null","","","catch","sh","l","sw","217","186","247","212","202","209","spektor","null","null","null","null","null","null","null","null","null","null","null","","180","200","260","200","36000","52000","[1,2]","488.32955095228806","146.3409648192637","473.76811707702655"
"","canvas-keyboard-response","123","126133","0.0-6.0-5.16","528","","","","","make choice","449","2","","","catch","sh","l","sw","217","186","247","212","202","209","spektor","null","null","null","null","null","null","null","null","null","null","null","","180","200","260","200","36000","52000","[1,2]","","",""
"","canvas-keyboard-response","124","126154","0.0-6.0-6.16","528","","","","","clear_screen","null","null","","","catch","sh","l","sw","217","186","247","212","202","209","spektor","null","null","null","null","null","null","null","null","null","null","null","","180","200","260","200","36000","52000","[1,2]","","",""
"","canvas-keyboard-response","125","126355","0.0-6.0-0.17","528","","","","","pre trial waiting period","null","null","","","catch","l","sw","sh","206","298","181","201","212","141","trueblood","null","null","null","null","null","null","null","null","null","null","null","","180","200","260","200","36000","52000","[1,2]","417.6788540972782","484.55329769575616","488.7472678904282"
"","canvas-keyboard-response","126","126380","0.0-6.0-1.17","528","","","","","clear_screen","null","null","","","catch","l","sw","sh","206","298","181","201","212","141","trueblood","null","null","null","null","null","null","null","null","null","null","null","","180","200","260","200","36000","52000","[1,2]","417.6788540972782","484.55329769575616","488.7472678904282"
"","canvas-keyboard-response","127","126884","0.0-6.0-2.17","528","","","","","rectangles no change","null","null","","","catch","l","sw","sh","206","298","181","201","212","141","trueblood","null","null","null","null","null","null","null","null","null","null","null","","180","200","260","200","36000","52000","[1,2]","417.6788540972782","484.55329769575616","488.7472678904282"
"","canvas-keyboard-response","128","128224","0.0-6.0-3.17","528","","","","","rectangles with change","null","null","","","catch","l","sw","sh","206","298","181","201","212","141","trueblood","null","null","null","null","null","null","null","null","null","null","null","","180","200","260","200","36000","52000","[1,2]","417.6788540972782","484.55329769575616","488.7472678904282"
"","canvas-keyboard-response","129","128246","0.0-6.0-4.17","528","","","","","clear_screen","null","null","","","catch","l","sw","sh","206","298","181","201","212","141","trueblood","null","null","null","null","null","null","null","null","null","null","null","","180","200","260","200","36000","52000","[1,2]","417.6788540972782","484.55329769575616","488.7472678904282"
"","canvas-keyboard-response","130","128781","0.0-6.0-5.17","528","","","","","make choice","531","1","","","catch","l","sw","sh","206","298","181","201","212","141","trueblood","null","null","null","null","null","null","null","null","null","null","null","","180","200","260","200","36000","52000","[1,2]","","",""
"","canvas-keyboard-response","131","128801","0.0-6.0-6.17","528","","","","","clear_screen","null","null","","","catch","l","sw","sh","206","298","181","201","212","141","trueblood","null","null","null","null","null","null","null","null","null","null","null","","180","200","260","200","36000","52000","[1,2]","","",""
"","canvas-keyboard-response","132","129002","0.0-6.0-0.18","528","","","","","pre trial waiting period","null","null","","","critical","c","t","d","164","240","240","164","220.0396","154.6796","trueblood","0.14","w","240","164","164","240","220.0396","154.6796","39360","39360","34035.6388","tc","null","null","null","null","null","null","[2,1]","434.85606318872993","491.1714891744764","483.10584216329363"
"","canvas-keyboard-response","133","129021","0.0-6.0-1.18","528","","","","","clear_screen","null","null","","","critical","c","t","d","164","240","240","164","220.0396","154.6796","trueblood","0.14","w","240","164","164","240","220.0396","154.6796","39360","39360","34035.6388","tc","null","null","null","null","null","null","[2,1]","434.85606318872993","491.1714891744764","483.10584216329363"
"","canvas-keyboard-response","134","129529","0.0-6.0-2.18","528","","","","","rectangles no change","null","null","","","critical","c","t","d","164","240","240","164","220.0396","154.6796","trueblood","0.14","w","240","164","164","240","220.0396","154.6796","39360","39360","34035.6388","tc","null","null","null","null","null","null","[2,1]","434.85606318872993","491.1714891744764","483.10584216329363"
"","canvas-keyboard-response","135","130868","0.0-6.0-3.18","528","","","","","rectangles with change","null","null","","","critical","c","t","d","164","240","240","164","220.0396","154.6796","trueblood","0.14","w","240","164","164","240","220.0396","154.6796","39360","39360","34035.6388","tc","null","null","null","null","null","null","[2,1]","434.85606318872993","491.1714891744764","483.10584216329363"
"","canvas-keyboard-response","136","130886","0.0-6.0-4.18","528","","","","","clear_screen","null","null","","","critical","c","t","d","164","240","240","164","220.0396","154.6796","trueblood","0.14","w","240","164","164","240","220.0396","154.6796","39360","39360","34035.6388","tc","null","null","null","null","null","null","[2,1]","434.85606318872993","491.1714891744764","483.10584216329363"
"","canvas-keyboard-response","137","134061","0.0-6.0-5.18","528","","","","","make choice","3168","1","","","critical","c","t","d","164","240","240","164","220.0396","154.6796","trueblood","0.14","w","240","164","164","240","220.0396","154.6796","39360","39360","34035.6388","tc","null","null","null","null","null","null","[2,1]","","",""
"","canvas-keyboard-response","138","134081","0.0-6.0-6.18","528","","","","","clear_screen","null","null","","","critical","c","t","d","164","240","240","164","220.0396","154.6796","trueblood","0.14","w","240","164","164","240","220.0396","154.6796","39360","39360","34035.6388","tc","null","null","null","null","null","null","[2,1]","","",""
"","canvas-keyboard-response","139","134282","0.0-6.0-0.19","528","","","","","pre trial waiting period","null","null","","","catch","l","sh","sw","295","207","225","181","201","198","spektor","null","null","null","null","null","null","null","null","null","null","null","","180","200","260","200","36000","52000","[1,3]","489.0136712960708","176.98508307481148","491.27271209541095"
"","canvas-keyboard-response","140","134302","0.0-6.0-1.19","528","","","","","clear_screen","null","null","","","catch","l","sh","sw","295","207","225","181","201","198","spektor","null","null","null","null","null","null","null","null","null","null","null","","180","200","260","200","36000","52000","[1,3]","489.0136712960708","176.98508307481148","491.27271209541095"
"","canvas-keyboard-response","141","134815","0.0-6.0-2.19","528","","","","","rectangles no change","null","null","","","catch","l","sh","sw","295","207","225","181","201","198","spektor","null","null","null","null","null","null","null","null","null","null","null","","180","200","260","200","36000","52000","[1,3]","489.0136712960708","176.98508307481148","491.27271209541095"
"","canvas-keyboard-response","142","136152","0.0-6.0-3.19","528","","","","","rectangles with change","null","null","","","catch","l","sh","sw","295","207","225","181","201","198","spektor","null","null","null","null","null","null","null","null","null","null","null","","180","200","260","200","36000","52000","[1,3]","489.0136712960708","176.98508307481148","491.27271209541095"
"","canvas-keyboard-response","143","136171","0.0-6.0-4.19","528","","","","","clear_screen","null","null","","","catch","l","sh","sw","295","207","225","181","201","198","spektor","null","null","null","null","null","null","null","null","null","null","null","","180","200","260","200","36000","52000","[1,3]","489.0136712960708","176.98508307481148","491.27271209541095"
"","canvas-keyboard-response","144","138181","0.0-6.0-5.19","528","","","","","make choice","2003","1","","","catch","l","sh","sw","295","207","225","181","201","198","spektor","null","null","null","null","null","null","null","null","null","null","null","","180","200","260","200","36000","52000","[1,3]","","",""
"","canvas-keyboard-response","145","138200","0.0-6.0-6.19","528","","","","","clear_screen","null","null","","","catch","l","sh","sw","295","207","225","181","201","198","spektor","null","null","null","null","null","null","null","null","null","null","null","","180","200","260","200","36000","52000","[1,3]","","",""
"","canvas-keyboard-response","146","138401","0.0-6.0-0.20","528","","","","","pre trial waiting period","null","null","","","critical","c","t","d","240","164","164","240","162.6685","237.1485","spektor","0.02","h","164","240","240","164","162.6685","237.1485","39360","39360","38576.5967","td","null","null","null","null","null","null","[2,3]","520.3958811774489","114.44034787592538","488.4855095967059"
"","canvas-keyboard-response","147","138421","0.0-6.0-1.20","528","","","","","clear_screen","null","null","","","critical","c","t","d","240","164","164","240","162.6685","237.1485","spektor","0.02","h","164","240","240","164","162.6685","237.1485","39360","39360","38576.5967","td","null","null","null","null","null","null","[2,3]","520.3958811774489","114.44034787592538","488.4855095967059"
"","canvas-keyboard-response","148","138929","0.0-6.0-2.20","528","","","","","rectangles no change","null","null","","","critical","c","t","d","240","164","164","240","162.6685","237.1485","spektor","0.02","h","164","240","240","164","162.6685","237.1485","39360","39360","38576.5967","td","null","null","null","null","null","null","[2,3]","520.3958811774489","114.44034787592538","488.4855095967059"
"","canvas-keyboard-response","149","140267","0.0-6.0-3.20","528","","","","","rectangles with change","null","null","","","critical","c","t","d","240","164","164","240","162.6685","237.1485","spektor","0.02","h","164","240","240","164","162.6685","237.1485","39360","39360","38576.5967","td","null","null","null","null","null","null","[2,3]","520.3958811774489","114.44034787592538","488.4855095967059"
"","canvas-keyboard-response","150","140290","0.0-6.0-4.20","528","","","","","clear_screen","null","null","","","critical","c","t","d","240","164","164","240","162.6685","237.1485","spektor","0.02","h","164","240","240","164","162.6685","237.1485","39360","39360","38576.5967","td","null","null","null","null","null","null","[2,3]","520.3958811774489","114.44034787592538","488.4855095967059"
"","canvas-keyboard-response","151","141407","0.0-6.0-5.20","528","","","","","make choice","1108","3","","","critical","c","t","d","240","164","164","240","162.6685","237.1485","spektor","0.02","h","164","240","240","164","162.6685","237.1485","39360","39360","38576.5967","td","null","null","null","null","null","null","[2,3]","","",""
"","canvas-keyboard-response","152","141425","0.0-6.0-6.20","528","","","","","clear_screen","null","null","","","critical","c","t","d","240","164","164","240","162.6685","237.1485","spektor","0.02","h","164","240","240","164","162.6685","237.1485","39360","39360","38576.5967","td","null","null","null","null","null","null","[2,3]","","",""
"","canvas-keyboard-response","153","141628","0.0-6.0-0.21","528","","","","","pre trial waiting period","null","null","","","catch","l","sh","sw","225","216","176","210","181","176","spektor","null","null","null","null","null","null","null","null","null","null","null","","180","200","260","200","36000","52000","[1,3]","482.1187885874837","163.28855836906365","514.9048758011828"
"","canvas-keyboard-response","154","141650","0.0-6.0-1.21","528","","","","","clear_screen","null","null","","","catch","l","sh","sw","225","216","176","210","181","176","spektor","null","null","null","null","null","null","null","null","null","null","null","","180","200","260","200","36000","52000","[1,3]","482.1187885874837","163.28855836906365","514.9048758011828"
"","canvas-keyboard-response","155","142157","0.0-6.0-2.21","528","","","","","rectangles no change","null","null","","","catch","l","sh","sw","225","216","176","210","181","176","spektor","null","null","null","null","null","null","null","null","null","null","null","","180","200","260","200","36000","52000","[1,3]","482.1187885874837","163.28855836906365","514.9048758011828"
"","canvas-keyboard-response","156","143492","0.0-6.0-3.21","528","","","","","rectangles with change","null","null","","","catch","l","sh","sw","225","216","176","210","181","176","spektor","null","null","null","null","null","null","null","null","null","null","null","","180","200","260","200","36000","52000","[1,3]","482.1187885874837","163.28855836906365","514.9048758011828"
"","canvas-keyboard-response","157","143514","0.0-6.0-4.21","528","","","","","clear_screen","null","null","","","catch","l","sh","sw","225","216","176","210","181","176","spektor","null","null","null","null","null","null","null","null","null","null","null","","180","200","260","200","36000","52000","[1,3]","482.1187885874837","163.28855836906365","514.9048758011828"
"","canvas-keyboard-response","158","144470","0.0-6.0-5.21","528","","","","","make choice","951","1","","","catch","l","sh","sw","225","216","176","210","181","176","spektor","null","null","null","null","null","null","null","null","null","null","null","","180","200","260","200","36000","52000","[1,3]","","",""
"","canvas-keyboard-response","159","144490","0.0-6.0-6.21","528","","","","","clear_screen","null","null","","","catch","l","sh","sw","225","216","176","210","181","176","spektor","null","null","null","null","null","null","null","null","null","null","null","","180","200","260","200","36000","52000","[1,3]","","",""
"","canvas-keyboard-response","160","144691","0.0-6.0-0.22","528","","","","","pre trial waiting period","null","null","","","catch","sw","l","sh","180","200","234","272","165","153","spektor","null","null","null","null","null","null","null","null","null","null","null","","180","200","260","200","36000","52000","[1,2]","524.6564165603328","114.43203556745539","515.6959721524986"
"","canvas-keyboard-response","161","144711","0.0-6.0-1.22","528","","","","","clear_screen","null","null","","","catch","sw","l","sh","180","200","234","272","165","153","spektor","null","null","null","null","null","null","null","null","null","null","null","","180","200","260","200","36000","52000","[1,2]","524.6564165603328","114.43203556745539","515.6959721524986"
"","canvas-keyboard-response","162","145219","0.0-6.0-2.22","528","","","","","rectangles no change","null","null","","","catch","sw","l","sh","180","200","234","272","165","153","spektor","null","null","null","null","null","null","null","null","null","null","null","","180","200","260","200","36000","52000","[1,2]","524.6564165603328","114.43203556745539","515.6959721524986"
"","canvas-keyboard-response","163","146560","0.0-6.0-3.22","528","","","","","rectangles with change","null","null","","","catch","sw","l","sh","180","200","234","272","165","153","spektor","null","null","null","null","null","null","null","null","null","null","null","","180","200","260","200","36000","52000","[1,2]","524.6564165603328","114.43203556745539","515.6959721524986"
"","canvas-keyboard-response","164","146577","0.0-6.0-4.22","528","","","","","clear_screen","null","null","","","catch","sw","l","sh","180","200","234","272","165","153","spektor","null","null","null","null","null","null","null","null","null","null","null","","180","200","260","200","36000","52000","[1,2]","524.6564165603328","114.43203556745539","515.6959721524986"
"","canvas-keyboard-response","165","147326","0.0-6.0-5.22","528","","","","","make choice","741","2","","","catch","sw","l","sh","180","200","234","272","165","153","spektor","null","null","null","null","null","null","null","null","null","null","null","","180","200","260","200","36000","52000","[1,2]","","",""
"","canvas-keyboard-response","166","147344","0.0-6.0-6.22","528","","","","","clear_screen","null","null","","","catch","sw","l","sh","180","200","234","272","165","153","spektor","null","null","null","null","null","null","null","null","null","null","null","","180","200","260","200","36000","52000","[1,2]","","",""
"","canvas-keyboard-response","167","147545","0.0-6.0-0.23","528","","","","","pre trial waiting period","null","null","","","critical","d","t","c","237.1485","162.6685","240","164","164","240","spektor","0.02","w","240","164","164","240","237.1485","162.6685","39360","39360","38576.5967","dc","null","null","null","null","null","null","[1,3]","514.810862449428","202.98364096900826","468.90888768455847"
"","canvas-keyboard-response","168","147565","0.0-6.0-1.23","528","","","","","clear_screen","null","null","","","critical","d","t","c","237.1485","162.6685","240","164","164","240","spektor","0.02","w","240","164","164","240","237.1485","162.6685","39360","39360","38576.5967","dc","null","null","null","null","null","null","[1,3]","514.810862449428","202.98364096900826","468.90888768455847"
"","canvas-keyboard-response","169","148070","0.0-6.0-2.23","528","","","","","rectangles no change","null","null","","","critical","d","t","c","237.1485","162.6685","240","164","164","240","spektor","0.02","w","240","164","164","240","237.1485","162.6685","39360","39360","38576.5967","dc","null","null","null","null","null","null","[1,3]","514.810862449428","202.98364096900826","468.90888768455847"
"","canvas-keyboard-response","170","149412","0.0-6.0-3.23","528","","","","","rectangles with change","null","null","","","critical","d","t","c","237.1485","162.6685","240","164","164","240","spektor","0.02","w","240","164","164","240","237.1485","162.6685","39360","39360","38576.5967","dc","null","null","null","null","null","null","[1,3]","514.810862449428","202.98364096900826","468.90888768455847"
"","canvas-keyboard-response","171","149433","0.0-6.0-4.23","528","","","","","clear_screen","null","null","","","critical","d","t","c","237.1485","162.6685","240","164","164","240","spektor","0.02","w","240","164","164","240","237.1485","162.6685","39360","39360","38576.5967","dc","null","null","null","null","null","null","[1,3]","514.810862449428","202.98364096900826","468.90888768455847"
"","canvas-keyboard-response","172","150270","0.0-6.0-5.23","528","","","","","make choice","833","3","","","critical","d","t","c","237.1485","162.6685","240","164","164","240","spektor","0.02","w","240","164","164","240","237.1485","162.6685","39360","39360","38576.5967","dc","null","null","null","null","null","null","[1,3]","","",""
"","canvas-keyboard-response","173","150287","0.0-6.0-6.23","528","","","","","clear_screen","null","null","","","critical","d","t","c","237.1485","162.6685","240","164","164","240","spektor","0.02","w","240","164","164","240","237.1485","162.6685","39360","39360","38576.5967","dc","null","null","null","null","null","null","[1,3]","","",""
"","canvas-keyboard-response","174","150488","0.0-6.0-0.24","528","","","","","pre trial waiting period","null","null","","","critical","d","t","c","158.0083","227.1683","164","240","240","164","spektor","0.09","h","164","240","240","164","158.0083","227.1683","39360","39360","35894.4834","tc","null","null","null","null","null","null","[2,3]","495.9248198946098","111.19138129898627","495.1346729142198"
"","canvas-keyboard-response","175","150511","0.0-6.0-1.24","528","","","","","clear_screen","null","null","","","critical","d","t","c","158.0083","227.1683","164","240","240","164","spektor","0.09","h","164","240","240","164","158.0083","227.1683","39360","39360","35894.4834","tc","null","null","null","null","null","null","[2,3]","495.9248198946098","111.19138129898627","495.1346729142198"
"","canvas-keyboard-response","176","151018","0.0-6.0-2.24","528","","","","","rectangles no change","null","null","","","critical","d","t","c","158.0083","227.1683","164","240","240","164","spektor","0.09","h","164","240","240","164","158.0083","227.1683","39360","39360","35894.4834","tc","null","null","null","null","null","null","[2,3]","495.9248198946098","111.19138129898627","495.1346729142198"
"","canvas-keyboard-response","177","152358","0.0-6.0-3.24","528","","","","","rectangles with change","null","null","","","critical","d","t","c","158.0083","227.1683","164","240","240","164","spektor","0.09","h","164","240","240","164","158.0083","227.1683","39360","39360","35894.4834","tc","null","null","null","null","null","null","[2,3]","495.9248198946098","111.19138129898627","495.1346729142198"
"","canvas-keyboard-response","178","152381","0.0-6.0-4.24","528","","","","","clear_screen","null","null","","","critical","d","t","c","158.0083","227.1683","164","240","240","164","spektor","0.09","h","164","240","240","164","158.0083","227.1683","39360","39360","35894.4834","tc","null","null","null","null","null","null","[2,3]","495.9248198946098","111.19138129898627","495.1346729142198"
"","canvas-keyboard-response","179","152926","0.0-6.0-5.24","528","","","","","make choice","540","3","","","critical","d","t","c","158.0083","227.1683","164","240","240","164","spektor","0.09","h","164","240","240","164","158.0083","227.1683","39360","39360","35894.4834","tc","null","null","null","null","null","null","[2,3]","","",""
"","canvas-keyboard-response","180","152943","0.0-6.0-6.24","528","","","","","clear_screen","null","null","","","critical","d","t","c","158.0083","227.1683","164","240","240","164","spektor","0.09","h","164","240","240","164","158.0083","227.1683","39360","39360","35894.4834","tc","null","null","null","null","null","null","[2,3]","","",""
"","canvas-keyboard-response","181","153145","0.0-6.0-0.25","528","","","","","pre trial waiting period","null","null","","","catch","sh","l","sw","214","144","221","224","205","163","trueblood","null","null","null","null","null","null","null","null","null","null","null","","180","200","260","200","36000","52000","[1,2]","493.9970835027163","474.9206255413406","517.0841265113793"
"","canvas-keyboard-response","182","153165","0.0-6.0-1.25","528","","","","","clear_screen","null","null","","","catch","sh","l","sw","214","144","221","224","205","163","trueblood","null","null","null","null","null","null","null","null","null","null","null","","180","200","260","200","36000","52000","[1,2]","493.9970835027163","474.9206255413406","517.0841265113793"
"","canvas-keyboard-response","183","153671","0.0-6.0-2.25","528","","","","","rectangles no change","null","null","","","catch","sh","l","sw","214","144","221","224","205","163","trueblood","null","null","null","null","null","null","null","null","null","null","null","","180","200","260","200","36000","52000","[1,2]","493.9970835027163","474.9206255413406","517.0841265113793"
"","canvas-keyboard-response","184","155010","0.0-6.0-3.25","528","","","","","rectangles with change","null","null","","","catch","sh","l","sw","214","144","221","224","205","163","trueblood","null","null","null","null","null","null","null","null","null","null","null","","180","200","260","200","36000","52000","[1,2]","493.9970835027163","474.9206255413406","517.0841265113793"
"","canvas-keyboard-response","185","155028","0.0-6.0-4.25","528","","","","","clear_screen","null","null","","","catch","sh","l","sw","214","144","221","224","205","163","trueblood","null","null","null","null","null","null","null","null","null","null","null","","180","200","260","200","36000","52000","[1,2]","493.9970835027163","474.9206255413406","517.0841265113793"
"","canvas-keyboard-response","186","155501","0.0-6.0-5.25","528","","","","","make choice","468","2","","","catch","sh","l","sw","214","144","221","224","205","163","trueblood","null","null","null","null","null","null","null","null","null","null","null","","180","200","260","200","36000","52000","[1,2]","","",""
"","canvas-keyboard-response","187","155522","0.0-6.0-6.25","528","","","","","clear_screen","null","null","","","catch","sh","l","sw","214","144","221","224","205","163","trueblood","null","null","null","null","null","null","null","null","null","null","null","","180","200","260","200","36000","52000","[1,2]","","",""
"","canvas-keyboard-response","188","155722","0.0-6.0-0.26","528","","","","","pre trial waiting period","null","null","","","catch","sh","l","sw","186","198","189","251","171","202","spektor","null","null","null","null","null","null","null","null","null","null","null","","180","200","260","200","36000","52000","[1,2]","494.7256012180163","103.92542979863438","500.79332755960377"
"","canvas-keyboard-response","189","155743","0.0-6.0-1.26","528","","","","","clear_screen","null","null","","","catch","sh","l","sw","186","198","189","251","171","202","spektor","null","null","null","null","null","null","null","null","null","null","null","","180","200","260","200","36000","52000","[1,2]","494.7256012180163","103.92542979863438","500.79332755960377"
"","canvas-keyboard-response","190","156255","0.0-6.0-2.26","528","","","","","rectangles no change","null","null","","","catch","sh","l","sw","186","198","189","251","171","202","spektor","null","null","null","null","null","null","null","null","null","null","null","","180","200","260","200","36000","52000","[1,2]","494.7256012180163","103.92542979863438","500.79332755960377"
"","canvas-keyboard-response","191","157594","0.0-6.0-3.26","528","","","","","rectangles with change","null","null","","","catch","sh","l","sw","186","198","189","251","171","202","spektor","null","null","null","null","null","null","null","null","null","null","null","","180","200","260","200","36000","52000","[1,2]","494.7256012180163","103.92542979863438","500.79332755960377"
"","canvas-keyboard-response","192","157614","0.0-6.0-4.26","528","","","","","clear_screen","null","null","","","catch","sh","l","sw","186","198","189","251","171","202","spektor","null","null","null","null","null","null","null","null","null","null","null","","180","200","260","200","36000","52000","[1,2]","494.7256012180163","103.92542979863438","500.79332755960377"
"","canvas-keyboard-response","193","157973","0.0-6.0-5.26","528","","","","","make choice","354","2","","","catch","sh","l","sw","186","198","189","251","171","202","spektor","null","null","null","null","null","null","null","null","null","null","null","","180","200","260","200","36000","52000","[1,2]","","",""
"","canvas-keyboard-response","194","157990","0.0-6.0-6.26","528","","","","","clear_screen","null","null","","","catch","sh","l","sw","186","198","189","251","171","202","spektor","null","null","null","null","null","null","null","null","null","null","null","","180","200","260","200","36000","52000","[1,2]","","",""
"","canvas-keyboard-response","195","158191","0.0-6.0-0.27","528","","","","","pre trial waiting period","null","null","","","critical","d","c","t","162.6685","237.1485","240","164","164","240","trueblood","0.02","h","164","240","240","164","162.6685","237.1485","39360","39360","38576.5967","tc","null","null","null","null","null","null","[3,2]","429.36621508970484","509.9687387444278","428.8837630775095"
"","canvas-keyboard-response","196","158209","0.0-6.0-1.27","528","","","","","clear_screen","null","null","","","critical","d","c","t","162.6685","237.1485","240","164","164","240","trueblood","0.02","h","164","240","240","164","162.6685","237.1485","39360","39360","38576.5967","tc","null","null","null","null","null","null","[3,2]","429.36621508970484","509.9687387444278","428.8837630775095"
"","canvas-keyboard-response","197","158717","0.0-6.0-2.27","528","","","","","rectangles no change","null","null","","","critical","d","c","t","162.6685","237.1485","240","164","164","240","trueblood","0.02","h","164","240","240","164","162.6685","237.1485","39360","39360","38576.5967","tc","null","null","null","null","null","null","[3,2]","429.36621508970484","509.9687387444278","428.8837630775095"
"","canvas-keyboard-response","198","160053","0.0-6.0-3.27","528","","","","","rectangles with change","null","null","","","critical","d","c","t","162.6685","237.1485","240","164","164","240","trueblood","0.02","h","164","240","240","164","162.6685","237.1485","39360","39360","38576.5967","tc","null","null","null","null","null","null","[3,2]","429.36621508970484","509.9687387444278","428.8837630775095"
"","canvas-keyboard-response","199","160071","0.0-6.0-4.27","528","","","","","clear_screen","null","null","","","critical","d","c","t","162.6685","237.1485","240","164","164","240","trueblood","0.02","h","164","240","240","164","162.6685","237.1485","39360","39360","38576.5967","tc","null","null","null","null","null","null","[3,2]","429.36621508970484","509.9687387444278","428.8837630775095"
"","canvas-keyboard-response","200","160805","0.0-6.0-5.27","528","","","","","make choice","728","2","","","critical","d","c","t","162.6685","237.1485","240","164","164","240","trueblood","0.02","h","164","240","240","164","162.6685","237.1485","39360","39360","38576.5967","tc","null","null","null","null","null","null","[3,2]","","",""
"","canvas-keyboard-response","201","160825","0.0-6.0-6.27","528","","","","","clear_screen","null","null","","","critical","d","c","t","162.6685","237.1485","240","164","164","240","trueblood","0.02","h","164","240","240","164","162.6685","237.1485","39360","39360","38576.5967","tc","null","null","null","null","null","null","[3,2]","","",""
"","canvas-keyboard-response","202","161025","0.0-6.0-0.28","528","","","","","pre trial waiting period","null","null","","","critical","d","t","c","164","240","164","240","240","164","trueblood","0","h","164","240","240","164","164","240","39360","39360","39360","dc","null","null","null","null","null","null","[1,3]","427.0918213631774","453.9942299301952","503.18327420399527"
"","canvas-keyboard-response","203","161044","0.0-6.0-1.28","528","","","","","clear_screen","null","null","","","critical","d","t","c","164","240","164","240","240","164","trueblood","0","h","164","240","240","164","164","240","39360","39360","39360","dc","null","null","null","null","null","null","[1,3]","427.0918213631774","453.9942299301952","503.18327420399527"
"","canvas-keyboard-response","204","161553","0.0-6.0-2.28","528","","","","","rectangles no change","null","null","","","critical","d","t","c","164","240","164","240","240","164","trueblood","0","h","164","240","240","164","164","240","39360","39360","39360","dc","null","null","null","null","null","null","[1,3]","427.0918213631774","453.9942299301952","503.18327420399527"
"","canvas-keyboard-response","205","162891","0.0-6.0-3.28","528","","","","","rectangles with change","null","null","","","critical","d","t","c","164","240","164","240","240","164","trueblood","0","h","164","240","240","164","164","240","39360","39360","39360","dc","null","null","null","null","null","null","[1,3]","427.0918213631774","453.9942299301952","503.18327420399527"
"","canvas-keyboard-response","206","162906","0.0-6.0-4.28","528","","","","","clear_screen","null","null","","","critical","d","t","c","164","240","164","240","240","164","trueblood","0","h","164","240","240","164","164","240","39360","39360","39360","dc","null","null","null","null","null","null","[1,3]","427.0918213631774","453.9942299301952","503.18327420399527"
"","canvas-keyboard-response","207","163956","0.0-6.0-5.28","528","","","","","make choice","1045","1","","","critical","d","t","c","164","240","164","240","240","164","trueblood","0","h","164","240","240","164","164","240","39360","39360","39360","dc","null","null","null","null","null","null","[1,3]","","",""
"","canvas-keyboard-response","208","163972","0.0-6.0-6.28","528","","","","","clear_screen","null","null","","","critical","d","t","c","164","240","164","240","240","164","trueblood","0","h","164","240","240","164","164","240","39360","39360","39360","dc","null","null","null","null","null","null","[1,3]","","",""
"","canvas-keyboard-response","209","164173","0.0-6.0-0.29","528","","","","","pre trial waiting period","null","null","","","critical","c","d","t","240","164","154.6796","220.0396","164","240","trueblood","0.14","h","164","240","240","164","154.6796","220.0396","39360","39360","34035.6388","tc","null","null","null","null","null","null","[3,1]","509.7797674859477","473.09216822040725","419.34738533091"
"","canvas-keyboard-response","210","164193","0.0-6.0-1.29","528","","","","","clear_screen","null","null","","","critical","c","d","t","240","164","154.6796","220.0396","164","240","trueblood","0.14","h","164","240","240","164","154.6796","220.0396","39360","39360","34035.6388","tc","null","null","null","null","null","null","[3,1]","509.7797674859477","473.09216822040725","419.34738533091"
"","canvas-keyboard-response","211","164702","0.0-6.0-2.29","528","","","","","rectangles no change","null","null","","","critical","c","d","t","240","164","154.6796","220.0396","164","240","trueblood","0.14","h","164","240","240","164","154.6796","220.0396","39360","39360","34035.6388","tc","null","null","null","null","null","null","[3,1]","509.7797674859477","473.09216822040725","419.34738533091"
"","canvas-keyboard-response","212","166041","0.0-6.0-3.29","528","","","","","rectangles with change","null","null","","","critical","c","d","t","240","164","154.6796","220.0396","164","240","trueblood","0.14","h","164","240","240","164","154.6796","220.0396","39360","39360","34035.6388","tc","null","null","null","null","null","null","[3,1]","509.7797674859477","473.09216822040725","419.34738533091"
"","canvas-keyboard-response","213","166060","0.0-6.0-4.29","528","","","","","clear_screen","null","null","","","critical","c","d","t","240","164","154.6796","220.0396","164","240","trueblood","0.14","h","164","240","240","164","154.6796","220.0396","39360","39360","34035.6388","tc","null","null","null","null","null","null","[3,1]","509.7797674859477","473.09216822040725","419.34738533091"
"","canvas-keyboard-response","214","166654","0.0-6.0-5.29","528","","","","","make choice","584","1","","","critical","c","d","t","240","164","154.6796","220.0396","164","240","trueblood","0.14","h","164","240","240","164","154.6796","220.0396","39360","39360","34035.6388","tc","null","null","null","null","null","null","[3,1]","","",""
"","canvas-keyboard-response","215","166671","0.0-6.0-6.29","528","","","","","clear_screen","null","null","","","critical","c","d","t","240","164","154.6796","220.0396","164","240","trueblood","0.14","h","164","240","240","164","154.6796","220.0396","39360","39360","34035.6388","tc","null","null","null","null","null","null","[3,1]","","",""
"","canvas-keyboard-response","216","166872","0.0-6.0-0.30","528","","","","","pre trial waiting period","null","null","","","catch","sh","sw","l","227","190","208","173","230","280","trueblood","null","null","null","null","null","null","null","null","null","null","null","","180","200","260","200","36000","52000","[2,3]","474.27871388802265","487.4300015667204","423.3735310305491"
"","canvas-keyboard-response","217","166895","0.0-6.0-1.30","528","","","","","clear_screen","null","null","","","catch","sh","sw","l","227","190","208","173","230","280","trueblood","null","null","null","null","null","null","null","null","null","null","null","","180","200","260","200","36000","52000","[2,3]","474.27871388802265","487.4300015667204","423.3735310305491"
"","canvas-keyboard-response","218","167401","0.0-6.0-2.30","528","","","","","rectangles no change","null","null","","","catch","sh","sw","l","227","190","208","173","230","280","trueblood","null","null","null","null","null","null","null","null","null","null","null","","180","200","260","200","36000","52000","[2,3]","474.27871388802265","487.4300015667204","423.3735310305491"
"","canvas-keyboard-response","219","168740","0.0-6.0-3.30","528","","","","","rectangles with change","null","null","","","catch","sh","sw","l","227","190","208","173","230","280","trueblood","null","null","null","null","null","null","null","null","null","null","null","","180","200","260","200","36000","52000","[2,3]","474.27871388802265","487.4300015667204","423.3735310305491"
"","canvas-keyboard-response","220","168758","0.0-6.0-4.30","528","","","","","clear_screen","null","null","","","catch","sh","sw","l","227","190","208","173","230","280","trueblood","null","null","null","null","null","null","null","null","null","null","null","","180","200","260","200","36000","52000","[2,3]","474.27871388802265","487.4300015667204","423.3735310305491"
"","canvas-keyboard-response","221","169141","0.0-6.0-5.30","528","","","","","make choice","378","3","","","catch","sh","sw","l","227","190","208","173","230","280","trueblood","null","null","null","null","null","null","null","null","null","null","null","","180","200","260","200","36000","52000","[2,3]","","",""
"","canvas-keyboard-response","222","169160","0.0-6.0-6.30","528","","","","","clear_screen","null","null","","","catch","sh","sw","l","227","190","208","173","230","280","trueblood","null","null","null","null","null","null","null","null","null","null","null","","180","200","260","200","36000","52000","[2,3]","","",""
"","canvas-keyboard-response","223","169362","0.0-6.0-0.31","528","","","","","pre trial waiting period","null","null","","","critical","t","d","c","240","164","232.8713","160.6713","164","240","spektor","0.05","w","240","164","164","240","232.8713","160.6713","39360","39360","37415.7294","td","null","null","null","null","null","null","[1,2]","498.37239766891906","197.6396204530795","462.7954046767999"
"","canvas-keyboard-response","224","169381","0.0-6.0-1.31","528","","","","","clear_screen","null","null","","","critical","t","d","c","240","164","232.8713","160.6713","164","240","spektor","0.05","w","240","164","164","240","232.8713","160.6713","39360","39360","37415.7294","td","null","null","null","null","null","null","[1,2]","498.37239766891906","197.6396204530795","462.7954046767999"
"","canvas-keyboard-response","225","169893","0.0-6.0-2.31","528","","","","","rectangles no change","null","null","","","critical","t","d","c","240","164","232.8713","160.6713","164","240","spektor","0.05","w","240","164","164","240","232.8713","160.6713","39360","39360","37415.7294","td","null","null","null","null","null","null","[1,2]","498.37239766891906","197.6396204530795","462.7954046767999"
"","canvas-keyboard-response","226","171234","0.0-6.0-3.31","528","","","","","rectangles with change","null","null","","","critical","t","d","c","240","164","232.8713","160.6713","164","240","spektor","0.05","w","240","164","164","240","232.8713","160.6713","39360","39360","37415.7294","td","null","null","null","null","null","null","[1,2]","498.37239766891906","197.6396204530795","462.7954046767999"
"","canvas-keyboard-response","227","171253","0.0-6.0-4.31","528","","","","","clear_screen","null","null","","","critical","t","d","c","240","164","232.8713","160.6713","164","240","spektor","0.05","w","240","164","164","240","232.8713","160.6713","39360","39360","37415.7294","td","null","null","null","null","null","null","[1,2]","498.37239766891906","197.6396204530795","462.7954046767999"
"","canvas-keyboard-response","228","171877","0.0-6.0-5.31","528","","","","","make choice","617","1","","","critical","t","d","c","240","164","232.8713","160.6713","164","240","spektor","0.05","w","240","164","164","240","232.8713","160.6713","39360","39360","37415.7294","td","null","null","null","null","null","null","[1,2]","","",""
"","canvas-keyboard-response","229","171897","0.0-6.0-6.31","528","","","","","clear_screen","null","null","","","critical","t","d","c","240","164","232.8713","160.6713","164","240","spektor","0.05","w","240","164","164","240","232.8713","160.6713","39360","39360","37415.7294","td","null","null","null","null","null","null","[1,2]","","",""
"","canvas-keyboard-response","230","172097","0.0-6.0-0.32","528","","","","","pre trial waiting period","null","null","","","catch","sh","sw","l","162","161","189","205","232","160","trueblood","null","null","null","null","null","null","null","null","null","null","null","","180","200","260","200","36000","52000","[1,3]","491.5385601360341","459.2492413583037","476.34840124986476"
"","canvas-keyboard-response","231","172116","0.0-6.0-1.32","528","","","","","clear_screen","null","null","","","catch","sh","sw","l","162","161","189","205","232","160","trueblood","null","null","null","null","null","null","null","null","null","null","null","","180","200","260","200","36000","52000","[1,3]","491.5385601360341","459.2492413583037","476.34840124986476"
"","canvas-keyboard-response","232","172627","0.0-6.0-2.32","528","","","","","rectangles no change","null","null","","","catch","sh","sw","l","162","161","189","205","232","160","trueblood","null","null","null","null","null","null","null","null","null","null","null","","180","200","260","200","36000","52000","[1,3]","491.5385601360341","459.2492413583037","476.34840124986476"
"","canvas-keyboard-response","233","173964","0.0-6.0-3.32","528","","","","","rectangles with change","null","null","","","catch","sh","sw","l","162","161","189","205","232","160","trueblood","null","null","null","null","null","null","null","null","null","null","null","","180","200","260","200","36000","52000","[1,3]","491.5385601360341","459.2492413583037","476.34840124986476"
"","canvas-keyboard-response","234","173981","0.0-6.0-4.32","528","","","","","clear_screen","null","null","","","catch","sh","sw","l","162","161","189","205","232","160","trueblood","null","null","null","null","null","null","null","null","null","null","null","","180","200","260","200","36000","52000","[1,3]","491.5385601360341","459.2492413583037","476.34840124986476"
"","canvas-keyboard-response","235","174390","0.0-6.0-5.32","528","","","","","make choice","402","3","","","catch","sh","sw","l","162","161","189","205","232","160","trueblood","null","null","null","null","null","null","null","null","null","null","null","","180","200","260","200","36000","52000","[1,3]","","",""
"","canvas-keyboard-response","236","174408","0.0-6.0-6.32","528","","","","","clear_screen","null","null","","","catch","sh","sw","l","162","161","189","205","232","160","trueblood","null","null","null","null","null","null","null","null","null","null","null","","180","200","260","200","36000","52000","[1,3]","","",""
"","canvas-keyboard-response","237","174610","0.0-6.0-0.33","528","","","","","pre trial waiting period","null","null","","","catch","sw","sh","l","180","200","164","173","192","221","spektor","null","null","null","null","null","null","null","null","null","null","null","","180","200","260","200","36000","52000","[2,3]","505.79587784905976","175.64828840247046","497.9488238636708"
"","canvas-keyboard-response","238","174628","0.0-6.0-1.33","528","","","","","clear_screen","null","null","","","catch","sw","sh","l","180","200","164","173","192","221","spektor","null","null","null","null","null","null","null","null","null","null","null","","180","200","260","200","36000","52000","[2,3]","505.79587784905976","175.64828840247046","497.9488238636708"
"","canvas-keyboard-response","239","175139","0.0-6.0-2.33","528","","","","","rectangles no change","null","null","","","catch","sw","sh","l","180","200","164","173","192","221","spektor","null","null","null","null","null","null","null","null","null","null","null","","180","200","260","200","36000","52000","[2,3]","505.79587784905976","175.64828840247046","497.9488238636708"
"","canvas-keyboard-response","240","176480","0.0-6.0-3.33","528","","","","","rectangles with change","null","null","","","catch","sw","sh","l","180","200","164","173","192","221","spektor","null","null","null","null","null","null","null","null","null","null","null","","180","200","260","200","36000","52000","[2,3]","505.79587784905976","175.64828840247046","497.9488238636708"
"","canvas-keyboard-response","241","176499","0.0-6.0-4.33","528","","","","","clear_screen","null","null","","","catch","sw","sh","l","180","200","164","173","192","221","spektor","null","null","null","null","null","null","null","null","null","null","null","","180","200","260","200","36000","52000","[2,3]","505.79587784905976","175.64828840247046","497.9488238636708"
"","canvas-keyboard-response","242","176885","0.0-6.0-5.33","528","","","","","make choice","381","3","","","catch","sw","sh","l","180","200","164","173","192","221","spektor","null","null","null","null","null","null","null","null","null","null","null","","180","200","260","200","36000","52000","[2,3]","","",""
"","canvas-keyboard-response","243","176905","0.0-6.0-6.33","528","","","","","clear_screen","null","null","","","catch","sw","sh","l","180","200","164","173","192","221","spektor","null","null","null","null","null","null","null","null","null","null","null","","180","200","260","200","36000","52000","[2,3]","","",""
"","canvas-keyboard-response","244","177107","0.0-6.0-0.34","528","","","","","pre trial waiting period","null","null","","","critical","t","d","c","240","164","227.1683","158.0083","164","240","trueblood","0.09","w","240","164","164","240","227.1683","158.0083","39360","39360","35894.4834","dc","null","null","null","null","null","null","[2,3]","471.3661509524473","483.4225440561145","458.178195970196"
"","canvas-keyboard-response","245","177126","0.0-6.0-1.34","528","","","","","clear_screen","null","null","","","critical","t","d","c","240","164","227.1683","158.0083","164","240","trueblood","0.09","w","240","164","164","240","227.1683","158.0083","39360","39360","35894.4834","dc","null","null","null","null","null","null","[2,3]","471.3661509524473","483.4225440561145","458.178195970196"
"","canvas-keyboard-response","246","177631","0.0-6.0-2.34","528","","","","","rectangles no change","null","null","","","critical","t","d","c","240","164","227.1683","158.0083","164","240","trueblood","0.09","w","240","164","164","240","227.1683","158.0083","39360","39360","35894.4834","dc","null","null","null","null","null","null","[2,3]","471.3661509524473","483.4225440561145","458.178195970196"
"","canvas-keyboard-response","247","178971","0.0-6.0-3.34","528","","","","","rectangles with change","null","null","","","critical","t","d","c","240","164","227.1683","158.0083","164","240","trueblood","0.09","w","240","164","164","240","227.1683","158.0083","39360","39360","35894.4834","dc","null","null","null","null","null","null","[2,3]","471.3661509524473","483.4225440561145","458.178195970196"
"","canvas-keyboard-response","248","178987","0.0-6.0-4.34","528","","","","","clear_screen","null","null","","","critical","t","d","c","240","164","227.1683","158.0083","164","240","trueblood","0.09","w","240","164","164","240","227.1683","158.0083","39360","39360","35894.4834","dc","null","null","null","null","null","null","[2,3]","471.3661509524473","483.4225440561145","458.178195970196"
"","canvas-keyboard-response","249","180189","0.0-6.0-5.34","528","","","","","make choice","1196","2","","","critical","t","d","c","240","164","227.1683","158.0083","164","240","trueblood","0.09","w","240","164","164","240","227.1683","158.0083","39360","39360","35894.4834","dc","null","null","null","null","null","null","[2,3]","","",""
"","canvas-keyboard-response","250","180210","0.0-6.0-6.34","528","","","","","clear_screen","null","null","","","critical","t","d","c","240","164","227.1683","158.0083","164","240","trueblood","0.09","w","240","164","164","240","227.1683","158.0083","39360","39360","35894.4834","dc","null","null","null","null","null","null","[2,3]","","",""
"","canvas-keyboard-response","251","180411","0.0-6.0-0.35","528","","","","","pre trial waiting period","null","null","","","critical","d","c","t","227.1683","158.0083","164","240","240","164","trueblood","0.09","w","240","164","164","240","227.1683","158.0083","39360","39360","35894.4834","tc","null","null","null","null","null","null","[3,2]","484.914065101276","458.2756566225476","483.4796481409491"
"","canvas-keyboard-response","252","180431","0.0-6.0-1.35","528","","","","","clear_screen","null","null","","","critical","d","c","t","227.1683","158.0083","164","240","240","164","trueblood","0.09","w","240","164","164","240","227.1683","158.0083","39360","39360","35894.4834","tc","null","null","null","null","null","null","[3,2]","484.914065101276","458.2756566225476","483.4796481409491"
"","canvas-keyboard-response","253","180940","0.0-6.0-2.35","528","","","","","rectangles no change","null","null","","","critical","d","c","t","227.1683","158.0083","164","240","240","164","trueblood","0.09","w","240","164","164","240","227.1683","158.0083","39360","39360","35894.4834","tc","null","null","null","null","null","null","[3,2]","484.914065101276","458.2756566225476","483.4796481409491"
"","canvas-keyboard-response","254","182276","0.0-6.0-3.35","528","","","","","rectangles with change","null","null","","","critical","d","c","t","227.1683","158.0083","164","240","240","164","trueblood","0.09","w","240","164","164","240","227.1683","158.0083","39360","39360","35894.4834","tc","null","null","null","null","null","null","[3,2]","484.914065101276","458.2756566225476","483.4796481409491"
"","canvas-keyboard-response","255","182292","0.0-6.0-4.35","528","","","","","clear_screen","null","null","","","critical","d","c","t","227.1683","158.0083","164","240","240","164","trueblood","0.09","w","240","164","164","240","227.1683","158.0083","39360","39360","35894.4834","tc","null","null","null","null","null","null","[3,2]","484.914065101276","458.2756566225476","483.4796481409491"
"","canvas-keyboard-response","256","183156","0.0-6.0-5.35","528","","","","","make choice","859","3","","","critical","d","c","t","227.1683","158.0083","164","240","240","164","trueblood","0.09","w","240","164","164","240","227.1683","158.0083","39360","39360","35894.4834","tc","null","null","null","null","null","null","[3,2]","","",""
"","canvas-keyboard-response","257","183174","0.0-6.0-6.35","528","","","","","clear_screen","null","null","","","critical","d","c","t","227.1683","158.0083","164","240","240","164","trueblood","0.09","w","240","164","164","240","227.1683","158.0083","39360","39360","35894.4834","tc","null","null","null","null","null","null","[3,2]","","",""
"","canvas-keyboard-response","258","183374","0.0-6.0-0.36","528","","","","","pre trial waiting period","null","null","","","critical","t","c","d","164","240","240","164","162.6685","237.1485","trueblood","0.02","h","164","240","240","164","162.6685","237.1485","39360","39360","38576.5967","td","null","null","null","null","null","null","[1,3]","462.8522566591175","493.22344627529543","469.64508002096943"
"","canvas-keyboard-response","259","183393","0.0-6.0-1.36","528","","","","","clear_screen","null","null","","","critical","t","c","d","164","240","240","164","162.6685","237.1485","trueblood","0.02","h","164","240","240","164","162.6685","237.1485","39360","39360","38576.5967","td","null","null","null","null","null","null","[1,3]","462.8522566591175","493.22344627529543","469.64508002096943"
"","canvas-keyboard-response","260","183901","0.0-6.0-2.36","528","","","","","rectangles no change","null","null","","","critical","t","c","d","164","240","240","164","162.6685","237.1485","trueblood","0.02","h","164","240","240","164","162.6685","237.1485","39360","39360","38576.5967","td","null","null","null","null","null","null","[1,3]","462.8522566591175","493.22344627529543","469.64508002096943"
"","canvas-keyboard-response","261","185230","0.0-6.0-3.36","528","","","","","rectangles with change","null","null","","","critical","t","c","d","164","240","240","164","162.6685","237.1485","trueblood","0.02","h","164","240","240","164","162.6685","237.1485","39360","39360","38576.5967","td","null","null","null","null","null","null","[1,3]","462.8522566591175","493.22344627529543","469.64508002096943"
"","canvas-keyboard-response","262","185252","0.0-6.0-4.36","528","","","","","clear_screen","null","null","","","critical","t","c","d","164","240","240","164","162.6685","237.1485","trueblood","0.02","h","164","240","240","164","162.6685","237.1485","39360","39360","38576.5967","td","null","null","null","null","null","null","[1,3]","462.8522566591175","493.22344627529543","469.64508002096943"
"","canvas-keyboard-response","263","190156","0.0-6.0-5.36","528","","","","","make choice","4894","1","","","critical","t","c","d","164","240","240","164","162.6685","237.1485","trueblood","0.02","h","164","240","240","164","162.6685","237.1485","39360","39360","38576.5967","td","null","null","null","null","null","null","[1,3]","","",""
"","canvas-keyboard-response","264","190175","0.0-6.0-6.36","528","","","","","clear_screen","null","null","","","critical","t","c","d","164","240","240","164","162.6685","237.1485","trueblood","0.02","h","164","240","240","164","162.6685","237.1485","39360","39360","38576.5967","td","null","null","null","null","null","null","[1,3]","","",""
"","canvas-keyboard-response","265","190376","0.0-6.0-0.37","528","","","","","pre trial waiting period","null","null","","","critical","t","c","d","164","240","240","164","158.0083","227.1683","trueblood","0.09","h","164","240","240","164","158.0083","227.1683","39360","39360","35894.4834","tc","null","null","null","null","null","null","[1,2]","453.58476213036823","469.4407492058202","449.1071132958626"
"","canvas-keyboard-response","266","190395","0.0-6.0-1.37","528","","","","","clear_screen","null","null","","","critical","t","c","d","164","240","240","164","158.0083","227.1683","trueblood","0.09","h","164","240","240","164","158.0083","227.1683","39360","39360","35894.4834","tc","null","null","null","null","null","null","[1,2]","453.58476213036823","469.4407492058202","449.1071132958626"
"","canvas-keyboard-response","267","190902","0.0-6.0-2.37","528","","","","","rectangles no change","null","null","","","critical","t","c","d","164","240","240","164","158.0083","227.1683","trueblood","0.09","h","164","240","240","164","158.0083","227.1683","39360","39360","35894.4834","tc","null","null","null","null","null","null","[1,2]","453.58476213036823","469.4407492058202","449.1071132958626"
"","canvas-keyboard-response","268","192237","0.0-6.0-3.37","528","","","","","rectangles with change","null","null","","","critical","t","c","d","164","240","240","164","158.0083","227.1683","trueblood","0.09","h","164","240","240","164","158.0083","227.1683","39360","39360","35894.4834","tc","null","null","null","null","null","null","[1,2]","453.58476213036823","469.4407492058202","449.1071132958626"
