"success","trial_type","trial_index","time_elapsed","internal_node_id","sub_n","timeout","failed_images","failed_audio","failed_video","screen_id","rt","response","stimulus","view_history","trial","r1","r2","r3","w1","h1","w2","h2","w3","h3","display","tdd","tdo","tw","th","cw","ch","dw","dh","ta","ca","da","probe","csls","csss","clls","clss","sa","la","probe_rects","r1yloc","r2yloc","r3yloc"
"true","fullscreen","0","4435","0.0-0.0","505","","","","","","","","","","","","","","","","","","","","","","","","","","","","","","","","","","","","","","","","","",""
"true","preload","1","4448","0.0-1.0","505","false","[]","[]","[]","img preload","","","","","","","","","","","","","","","","","","","","","","","","","","","","","","","","","","","","",""
"","survey-html-form","2","11100","0.0-2.0","505","","","","","enter-sub-number","6648","{""response"":""505""}","","","","","","","","","","","","","","","","","","","","","","","","","","","","","","","","","","",""
"","image-button-response","3","36604","0.0-3.0","505","","","","","","25438","0","consent.png","","","","","","","","","","","","","","","","","","","","","","","","","","","","","","","","","",""
"","html-button-response","4","56419","0.0-4.0","505","","","","","intro mssg","19808","0","<div style= ""font-size:25px;"" <p> <strong> Welcome! </strong><br> <p style=""color:#8B0000; font-size:25px;""><strong> Please do NOT exit full screen until you are done with the experiment. </strong> </p><p style=""font-size:25px;color:#8B0000;""> <strong> Your data will be lost <br> if you try to go back or refresh the page after the experiment starts. Feel free to click ""previous"" during the instructions, however.</strong> </p><br><p> <strong> Thanks in advance for your contribution to our research! </strong></p>","","","","","","","","","","","","","","","","","","","","","","","","","","","","","","","","","",""
"","instructions","5","143620","0.0-5.0","505","","","","","instructions","87196","","","[{""page_index"":0,""viewing_time"":9458},{""page_index"":1,""viewing_time"":14808},{""page_index"":0,""viewing_time"":6641},{""page_index"":1,""viewing_time"":4618},{""page_index"":2,""viewing_time"":7375},{""page_index"":3,""viewing_time"":27488},{""page_index"":4,""viewing_time"":7575},{""page_index"":5,""viewing_time"":3681},{""page_index"":6,""viewing_time"":3920},{""page_index"":7,""viewing_time"":1632}]","","","","","","","","","","","","","","","","","","","","","","","","","","","","","","","","",""
"","canvas-keyboard-response","6","143826","0.0-6.0-0.0","505","","","","","pre trial waiting period","null","null","","","critical","d","t","c","158.0083","227.1683","164","240","240","164","spektor","0.09","h","164","240","240","164","158.0083","227.1683","39360","39360","35894.4834","dc","null","null","null","null","null","null","[1,3]","492.01576468151114","141.044490524478","539.4585246384769"
"","canvas-keyboard-response","7","143850","0.0-6.0-1.0","505","","","","","clear_screen","null","null","","","critical","d","t","c","158.0083","227.1683","164","240","240","164","spektor","0.09","h","164","240","240","164","158.0083","227.1683","39360","39360","35894.4834","dc","null","null","null","null","null","null","[1,3]","492.01576468151114","141.044490524478","539.4585246384769"
"","canvas-keyboard-response","8","144362","0.0-6.0-2.0","505","","","","","rectangles no change","null","null","","","critical","d","t","c","158.0083","227.1683","164","240","240","164","spektor","0.09","h","164","240","240","164","158.0083","227.1683","39360","39360","35894.4834","dc","null","null","null","null","null","null","[1,3]","492.01576468151114","141.044490524478","539.4585246384769"
"","canvas-keyboard-response","9","145693","0.0-6.0-3.0","505","","","","","rectangles with change","null","null","","","critical","d","t","c","158.0083","227.1683","164","240","240","164","spektor","0.09","h","164","240","240","164","158.0083","227.1683","39360","39360","35894.4834","dc","null","null","null","null","null","null","[1,3]","492.01576468151114","141.044490524478","539.4585246384769"
"","canvas-keyboard-response","10","145713","0.0-6.0-4.0","505","","","","","clear_screen","null","null","","","critical","d","t","c","158.0083","227.1683","164","240","240","164","spektor","0.09","h","164","240","240","164","158.0083","227.1683","39360","39360","35894.4834","dc","null","null","null","null","null","null","[1,3]","492.01576468151114","141.044490524478","539.4585246384769"
"","canvas-keyboard-response","11","153540","0.0-6.0-5.0","505","","","","","make choice","7818","1","","","critical","d","t","c","158.0083","227.1683","164","240","240","164","spektor","0.09","h","164","240","240","164","158.0083","227.1683","39360","39360","35894.4834","dc","null","null","null","null","null","null","[1,3]","","",""
"","canvas-keyboard-response","12","153560","0.0-6.0-6.0","505","","","","","clear_screen","null","null","","","critical","d","t","c","158.0083","227.1683","164","240","240","164","spektor","0.09","h","164","240","240","164","158.0083","227.1683","39360","39360","35894.4834","dc","null","null","null","null","null","null","[1,3]","","",""
"","canvas-keyboard-response","13","153762","0.0-6.0-0.1","505","","","","","pre trial waiting period","null","null","","","critical","d","t","c","227.1683","158.0083","240","164","164","240","trueblood","0.09","w","240","164","164","240","227.1683","158.0083","39360","39360","35894.4834","tc","null","null","null","null","null","null","[2,3]","484.89792683813084","486.55849151726665","450.88973153042247"
"","canvas-keyboard-response","14","153782","0.0-6.0-1.1","505","","","","","clear_screen","null","null","","","critical","d","t","c","227.1683","158.0083","240","164","164","240","trueblood","0.09","w","240","164","164","240","227.1683","158.0083","39360","39360","35894.4834","tc","null","null","null","null","null","null","[2,3]","484.89792683813084","486.55849151726665","450.88973153042247"
"","canvas-keyboard-response","15","154288","0.0-6.0-2.1","505","","","","","rectangles no change","null","null","","","critical","d","t","c","227.1683","158.0083","240","164","164","240","trueblood","0.09","w","240","164","164","240","227.1683","158.0083","39360","39360","35894.4834","tc","null","null","null","null","null","null","[2,3]","484.89792683813084","486.55849151726665","450.88973153042247"
"","canvas-keyboard-response","16","155625","0.0-6.0-3.1","505","","","","","rectangles with change","null","null","","","critical","d","t","c","227.1683","158.0083","240","164","164","240","trueblood","0.09","w","240","164","164","240","227.1683","158.0083","39360","39360","35894.4834","tc","null","null","null","null","null","null","[2,3]","484.89792683813084","486.55849151726665","450.88973153042247"
"","canvas-keyboard-response","17","155646","0.0-6.0-4.1","505","","","","","clear_screen","null","null","","","critical","d","t","c","227.1683","158.0083","240","164","164","240","trueblood","0.09","w","240","164","164","240","227.1683","158.0083","39360","39360","35894.4834","tc","null","null","null","null","null","null","[2,3]","484.89792683813084","486.55849151726665","450.88973153042247"
"","canvas-keyboard-response","18","161100","0.0-6.0-5.1","505","","","","","make choice","5440","2","","","critical","d","t","c","227.1683","158.0083","240","164","164","240","trueblood","0.09","w","240","164","164","240","227.1683","158.0083","39360","39360","35894.4834","tc","null","null","null","null","null","null","[2,3]","","",""
"","canvas-keyboard-response","19","161118","0.0-6.0-6.1","505","","","","","clear_screen","null","null","","","critical","d","t","c","227.1683","158.0083","240","164","164","240","trueblood","0.09","w","240","164","164","240","227.1683","158.0083","39360","39360","35894.4834","tc","null","null","null","null","null","null","[2,3]","","",""
"","canvas-keyboard-response","20","161318","0.0-6.0-0.2","505","","","","","pre trial waiting period","null","null","","","catch","sh","sw","l","222","208","188","220","198","275","spektor","null","null","null","null","null","null","null","null","null","null","null","","180","200","260","200","36000","52000","[1,3]","495.26979714836193","106.99827278739181","444.5442350517314"
"","canvas-keyboard-response","21","161339","0.0-6.0-1.2","505","","","","","clear_screen","null","null","","","catch","sh","sw","l","222","208","188","220","198","275","spektor","null","null","null","null","null","null","null","null","null","null","null","","180","200","260","200","36000","52000","[1,3]","495.26979714836193","106.99827278739181","444.5442350517314"
"","canvas-keyboard-response","22","161849","0.0-6.0-2.2","505","","","","","rectangles no change","null","null","","","catch","sh","sw","l","222","208","188","220","198","275","spektor","null","null","null","null","null","null","null","null","null","null","null","","180","200","260","200","36000","52000","[1,3]","495.26979714836193","106.99827278739181","444.5442350517314"
"","canvas-keyboard-response","23","163187","0.0-6.0-3.2","505","","","","","rectangles with change","null","null","","","catch","sh","sw","l","222","208","188","220","198","275","spektor","null","null","null","null","null","null","null","null","null","null","null","","180","200","260","200","36000","52000","[1,3]","495.26979714836193","106.99827278739181","444.5442350517314"
"","canvas-keyboard-response","24","163208","0.0-6.0-4.2","505","","","","","clear_screen","null","null","","","catch","sh","sw","l","222","208","188","220","198","275","spektor","null","null","null","null","null","null","null","null","null","null","null","","180","200","260","200","36000","52000","[1,3]","495.26979714836193","106.99827278739181","444.5442350517314"
"","canvas-keyboard-response","25","173124","0.0-6.0-5.2","505","","","","","make choice","9909","1","","","catch","sh","sw","l","222","208","188","220","198","275","spektor","null","null","null","null","null","null","null","null","null","null","null","","180","200","260","200","36000","52000","[1,3]","","",""
"","canvas-keyboard-response","26","173144","0.0-6.0-6.2","505","","","","","clear_screen","null","null","","","catch","sh","sw","l","222","208","188","220","198","275","spektor","null","null","null","null","null","null","null","null","null","null","null","","180","200","260","200","36000","52000","[1,3]","","",""
"","canvas-keyboard-response","27","173346","0.0-6.0-0.3","505","","","","","pre trial waiting period","null","null","","","critical","d","c","t","237.1485","162.6685","164","240","240","164","trueblood","0.02","w","240","164","164","240","237.1485","162.6685","39360","39360","38576.5967","dc","null","null","null","null","null","null","[1,2]","518.9026949492551","440.9670513984879","478.59425605246116"
"","canvas-keyboard-response","28","173366","0.0-6.0-1.3","505","","","","","clear_screen","null","null","","","critical","d","c","t","237.1485","162.6685","164","240","240","164","trueblood","0.02","w","240","164","164","240","237.1485","162.6685","39360","39360","38576.5967","dc","null","null","null","null","null","null","[1,2]","518.9026949492551","440.9670513984879","478.59425605246116"
"","canvas-keyboard-response","29","173872","0.0-6.0-2.3","505","","","","","rectangles no change","null","null","","","critical","d","c","t","237.1485","162.6685","164","240","240","164","trueblood","0.02","w","240","164","164","240","237.1485","162.6685","39360","39360","38576.5967","dc","null","null","null","null","null","null","[1,2]","518.9026949492551","440.9670513984879","478.59425605246116"
"","canvas-keyboard-response","30","175210","0.0-6.0-3.3","505","","","","","rectangles with change","null","null","","","critical","d","c","t","237.1485","162.6685","164","240","240","164","trueblood","0.02","w","240","164","164","240","237.1485","162.6685","39360","39360","38576.5967","dc","null","null","null","null","null","null","[1,2]","518.9026949492551","440.9670513984879","478.59425605246116"
"","canvas-keyboard-response","31","175231","0.0-6.0-4.3","505","","","","","clear_screen","null","null","","","critical","d","c","t","237.1485","162.6685","164","240","240","164","trueblood","0.02","w","240","164","164","240","237.1485","162.6685","39360","39360","38576.5967","dc","null","null","null","null","null","null","[1,2]","518.9026949492551","440.9670513984879","478.59425605246116"
"","canvas-keyboard-response","32","176267","0.0-6.0-5.3","505","","","","","make choice","1030","1","","","critical","d","c","t","237.1485","162.6685","164","240","240","164","trueblood","0.02","w","240","164","164","240","237.1485","162.6685","39360","39360","38576.5967","dc","null","null","null","null","null","null","[1,2]","","",""
"","canvas-keyboard-response","33","176285","0.0-6.0-6.3","505","","","","","clear_screen","null","null","","","critical","d","c","t","237.1485","162.6685","164","240","240","164","trueblood","0.02","w","240","164","164","240","237.1485","162.6685","39360","39360","38576.5967","dc","null","null","null","null","null","null","[1,2]","","",""
"","canvas-keyboard-response","34","176486","0.0-6.0-0.4","505","","","","","pre trial waiting period","null","null","","","critical","d","c","t","154.6796","220.0396","240","164","164","240","spektor","0.14","h","164","240","240","164","154.6796","220.0396","39360","39360","34035.6388","dc","null","null","null","null","null","null","[1,2]","486.4285758732598","162.92086252093944","459.2106809512661"
"","canvas-keyboard-response","35","176508","0.0-6.0-1.4","505","","","","","clear_screen","null","null","","","critical","d","c","t","154.6796","220.0396","240","164","164","240","spektor","0.14","h","164","240","240","164","154.6796","220.0396","39360","39360","34035.6388","dc","null","null","null","null","null","null","[1,2]","486.4285758732598","162.92086252093944","459.2106809512661"
"","canvas-keyboard-response","36","177017","0.0-6.0-2.4","505","","","","","rectangles no change","null","null","","","critical","d","c","t","154.6796","220.0396","240","164","164","240","spektor","0.14","h","164","240","240","164","154.6796","220.0396","39360","39360","34035.6388","dc","null","null","null","null","null","null","[1,2]","486.4285758732598","162.92086252093944","459.2106809512661"
"","canvas-keyboard-response","37","178351","0.0-6.0-3.4","505","","","","","rectangles with change","null","null","","","critical","d","c","t","154.6796","220.0396","240","164","164","240","spektor","0.14","h","164","240","240","164","154.6796","220.0396","39360","39360","34035.6388","dc","null","null","null","null","null","null","[1,2]","486.4285758732598","162.92086252093944","459.2106809512661"
"","canvas-keyboard-response","38","178370","0.0-6.0-4.4","505","","","","","clear_screen","null","null","","","critical","d","c","t","154.6796","220.0396","240","164","164","240","spektor","0.14","h","164","240","240","164","154.6796","220.0396","39360","39360","34035.6388","dc","null","null","null","null","null","null","[1,2]","486.4285758732598","162.92086252093944","459.2106809512661"
"","canvas-keyboard-response","39","179379","0.0-6.0-5.4","505","","","","","make choice","1005","2","","","critical","d","c","t","154.6796","220.0396","240","164","164","240","spektor","0.14","h","164","240","240","164","154.6796","220.0396","39360","39360","34035.6388","dc","null","null","null","null","null","null","[1,2]","","",""
"","canvas-keyboard-response","40","179397","0.0-6.0-6.4","505","","","","","clear_screen","null","null","","","critical","d","c","t","154.6796","220.0396","240","164","164","240","spektor","0.14","h","164","240","240","164","154.6796","220.0396","39360","39360","34035.6388","dc","null","null","null","null","null","null","[1,2]","","",""
"","canvas-keyboard-response","41","179598","0.0-6.0-0.5","505","","","","","pre trial waiting period","null","null","","","critical","c","d","t","240","164","164","240","164","240","trueblood","0","h","164","240","240","164","164","240","39360","39360","39360","tc","null","null","null","null","null","null","[3,1]","471.8753754425752","448.0406027721692","449.1614676546268"
"","canvas-keyboard-response","42","179616","0.0-6.0-1.5","505","","","","","clear_screen","null","null","","","critical","c","d","t","240","164","164","240","164","240","trueblood","0","h","164","240","240","164","164","240","39360","39360","39360","tc","null","null","null","null","null","null","[3,1]","471.8753754425752","448.0406027721692","449.1614676546268"
"","canvas-keyboard-response","43","180127","0.0-6.0-2.5","505","","","","","rectangles no change","null","null","","","critical","c","d","t","240","164","164","240","164","240","trueblood","0","h","164","240","240","164","164","240","39360","39360","39360","tc","null","null","null","null","null","null","[3,1]","471.8753754425752","448.0406027721692","449.1614676546268"
"","canvas-keyboard-response","44","181462","0.0-6.0-3.5","505","","","","","rectangles with change","null","null","","","critical","c","d","t","240","164","164","240","164","240","trueblood","0","h","164","240","240","164","164","240","39360","39360","39360","tc","null","null","null","null","null","null","[3,1]","471.8753754425752","448.0406027721692","449.1614676546268"
"","canvas-keyboard-response","45","181483","0.0-6.0-4.5","505","","","","","clear_screen","null","null","","","critical","c","d","t","240","164","164","240","164","240","trueblood","0","h","164","240","240","164","164","240","39360","39360","39360","tc","null","null","null","null","null","null","[3,1]","471.8753754425752","448.0406027721692","449.1614676546268"
"","canvas-keyboard-response","46","182347","0.0-6.0-5.5","505","","","","","make choice","859","1","","","critical","c","d","t","240","164","164","240","164","240","trueblood","0","h","164","240","240","164","164","240","39360","39360","39360","tc","null","null","null","null","null","null","[3,1]","","",""
"","canvas-keyboard-response","47","182366","0.0-6.0-6.5","505","","","","","clear_screen","null","null","","","critical","c","d","t","240","164","164","240","164","240","trueblood","0","h","164","240","240","164","164","240","39360","39360","39360","tc","null","null","null","null","null","null","[3,1]","","",""
"","canvas-keyboard-response","48","182567","0.0-6.0-0.6","505","","","","","pre trial waiting period","null","null","","","critical","t","c","d","164","240","240","164","160.6713","232.8713","spektor","0.05","h","164","240","240","164","160.6713","232.8713","39360","39360","37415.7294","tc","null","null","null","null","null","null","[1,2]","457.57879868171966","172.2133879675921","495.95979992637353"
"","canvas-keyboard-response","49","182585","0.0-6.0-1.6","505","","","","","clear_screen","null","null","","","critical","t","c","d","164","240","240","164","160.6713","232.8713","spektor","0.05","h","164","240","240","164","160.6713","232.8713","39360","39360","37415.7294","tc","null","null","null","null","null","null","[1,2]","457.57879868171966","172.2133879675921","495.95979992637353"
"","canvas-keyboard-response","50","183094","0.0-6.0-2.6","505","","","","","rectangles no change","null","null","","","critical","t","c","d","164","240","240","164","160.6713","232.8713","spektor","0.05","h","164","240","240","164","160.6713","232.8713","39360","39360","37415.7294","tc","null","null","null","null","null","null","[1,2]","457.57879868171966","172.2133879675921","495.95979992637353"
"","canvas-keyboard-response","51","184429","0.0-6.0-3.6","505","","","","","rectangles with change","null","null","","","critical","t","c","d","164","240","240","164","160.6713","232.8713","spektor","0.05","h","164","240","240","164","160.6713","232.8713","39360","39360","37415.7294","tc","null","null","null","null","null","null","[1,2]","457.57879868171966","172.2133879675921","495.95979992637353"
"","canvas-keyboard-response","52","184448","0.0-6.0-4.6","505","","","","","clear_screen","null","null","","","critical","t","c","d","164","240","240","164","160.6713","232.8713","spektor","0.05","h","164","240","240","164","160.6713","232.8713","39360","39360","37415.7294","tc","null","null","null","null","null","null","[1,2]","457.57879868171966","172.2133879675921","495.95979992637353"
"","canvas-keyboard-response","53","186131","0.0-6.0-5.6","505","","","","","make choice","1677","2","","","critical","t","c","d","164","240","240","164","160.6713","232.8713","spektor","0.05","h","164","240","240","164","160.6713","232.8713","39360","39360","37415.7294","tc","null","null","null","null","null","null","[1,2]","","",""
"","canvas-keyboard-response","54","186149","0.0-6.0-6.6","505","","","","","clear_screen","null","null","","","critical","t","c","d","164","240","240","164","160.6713","232.8713","spektor","0.05","h","164","240","240","164","160.6713","232.8713","39360","39360","37415.7294","tc","null","null","null","null","null","null","[1,2]","","",""
"","canvas-keyboard-response","55","186350","0.0-6.0-0.7","505","","","","","pre trial waiting period","null","null","","","critical","c","t","d","240","164","164","240","160.6713","232.8713","spektor","0.05","h","164","240","240","164","160.6713","232.8713","39360","39360","37415.7294","td","null","null","null","null","null","null","[2,3]","527.6611889895337","118.4695784370515","462.20423291574053"
"","canvas-keyboard-response","56","186372","0.0-6.0-1.7","505","","","","","clear_screen","null","null","","","critical","c","t","d","240","164","164","240","160.6713","232.8713","spektor","0.05","h","164","240","240","164","160.6713","232.8713","39360","39360","37415.7294","td","null","null","null","null","null","null","[2,3]","527.6611889895337","118.4695784370515","462.20423291574053"
"","canvas-keyboard-response","57","186878","0.0-6.0-2.7","505","","","","","rectangles no change","null","null","","","critical","c","t","d","240","164","164","240","160.6713","232.8713","spektor","0.05","h","164","240","240","164","160.6713","232.8713","39360","39360","37415.7294","td","null","null","null","null","null","null","[2,3]","527.6611889895337","118.4695784370515","462.20423291574053"
"","canvas-keyboard-response","58","188216","0.0-6.0-3.7","505","","","","","rectangles with change","null","null","","","critical","c","t","d","240","164","164","240","160.6713","232.8713","spektor","0.05","h","164","240","240","164","160.6713","232.8713","39360","39360","37415.7294","td","null","null","null","null","null","null","[2,3]","527.6611889895337","118.4695784370515","462.20423291574053"
"","canvas-keyboard-response","59","188234","0.0-6.0-4.7","505","","","","","clear_screen","null","null","","","critical","c","t","d","240","164","164","240","160.6713","232.8713","spektor","0.05","h","164","240","240","164","160.6713","232.8713","39360","39360","37415.7294","td","null","null","null","null","null","null","[2,3]","527.6611889895337","118.4695784370515","462.20423291574053"
"","canvas-keyboard-response","60","189435","0.0-6.0-5.7","505","","","","","make choice","1195","2","","","critical","c","t","d","240","164","164","240","160.6713","232.8713","spektor","0.05","h","164","240","240","164","160.6713","232.8713","39360","39360","37415.7294","td","null","null","null","null","null","null","[2,3]","","",""
"","canvas-keyboard-response","61","189453","0.0-6.0-6.7","505","","","","","clear_screen","null","null","","","critical","c","t","d","240","164","164","240","160.6713","232.8713","spektor","0.05","h","164","240","240","164","160.6713","232.8713","39360","39360","37415.7294","td","null","null","null","null","null","null","[2,3]","","",""
"","canvas-keyboard-response","62","189653","0.0-6.0-0.8","505","","","","","pre trial waiting period","null","null","","","critical","d","t","c","237.1485","162.6685","240","164","164","240","trueblood","0.02","w","240","164","164","240","237.1485","162.6685","39360","39360","38576.5967","td","null","null","null","null","null","null","[2,1]","472.0885071551871","492.18414461238905","457.54283015676333"
"","canvas-keyboard-response","63","189670","0.0-6.0-1.8","505","","","","","clear_screen","null","null","","","critical","d","t","c","237.1485","162.6685","240","164","164","240","trueblood","0.02","w","240","164","164","240","237.1485","162.6685","39360","39360","38576.5967","td","null","null","null","null","null","null","[2,1]","472.0885071551871","492.18414461238905","457.54283015676333"
"","canvas-keyboard-response","64","190177","0.0-6.0-2.8","505","","","","","rectangles no change","null","null","","","critical","d","t","c","237.1485","162.6685","240","164","164","240","trueblood","0.02","w","240","164","164","240","237.1485","162.6685","39360","39360","38576.5967","td","null","null","null","null","null","null","[2,1]","472.0885071551871","492.18414461238905","457.54283015676333"
"","canvas-keyboard-response","65","191514","0.0-6.0-3.8","505","","","","","rectangles with change","null","null","","","critical","d","t","c","237.1485","162.6685","240","164","164","240","trueblood","0.02","w","240","164","164","240","237.1485","162.6685","39360","39360","38576.5967","td","null","null","null","null","null","null","[2,1]","472.0885071551871","492.18414461238905","457.54283015676333"
"","canvas-keyboard-response","66","191532","0.0-6.0-4.8","505","","","","","clear_screen","null","null","","","critical","d","t","c","237.1485","162.6685","240","164","164","240","trueblood","0.02","w","240","164","164","240","237.1485","162.6685","39360","39360","38576.5967","td","null","null","null","null","null","null","[2,1]","472.0885071551871","492.18414461238905","457.54283015676333"
"","canvas-keyboard-response","67","192267","0.0-6.0-5.8","505","","","","","make choice","726","2","","","critical","d","t","c","237.1485","162.6685","240","164","164","240","trueblood","0.02","w","240","164","164","240","237.1485","162.6685","39360","39360","38576.5967","td","null","null","null","null","null","null","[2,1]","","",""
"","canvas-keyboard-response","68","192286","0.0-6.0-6.8","505","","","","","clear_screen","null","null","","","critical","d","t","c","237.1485","162.6685","240","164","164","240","trueblood","0.02","w","240","164","164","240","237.1485","162.6685","39360","39360","38576.5967","td","null","null","null","null","null","null","[2,1]","","",""
"","canvas-keyboard-response","69","192487","0.0-6.0-0.9","505","","","","","pre trial waiting period","null","null","","","critical","t","c","d","164","240","240","164","164","240","trueblood","0","h","164","240","240","164","164","240","39360","39360","39360","dc","null","null","null","null","null","null","[3,2]","438.03839332494636","469.91131492014404","454.94127440078177"
"","canvas-keyboard-response","70","192508","0.0-6.0-1.9","505","","","","","clear_screen","null","null","","","critical","t","c","d","164","240","240","164","164","240","trueblood","0","h","164","240","240","164","164","240","39360","39360","39360","dc","null","null","null","null","null","null","[3,2]","438.03839332494636","469.91131492014404","454.94127440078177"
"","canvas-keyboard-response","71","193013","0.0-6.0-2.9","505","","","","","rectangles no change","null","null","","","critical","t","c","d","164","240","240","164","164","240","trueblood","0","h","164","240","240","164","164","240","39360","39360","39360","dc","null","null","null","null","null","null","[3,2]","438.03839332494636","469.91131492014404","454.94127440078177"
"","canvas-keyboard-response","72","194348","0.0-6.0-3.9","505","","","","","rectangles with change","null","null","","","critical","t","c","d","164","240","240","164","164","240","trueblood","0","h","164","240","240","164","164","240","39360","39360","39360","dc","null","null","null","null","null","null","[3,2]","438.03839332494636","469.91131492014404","454.94127440078177"
"","canvas-keyboard-response","73","194370","0.0-6.0-4.9","505","","","","","clear_screen","null","null","","","critical","t","c","d","164","240","240","164","164","240","trueblood","0","h","164","240","240","164","164","240","39360","39360","39360","dc","null","null","null","null","null","null","[3,2]","438.03839332494636","469.91131492014404","454.94127440078177"
"","canvas-keyboard-response","74","195795","0.0-6.0-5.9","505","","","","","make choice","1420","2","","","critical","t","c","d","164","240","240","164","164","240","trueblood","0","h","164","240","240","164","164","240","39360","39360","39360","dc","null","null","null","null","null","null","[3,2]","","",""
"","canvas-keyboard-response","75","195813","0.0-6.0-6.9","505","","","","","clear_screen","null","null","","","critical","t","c","d","164","240","240","164","164","240","trueblood","0","h","164","240","240","164","164","240","39360","39360","39360","dc","null","null","null","null","null","null","[3,2]","","",""
"","canvas-keyboard-response","76","196014","0.0-6.0-0.10","505","","","","","pre trial waiting period","null","null","","","catch","l","sh","sw","202","227","231","181","175","185","spektor","null","null","null","null","null","null","null","null","null","null","null","","180","200","260","200","36000","52000","[1,2]","490.82775231080126","177.97495654412725","517.8610597184811"
"","canvas-keyboard-response","77","196034","0.0-6.0-1.10","505","","","","","clear_screen","null","null","","","catch","l","sh","sw","202","227","231","181","175","185","spektor","null","null","null","null","null","null","null","null","null","null","null","","180","200","260","200","36000","52000","[1,2]","490.82775231080126","177.97495654412725","517.8610597184811"
"","canvas-keyboard-response","78","196544","0.0-6.0-2.10","505","","","","","rectangles no change","null","null","","","catch","l","sh","sw","202","227","231","181","175","185","spektor","null","null","null","null","null","null","null","null","null","null","null","","180","200","260","200","36000","52000","[1,2]","490.82775231080126","177.97495654412725","517.8610597184811"
"","canvas-keyboard-response","79","197878","0.0-6.0-3.10","505","","","","","rectangles with change","null","null","","","catch","l","sh","sw","202","227","231","181","175","185","spektor","null","null","null","null","null","null","null","null","null","null","null","","180","200","260","200","36000","52000","[1,2]","490.82775231080126","177.97495654412725","517.8610597184811"
"","canvas-keyboard-response","80","197898","0.0-6.0-4.10","505","","","","","clear_screen","null","null","","","catch","l","sh","sw","202","227","231","181","175","185","spektor","null","null","null","null","null","null","null","null","null","null","null","","180","200","260","200","36000","52000","[1,2]","490.82775231080126","177.97495654412725","517.8610597184811"
"","canvas-keyboard-response","81","198650","0.0-6.0-5.10","505","","","","","make choice","744","1","","","catch","l","sh","sw","202","227","231","181","175","185","spektor","null","null","null","null","null","null","null","null","null","null","null","","180","200","260","200","36000","52000","[1,2]","","",""
"","canvas-keyboard-response","82","198666","0.0-6.0-6.10","505","","","","","clear_screen","null","null","","","catch","l","sh","sw","202","227","231","181","175","185","spektor","null","null","null","null","null","null","null","null","null","null","null","","180","200","260","200","36000","52000","[1,2]","","",""
"","canvas-keyboard-response","83","198867","0.0-6.0-0.11","505","","","","","pre trial waiting period","null","null","","","catch","sw","sh","l","180","200","229","214","289","178","trueblood","null","null","null","null","null","null","null","null","null","null","null","","180","200","260","200","36000","52000","[2,3]","461.4322040420426","438.6856453040269","498.48995767997053"
"","canvas-keyboard-response","84","198886","0.0-6.0-1.11","505","","","","","clear_screen","null","null","","","catch","sw","sh","l","180","200","229","214","289","178","trueblood","null","null","null","null","null","null","null","null","null","null","null","","180","200","260","200","36000","52000","[2,3]","461.4322040420426","438.6856453040269","498.48995767997053"
"","canvas-keyboard-response","85","199395","0.0-6.0-2.11","505","","","","","rectangles no change","null","null","","","catch","sw","sh","l","180","200","229","214","289","178","trueblood","null","null","null","null","null","null","null","null","null","null","null","","180","200","260","200","36000","52000","[2,3]","461.4322040420426","438.6856453040269","498.48995767997053"
"","canvas-keyboard-response","86","200731","0.0-6.0-3.11","505","","","","","rectangles with change","null","null","","","catch","sw","sh","l","180","200","229","214","289","178","trueblood","null","null","null","null","null","null","null","null","null","null","null","","180","200","260","200","36000","52000","[2,3]","461.4322040420426","438.6856453040269","498.48995767997053"
"","canvas-keyboard-response","87","200746","0.0-6.0-4.11","505","","","","","clear_screen","null","null","","","catch","sw","sh","l","180","200","229","214","289","178","trueblood","null","null","null","null","null","null","null","null","null","null","null","","180","200","260","200","36000","52000","[2,3]","461.4322040420426","438.6856453040269","498.48995767997053"
"","canvas-keyboard-response","88","203242","0.0-6.0-5.11","505","","","","","make choice","2494","2","","","catch","sw","sh","l","180","200","229","214","289","178","trueblood","null","null","null","null","null","null","null","null","null","null","null","","180","200","260","200","36000","52000","[2,3]","","",""
"","canvas-keyboard-response","89","203262","0.0-6.0-6.11","505","","","","","clear_screen","null","null","","","catch","sw","sh","l","180","200","229","214","289","178","trueblood","null","null","null","null","null","null","null","null","null","null","null","","180","200","260","200","36000","52000","[2,3]","","",""
"","canvas-keyboard-response","90","203463","0.0-6.0-0.12","505","","","","","pre trial waiting period","null","null","","","critical","t","d","c","164","240","162.6685","237.1485","240","164","trueblood","0.02","h","164","240","240","164","162.6685","237.1485","39360","39360","38576.5967","dc","null","null","null","null","null","null","[2,3]","419.7073478265692","442.0789069869011","513.4397595577584"
"","canvas-keyboard-response","91","203477","0.0-6.0-1.12","505","","","","","clear_screen","null","null","","","critical","t","d","c","164","240","162.6685","237.1485","240","164","trueblood","0.02","h","164","240","240","164","162.6685","237.1485","39360","39360","38576.5967","dc","null","null","null","null","null","null","[2,3]","419.7073478265692","442.0789069869011","513.4397595577584"
"","canvas-keyboard-response","92","203985","0.0-6.0-2.12","505","","","","","rectangles no change","null","null","","","critical","t","d","c","164","240","162.6685","237.1485","240","164","trueblood","0.02","h","164","240","240","164","162.6685","237.1485","39360","39360","38576.5967","dc","null","null","null","null","null","null","[2,3]","419.7073478265692","442.0789069869011","513.4397595577584"
"","canvas-keyboard-response","93","205321","0.0-6.0-3.12","505","","","","","rectangles with change","null","null","","","critical","t","d","c","164","240","162.6685","237.1485","240","164","trueblood","0.02","h","164","240","240","164","162.6685","237.1485","39360","39360","38576.5967","dc","null","null","null","null","null","null","[2,3]","419.7073478265692","442.0789069869011","513.4397595577584"
"","canvas-keyboard-response","94","205341","0.0-6.0-4.12","505","","","","","clear_screen","null","null","","","critical","t","d","c","164","240","162.6685","237.1485","240","164","trueblood","0.02","h","164","240","240","164","162.6685","237.1485","39360","39360","38576.5967","dc","null","null","null","null","null","null","[2,3]","419.7073478265692","442.0789069869011","513.4397595577584"
"","canvas-keyboard-response","95","206387","0.0-6.0-5.12","505","","","","","make choice","1041","3","","","critical","t","d","c","164","240","162.6685","237.1485","240","164","trueblood","0.02","h","164","240","240","164","162.6685","237.1485","39360","39360","38576.5967","dc","null","null","null","null","null","null","[2,3]","","",""
"","canvas-keyboard-response","96","206404","0.0-6.0-6.12","505","","","","","clear_screen","null","null","","","critical","t","d","c","164","240","162.6685","237.1485","240","164","trueblood","0.02","h","164","240","240","164","162.6685","237.1485","39360","39360","38576.5967","dc","null","null","null","null","null","null","[2,3]","","",""
"","canvas-keyboard-response","97","206606","0.0-6.0-0.13","505","","","","","pre trial waiting period","null","null","","","catch","l","sw","sh","265","220","167","195","185","157","trueblood","null","null","null","null","null","null","null","null","null","null","null","","180","200","260","200","36000","52000","[1,2]","479.201782462301","479.1957127253515","502.9245094980918"
"","canvas-keyboard-response","98","206628","0.0-6.0-1.13","505","","","","","clear_screen","null","null","","","catch","l","sw","sh","265","220","167","195","185","157","trueblood","null","null","null","null","null","null","null","null","null","null","null","","180","200","260","200","36000","52000","[1,2]","479.201782462301","479.1957127253515","502.9245094980918"
"","canvas-keyboard-response","99","207134","0.0-6.0-2.13","505","","","","","rectangles no change","null","null","","","catch","l","sw","sh","265","220","167","195","185","157","trueblood","null","null","null","null","null","null","null","null","null","null","null","","180","200","260","200","36000","52000","[1,2]","479.201782462301","479.1957127253515","502.9245094980918"
"","canvas-keyboard-response","100","208472","0.0-6.0-3.13","505","","","","","rectangles with change","null","null","","","catch","l","sw","sh","265","220","167","195","185","157","trueblood","null","null","null","null","null","null","null","null","null","null","null","","180","200","260","200","36000","52000","[1,2]","479.201782462301","479.1957127253515","502.9245094980918"
"","canvas-keyboard-response","101","208491","0.0-6.0-4.13","505","","","","","clear_screen","null","null","","","catch","l","sw","sh","265","220","167","195","185","157","trueblood","null","null","null","null","null","null","null","null","null","null","null","","180","200","260","200","36000","52000","[1,2]","479.201782462301","479.1957127253515","502.9245094980918"
"","canvas-keyboard-response","102","209747","0.0-6.0-5.13","505","","","","","make choice","1250","1","","","catch","l","sw","sh","265","220","167","195","185","157","trueblood","null","null","null","null","null","null","null","null","null","null","null","","180","200","260","200","36000","52000","[1,2]","","",""
"","canvas-keyboard-response","103","209766","0.0-6.0-6.13","505","","","","","clear_screen","null","null","","","catch","l","sw","sh","265","220","167","195","185","157","trueblood","null","null","null","null","null","null","null","null","null","null","null","","180","200","260","200","36000","52000","[1,2]","","",""
"","canvas-keyboard-response","104","209968","0.0-6.0-0.14","505","","","","","pre trial waiting period","null","null","","","catch","l","sw","sh","255","164","146","162","175","160","spektor","null","null","null","null","null","null","null","null","null","null","null","","180","200","260","200","36000","52000","[1,3]","539.932452563367","231.83715634320245","504.7515725327563"
"","canvas-keyboard-response","105","209992","0.0-6.0-1.14","505","","","","","clear_screen","null","null","","","catch","l","sw","sh","255","164","146","162","175","160","spektor","null","null","null","null","null","null","null","null","null","null","null","","180","200","260","200","36000","52000","[1,3]","539.932452563367","231.83715634320245","504.7515725327563"
"","canvas-keyboard-response","106","210500","0.0-6.0-2.14","505","","","","","rectangles no change","null","null","","","catch","l","sw","sh","255","164","146","162","175","160","spektor","null","null","null","null","null","null","null","null","null","null","null","","180","200","260","200","36000","52000","[1,3]","539.932452563367","231.83715634320245","504.7515725327563"
"","canvas-keyboard-response","107","211839","0.0-6.0-3.14","505","","","","","rectangles with change","null","null","","","catch","l","sw","sh","255","164","146","162","175","160","spektor","null","null","null","null","null","null","null","null","null","null","null","","180","200","260","200","36000","52000","[1,3]","539.932452563367","231.83715634320245","504.7515725327563"
"","canvas-keyboard-response","108","211857","0.0-6.0-4.14","505","","","","","clear_screen","null","null","","","catch","l","sw","sh","255","164","146","162","175","160","spektor","null","null","null","null","null","null","null","null","null","null","null","","180","200","260","200","36000","52000","[1,3]","539.932452563367","231.83715634320245","504.7515725327563"
"","canvas-keyboard-response","109","212611","0.0-6.0-5.14","505","","","","","make choice","748","1","","","catch","l","sw","sh","255","164","146","162","175","160","spektor","null","null","null","null","null","null","null","null","null","null","null","","180","200","260","200","36000","52000","[1,3]","","",""
"","canvas-keyboard-response","110","212630","0.0-6.0-6.14","505","","","","","clear_screen","null","null","","","catch","l","sw","sh","255","164","146","162","175","160","spektor","null","null","null","null","null","null","null","null","null","null","null","","180","200","260","200","36000","52000","[1,3]","","",""
"","canvas-keyboard-response","111","212830","0.0-6.0-0.15","505","","","","","pre trial waiting period","null","null","","","critical","d","t","c","240","164","240","164","164","240","spektor","0","w","240","164","164","240","240","164","39360","39360","39360","td","null","null","null","null","null","null","[2,1]","532.3069930122211","185.1199594430478","463.25194176534154"
"","canvas-keyboard-response","112","212850","0.0-6.0-1.15","505","","","","","clear_screen","null","null","","","critical","d","t","c","240","164","240","164","164","240","spektor","0","w","240","164","164","240","240","164","39360","39360","39360","td","null","null","null","null","null","null","[2,1]","532.3069930122211","185.1199594430478","463.25194176534154"
"","canvas-keyboard-response","113","213353","0.0-6.0-2.15","505","","","","","rectangles no change","null","null","","","critical","d","t","c","240","164","240","164","164","240","spektor","0","w","240","164","164","240","240","164","39360","39360","39360","td","null","null","null","null","null","null","[2,1]","532.3069930122211","185.1199594430478","463.25194176534154"
"","canvas-keyboard-response","114","214688","0.0-6.0-3.15","505","","","","","rectangles with change","null","null","","","critical","d","t","c","240","164","240","164","164","240","spektor","0","w","240","164","164","240","240","164","39360","39360","39360","td","null","null","null","null","null","null","[2,1]","532.3069930122211","185.1199594430478","463.25194176534154"
"","canvas-keyboard-response","115","214707","0.0-6.0-4.15","505","","","","","clear_screen","null","null","","","critical","d","t","c","240","164","240","164","164","240","spektor","0","w","240","164","164","240","240","164","39360","39360","39360","td","null","null","null","null","null","null","[2,1]","532.3069930122211","185.1199594430478","463.25194176534154"
"","canvas-keyboard-response","116","217707","0.0-6.0-5.15","505","","","","","make choice","2991","1","","","critical","d","t","c","240","164","240","164","164","240","spektor","0","w","240","164","164","240","240","164","39360","39360","39360","td","null","null","null","null","null","null","[2,1]","","",""
"","canvas-keyboard-response","117","217726","0.0-6.0-6.15","505","","","","","clear_screen","null","null","","","critical","d","t","c","240","164","240","164","164","240","spektor","0","w","240","164","164","240","240","164","39360","39360","39360","td","null","null","null","null","null","null","[2,1]","","",""
"","canvas-keyboard-response","118","217928","0.0-6.0-0.16","505","","","","","pre trial waiting period","null","null","","","catch","l","sh","sw","227","262","228","219","208","180","spektor","null","null","null","null","null","null","null","null","null","null","null","","180","200","260","200","36000","52000","[1,2]","448.3855860271947","144.85705828895124","501.1015078911837"
"","canvas-keyboard-response","119","217953","0.0-6.0-1.16","505","","","","","clear_screen","null","null","","","catch","l","sh","sw","227","262","228","219","208","180","spektor","null","null","null","null","null","null","null","null","null","null","null","","180","200","260","200","36000","52000","[1,2]","448.3855860271947","144.85705828895124","501.1015078911837"
"","canvas-keyboard-response","120","218462","0.0-6.0-2.16","505","","","","","rectangles no change","null","null","","","catch","l","sh","sw","227","262","228","219","208","180","spektor","null","null","null","null","null","null","null","null","null","null","null","","180","200","260","200","36000","52000","[1,2]","448.3855860271947","144.85705828895124","501.1015078911837"
"","canvas-keyboard-response","121","219801","0.0-6.0-3.16","505","","","","","rectangles with change","null","null","","","catch","l","sh","sw","227","262","228","219","208","180","spektor","null","null","null","null","null","null","null","null","null","null","null","","180","200","260","200","36000","52000","[1,2]","448.3855860271947","144.85705828895124","501.1015078911837"
"","canvas-keyboard-response","122","219821","0.0-6.0-4.16","505","","","","","clear_screen","null","null","","","catch","l","sh","sw","227","262","228","219","208","180","spektor","null","null","null","null","null","null","null","null","null","null","null","","180","200","260","200","36000","52000","[1,2]","448.3855860271947","144.85705828895124","501.1015078911837"
"","canvas-keyboard-response","123","220771","0.0-6.0-5.16","505","","","","","make choice","943","1","","","catch","l","sh","sw","227","262","228","219","208","180","spektor","null","null","null","null","null","null","null","null","null","null","null","","180","200","260","200","36000","52000","[1,2]","","",""
"","canvas-keyboard-response","124","220790","0.0-6.0-6.16","505","","","","","clear_screen","null","null","","","catch","l","sh","sw","227","262","228","219","208","180","spektor","null","null","null","null","null","null","null","null","null","null","null","","180","200","260","200","36000","52000","[1,2]","","",""
"","canvas-keyboard-response","125","220991","0.0-6.0-0.17","505","","","","","pre trial waiting period","null","null","","","critical","d","c","t","232.8713","160.6713","164","240","240","164","trueblood","0.05","w","240","164","164","240","232.8713","160.6713","39360","39360","37415.7294","td","null","null","null","null","null","null","[3,1]","513.4127707724572","437.55575018972434","485.1868631700781"
"","canvas-keyboard-response","126","221013","0.0-6.0-1.17","505","","","","","clear_screen","null","null","","","critical","d","c","t","232.8713","160.6713","164","240","240","164","trueblood","0.05","w","240","164","164","240","232.8713","160.6713","39360","39360","37415.7294","td","null","null","null","null","null","null","[3,1]","513.4127707724572","437.55575018972434","485.1868631700781"
"","canvas-keyboard-response","127","221520","0.0-6.0-2.17","505","","","","","rectangles no change","null","null","","","critical","d","c","t","232.8713","160.6713","164","240","240","164","trueblood","0.05","w","240","164","164","240","232.8713","160.6713","39360","39360","37415.7294","td","null","null","null","null","null","null","[3,1]","513.4127707724572","437.55575018972434","485.1868631700781"
"","canvas-keyboard-response","128","222858","0.0-6.0-3.17","505","","","","","rectangles with change","null","null","","","critical","d","c","t","232.8713","160.6713","164","240","240","164","trueblood","0.05","w","240","164","164","240","232.8713","160.6713","39360","39360","37415.7294","td","null","null","null","null","null","null","[3,1]","513.4127707724572","437.55575018972434","485.1868631700781"
"","canvas-keyboard-response","129","222871","0.0-6.0-4.17","505","","","","","clear_screen","null","null","","","critical","d","c","t","232.8713","160.6713","164","240","240","164","trueblood","0.05","w","240","164","164","240","232.8713","160.6713","39360","39360","37415.7294","td","null","null","null","null","null","null","[3,1]","513.4127707724572","437.55575018972434","485.1868631700781"
"","canvas-keyboard-response","130","224251","0.0-6.0-5.17","505","","","","","make choice","1365","3","","","critical","d","c","t","232.8713","160.6713","164","240","240","164","trueblood","0.05","w","240","164","164","240","232.8713","160.6713","39360","39360","37415.7294","td","null","null","null","null","null","null","[3,1]","","",""
"","canvas-keyboard-response","131","224269","0.0-6.0-6.17","505","","","","","clear_screen","null","null","","","critical","d","c","t","232.8713","160.6713","164","240","240","164","trueblood","0.05","w","240","164","164","240","232.8713","160.6713","39360","39360","37415.7294","td","null","null","null","null","null","null","[3,1]","","",""
"","canvas-keyboard-response","132","224470","0.0-6.0-0.18","505","","","","","pre trial waiting period","null","null","","","catch","sh","l","sw","234","209","217","240","188","197","trueblood","null","null","null","null","null","null","null","null","null","null","null","","180","200","260","200","36000","52000","[1,2]","479.97897677964943","456.75231285792734","449.4108751393893"
"","canvas-keyboard-response","133","224489","0.0-6.0-1.18","505","","","","","clear_screen","null","null","","","catch","sh","l","sw","234","209","217","240","188","197","trueblood","null","null","null","null","null","null","null","null","null","null","null","","180","200","260","200","36000","52000","[1,2]","479.97897677964943","456.75231285792734","449.4108751393893"
"","canvas-keyboard-response","134","224998","0.0-6.0-2.18","505","","","","","rectangles no change","null","null","","","catch","sh","l","sw","234","209","217","240","188","197","trueblood","null","null","null","null","null","null","null","null","null","null","null","","180","200","260","200","36000","52000","[1,2]","479.97897677964943","456.75231285792734","449.4108751393893"
"","canvas-keyboard-response","135","226336","0.0-6.0-3.18","505","","","","","rectangles with change","null","null","","","catch","sh","l","sw","234","209","217","240","188","197","trueblood","null","null","null","null","null","null","null","null","null","null","null","","180","200","260","200","36000","52000","[1,2]","479.97897677964943","456.75231285792734","449.4108751393893"
"","canvas-keyboard-response","136","226357","0.0-6.0-4.18","505","","","","","clear_screen","null","null","","","catch","sh","l","sw","234","209","217","240","188","197","trueblood","null","null","null","null","null","null","null","null","null","null","null","","180","200","260","200","36000","52000","[1,2]","479.97897677964943","456.75231285792734","449.4108751393893"
"","canvas-keyboard-response","137","227372","0.0-6.0-5.18","505","","","","","make choice","1010","2","","","catch","sh","l","sw","234","209","217","240","188","197","trueblood","null","null","null","null","null","null","null","null","null","null","null","","180","200","260","200","36000","52000","[1,2]","","",""
"","canvas-keyboard-response","138","227391","0.0-6.0-6.18","505","","","","","clear_screen","null","null","","","catch","sh","l","sw","234","209","217","240","188","197","trueblood","null","null","null","null","null","null","null","null","null","null","null","","180","200","260","200","36000","52000","[1,2]","","",""
"","canvas-keyboard-response","139","227591","0.0-6.0-0.19","505","","","","","pre trial waiting period","null","null","","","catch","l","sw","sh","250","166","155","238","189","173","trueblood","null","null","null","null","null","null","null","null","null","null","null","","180","200","260","200","36000","52000","[1,2]","478.4249906257207","446.08051093446085","474.2614713516529"
"","canvas-keyboard-response","140","227616","0.0-6.0-1.19","505","","","","","clear_screen","null","null","","","catch","l","sw","sh","250","166","155","238","189","173","trueblood","null","null","null","null","null","null","null","null","null","null","null","","180","200","260","200","36000","52000","[1,2]","478.4249906257207","446.08051093446085","474.2614713516529"
"","canvas-keyboard-response","141","228122","0.0-6.0-2.19","505","","","","","rectangles no change","null","null","","","catch","l","sw","sh","250","166","155","238","189","173","trueblood","null","null","null","null","null","null","null","null","null","null","null","","180","200","260","200","36000","52000","[1,2]","478.4249906257207","446.08051093446085","474.2614713516529"
"","canvas-keyboard-response","142","229460","0.0-6.0-3.19","505","","","","","rectangles with change","null","null","","","catch","l","sw","sh","250","166","155","238","189","173","trueblood","null","null","null","null","null","null","null","null","null","null","null","","180","200","260","200","36000","52000","[1,2]","478.4249906257207","446.08051093446085","474.2614713516529"
"","canvas-keyboard-response","143","229480","0.0-6.0-4.19","505","","","","","clear_screen","null","null","","","catch","l","sw","sh","250","166","155","238","189","173","trueblood","null","null","null","null","null","null","null","null","null","null","null","","180","200","260","200","36000","52000","[1,2]","478.4249906257207","446.08051093446085","474.2614713516529"
"","canvas-keyboard-response","144","230411","0.0-6.0-5.19","505","","","","","make choice","925","1","","","catch","l","sw","sh","250","166","155","238","189","173","trueblood","null","null","null","null","null","null","null","null","null","null","null","","180","200","260","200","36000","52000","[1,2]","","",""
"","canvas-keyboard-response","145","230428","0.0-6.0-6.19","505","","","","","clear_screen","null","null","","","catch","l","sw","sh","250","166","155","238","189","173","trueblood","null","null","null","null","null","null","null","null","null","null","null","","180","200","260","200","36000","52000","[1,2]","","",""
"","canvas-keyboard-response","146","230629","0.0-6.0-0.20","505","","","","","pre trial waiting period","null","null","","","critical","t","c","d","240","164","164","240","237.1485","162.6685","spektor","0.02","w","240","164","164","240","237.1485","162.6685","39360","39360","38576.5967","td","null","null","null","null","null","null","[1,3]","511.7404889650359","138.5595060901718","540.6010566727875"
"","canvas-keyboard-response","147","230649","0.0-6.0-1.20","505","","","","","clear_screen","null","null","","","critical","t","c","d","240","164","164","240","237.1485","162.6685","spektor","0.02","w","240","164","164","240","237.1485","162.6685","39360","39360","38576.5967","td","null","null","null","null","null","null","[1,3]","511.7404889650359","138.5595060901718","540.6010566727875"
"","canvas-keyboard-response","148","231157","0.0-6.0-2.20","505","","","","","rectangles no change","null","null","","","critical","t","c","d","240","164","164","240","237.1485","162.6685","spektor","0.02","w","240","164","164","240","237.1485","162.6685","39360","39360","38576.5967","td","null","null","null","null","null","null","[1,3]","511.7404889650359","138.5595060901718","540.6010566727875"
"","canvas-keyboard-response","149","232490","0.0-6.0-3.20","505","","","","","rectangles with change","null","null","","","critical","t","c","d","240","164","164","240","237.1485","162.6685","spektor","0.02","w","240","164","164","240","237.1485","162.6685","39360","39360","38576.5967","td","null","null","null","null","null","null","[1,3]","511.7404889650359","138.5595060901718","540.6010566727875"
"","canvas-keyboard-response","150","232513","0.0-6.0-4.20","505","","","","","clear_screen","null","null","","","critical","t","c","d","240","164","164","240","237.1485","162.6685","spektor","0.02","w","240","164","164","240","237.1485","162.6685","39360","39360","38576.5967","td","null","null","null","null","null","null","[1,3]","511.7404889650359","138.5595060901718","540.6010566727875"
"","canvas-keyboard-response","151","234499","0.0-6.0-5.20","505","","","","","make choice","1980","1","","","critical","t","c","d","240","164","164","240","237.1485","162.6685","spektor","0.02","w","240","164","164","240","237.1485","162.6685","39360","39360","38576.5967","td","null","null","null","null","null","null","[1,3]","","",""
"","canvas-keyboard-response","152","234517","0.0-6.0-6.20","505","","","","","clear_screen","null","null","","","critical","t","c","d","240","164","164","240","237.1485","162.6685","spektor","0.02","w","240","164","164","240","237.1485","162.6685","39360","39360","38576.5967","td","null","null","null","null","null","null","[1,3]","","",""
"","canvas-keyboard-response","153","234719","0.0-6.0-0.21","505","","","","","pre trial waiting period","null","null","","","critical","t","c","d","240","164","164","240","220.0396","154.6796","spektor","0.14","w","240","164","164","240","220.0396","154.6796","39360","39360","34035.6388","tc","null","null","null","null","null","null","[1,2]","500.53473460651537","154.97316363033494","537.5663709607529"
"","canvas-keyboard-response","154","234740","0.0-6.0-1.21","505","","","","","clear_screen","null","null","","","critical","t","c","d","240","164","164","240","220.0396","154.6796","spektor","0.14","w","240","164","164","240","220.0396","154.6796","39360","39360","34035.6388","tc","null","null","null","null","null","null","[1,2]","500.53473460651537","154.97316363033494","537.5663709607529"
"","canvas-keyboard-response","155","235251","0.0-6.0-2.21","505","","","","","rectangles no change","null","null","","","critical","t","c","d","240","164","164","240","220.0396","154.6796","spektor","0.14","w","240","164","164","240","220.0396","154.6796","39360","39360","34035.6388","tc","null","null","null","null","null","null","[1,2]","500.53473460651537","154.97316363033494","537.5663709607529"
"","canvas-keyboard-response","156","236586","0.0-6.0-3.21","505","","","","","rectangles with change","null","null","","","critical","t","c","d","240","164","164","240","220.0396","154.6796","spektor","0.14","w","240","164","164","240","220.0396","154.6796","39360","39360","34035.6388","tc","null","null","null","null","null","null","[1,2]","500.53473460651537","154.97316363033494","537.5663709607529"
"","canvas-keyboard-response","157","236605","0.0-6.0-4.21","505","","","","","clear_screen","null","null","","","critical","t","c","d","240","164","164","240","220.0396","154.6796","spektor","0.14","w","240","164","164","240","220.0396","154.6796","39360","39360","34035.6388","tc","null","null","null","null","null","null","[1,2]","500.53473460651537","154.97316363033494","537.5663709607529"
"","canvas-keyboard-response","158","237883","0.0-6.0-5.21","505","","","","","make choice","1272","1","","","critical","t","c","d","240","164","164","240","220.0396","154.6796","spektor","0.14","w","240","164","164","240","220.0396","154.6796","39360","39360","34035.6388","tc","null","null","null","null","null","null","[1,2]","","",""
"","canvas-keyboard-response","159","237901","0.0-6.0-6.21","505","","","","","clear_screen","null","null","","","critical","t","c","d","240","164","164","240","220.0396","154.6796","spektor","0.14","w","240","164","164","240","220.0396","154.6796","39360","39360","34035.6388","tc","null","null","null","null","null","null","[1,2]","","",""
"","canvas-keyboard-response","160","238102","0.0-6.0-0.22","505","","","","","pre trial waiting period","null","null","","","catch","l","sw","sh","215","286","156","209","166","182","trueblood","null","null","null","null","null","null","null","null","null","null","null","","180","200","260","200","36000","52000","[1,3]","433.3715397808521","479.1335041040443","497.66788730687244"
"","canvas-keyboard-response","161","238126","0.0-6.0-1.22","505","","","","","clear_screen","null","null","","","catch","l","sw","sh","215","286","156","209","166","182","trueblood","null","null","null","null","null","null","null","null","null","null","null","","180","200","260","200","36000","52000","[1,3]","433.3715397808521","479.1335041040443","497.66788730687244"
"","canvas-keyboard-response","162","238630","0.0-6.0-2.22","505","","","","","rectangles no change","null","null","","","catch","l","sw","sh","215","286","156","209","166","182","trueblood","null","null","null","null","null","null","null","null","null","null","null","","180","200","260","200","36000","52000","[1,3]","433.3715397808521","479.1335041040443","497.66788730687244"
"","canvas-keyboard-response","163","239966","0.0-6.0-3.22","505","","","","","rectangles with change","null","null","","","catch","l","sw","sh","215","286","156","209","166","182","trueblood","null","null","null","null","null","null","null","null","null","null","null","","180","200","260","200","36000","52000","[1,3]","433.3715397808521","479.1335041040443","497.66788730687244"
"","canvas-keyboard-response","164","239980","0.0-6.0-4.22","505","","","","","clear_screen","null","null","","","catch","l","sw","sh","215","286","156","209","166","182","trueblood","null","null","null","null","null","null","null","null","null","null","null","","180","200","260","200","36000","52000","[1,3]","433.3715397808521","479.1335041040443","497.66788730687244"
"","canvas-keyboard-response","165","240580","0.0-6.0-5.22","505","","","","","make choice","592","1","","","catch","l","sw","sh","215","286","156","209","166","182","trueblood","null","null","null","null","null","null","null","null","null","null","null","","180","200","260","200","36000","52000","[1,3]","","",""
"","canvas-keyboard-response","166","240599","0.0-6.0-6.22","505","","","","","clear_screen","null","null","","","catch","l","sw","sh","215","286","156","209","166","182","trueblood","null","null","null","null","null","null","null","null","null","null","null","","180","200","260","200","36000","52000","[1,3]","","",""
"","canvas-keyboard-response","167","240801","0.0-6.0-0.23","505","","","","","pre trial waiting period","null","null","","","critical","d","t","c","232.8713","160.6713","240","164","164","240","trueblood","0.05","w","240","164","164","240","232.8713","160.6713","39360","39360","37415.7294","dc","null","null","null","null","null","null","[1,3]","475.88619519865523","498.88413685434324","459.31495978479427"
"","canvas-keyboard-response","168","240820","0.0-6.0-1.23","505","","","","","clear_screen","null","null","","","critical","d","t","c","232.8713","160.6713","240","164","164","240","trueblood","0.05","w","240","164","164","240","232.8713","160.6713","39360","39360","37415.7294","dc","null","null","null","null","null","null","[1,3]","475.88619519865523","498.88413685434324","459.31495978479427"
"","canvas-keyboard-response","169","241327","0.0-6.0-2.23","505","","","","","rectangles no change","null","null","","","critical","d","t","c","232.8713","160.6713","240","164","164","240","trueblood","0.05","w","240","164","164","240","232.8713","160.6713","39360","39360","37415.7294","dc","null","null","null","null","null","null","[1,3]","475.88619519865523","498.88413685434324","459.31495978479427"
"","canvas-keyboard-response","170","242666","0.0-6.0-3.23","505","","","","","rectangles with change","null","null","","","critical","d","t","c","232.8713","160.6713","240","164","164","240","trueblood","0.05","w","240","164","164","240","232.8713","160.6713","39360","39360","37415.7294","dc","null","null","null","null","null","null","[1,3]","475.88619519865523","498.88413685434324","459.31495978479427"
"","canvas-keyboard-response","171","242689","0.0-6.0-4.23","505","","","","","clear_screen","null","null","","","critical","d","t","c","232.8713","160.6713","240","164","164","240","trueblood","0.05","w","240","164","164","240","232.8713","160.6713","39360","39360","37415.7294","dc","null","null","null","null","null","null","[1,3]","475.88619519865523","498.88413685434324","459.31495978479427"
"","canvas-keyboard-response","172","247531","0.0-6.0-5.23","505","","","","","make choice","4838","3","","","critical","d","t","c","232.8713","160.6713","240","164","164","240","trueblood","0.05","w","240","164","164","240","232.8713","160.6713","39360","39360","37415.7294","dc","null","null","null","null","null","null","[1,3]","","",""
"","canvas-keyboard-response","173","247552","0.0-6.0-6.23","505","","","","","clear_screen","null","null","","","critical","d","t","c","232.8713","160.6713","240","164","164","240","trueblood","0.05","w","240","164","164","240","232.8713","160.6713","39360","39360","37415.7294","dc","null","null","null","null","null","null","[1,3]","","",""
"","canvas-keyboard-response","174","247754","0.0-6.0-0.24","505","","","","","pre trial waiting period","null","null","","","critical","d","t","c","160.6713","232.8713","164","240","240","164","trueblood","0.05","h","164","240","240","164","160.6713","232.8713","39360","39360","37415.7294","td","null","null","null","null","null","null","[2,1]","458.2746842143073","451.24830693623994","469.3145422253301"
"","canvas-keyboard-response","175","247773","0.0-6.0-1.24","505","","","","","clear_screen","null","null","","","critical","d","t","c","160.6713","232.8713","164","240","240","164","trueblood","0.05","h","164","240","240","164","160.6713","232.8713","39360","39360","37415.7294","td","null","null","null","null","null","null","[2,1]","458.2746842143073","451.24830693623994","469.3145422253301"
"","canvas-keyboard-response","176","248281","0.0-6.0-2.24","505","","","","","rectangles no change","null","null","","","critical","d","t","c","160.6713","232.8713","164","240","240","164","trueblood","0.05","h","164","240","240","164","160.6713","232.8713","39360","39360","37415.7294","td","null","null","null","null","null","null","[2,1]","458.2746842143073","451.24830693623994","469.3145422253301"
"","canvas-keyboard-response","177","249618","0.0-6.0-3.24","505","","","","","rectangles with change","null","null","","","critical","d","t","c","160.6713","232.8713","164","240","240","164","trueblood","0.05","h","164","240","240","164","160.6713","232.8713","39360","39360","37415.7294","td","null","null","null","null","null","null","[2,1]","458.2746842143073","451.24830693623994","469.3145422253301"
"","canvas-keyboard-response","178","249638","0.0-6.0-4.24","505","","","","","clear_screen","null","null","","","critical","d","t","c","160.6713","232.8713","164","240","240","164","trueblood","0.05","h","164","240","240","164","160.6713","232.8713","39360","39360","37415.7294","td","null","null","null","null","null","null","[2,1]","458.2746842143073","451.24830693623994","469.3145422253301"
"","canvas-keyboard-response","179","250595","0.0-6.0-5.24","505","","","","","make choice","948","2","","","critical","d","t","c","160.6713","232.8713","164","240","240","164","trueblood","0.05","h","164","240","240","164","160.6713","232.8713","39360","39360","37415.7294","td","null","null","null","null","null","null","[2,1]","","",""
"","canvas-keyboard-response","180","250613","0.0-6.0-6.24","505","","","","","clear_screen","null","null","","","critical","d","t","c","160.6713","232.8713","164","240","240","164","trueblood","0.05","h","164","240","240","164","160.6713","232.8713","39360","39360","37415.7294","td","null","null","null","null","null","null","[2,1]","","",""
"","canvas-keyboard-response","181","250814","0.0-6.0-0.25","505","","","","","pre trial waiting period","null","null","","","critical","d","c","t","158.0083","227.1683","240","164","164","240","trueblood","0.09","h","164","240","240","164","158.0083","227.1683","39360","39360","35894.4834","td","null","null","null","null","null","null","[3,1]","451.3743582518634","503.8534129843639","436.36824175176275"
"","canvas-keyboard-response","182","250831","0.0-6.0-1.25","505","","","","","clear_screen","null","null","","","critical","d","c","t","158.0083","227.1683","240","164","164","240","trueblood","0.09","h","164","240","240","164","158.0083","227.1683","39360","39360","35894.4834","td","null","null","null","null","null","null","[3,1]","451.3743582518634","503.8534129843639","436.36824175176275"
"","canvas-keyboard-response","183","251339","0.0-6.0-2.25","505","","","","","rectangles no change","null","null","","","critical","d","c","t","158.0083","227.1683","240","164","164","240","trueblood","0.09","h","164","240","240","164","158.0083","227.1683","39360","39360","35894.4834","td","null","null","null","null","null","null","[3,1]","451.3743582518634","503.8534129843639","436.36824175176275"
"","canvas-keyboard-response","184","252675","0.0-6.0-3.25","505","","","","","rectangles with change","null","null","","","critical","d","c","t","158.0083","227.1683","240","164","164","240","trueblood","0.09","h","164","240","240","164","158.0083","227.1683","39360","39360","35894.4834","td","null","null","null","null","null","null","[3,1]","451.3743582518634","503.8534129843639","436.36824175176275"
"","canvas-keyboard-response","185","252698","0.0-6.0-4.25","505","","","","","clear_screen","null","null","","","critical","d","c","t","158.0083","227.1683","240","164","164","240","trueblood","0.09","h","164","240","240","164","158.0083","227.1683","39360","39360","35894.4834","td","null","null","null","null","null","null","[3,1]","451.3743582518634","503.8534129843639","436.36824175176275"
"","canvas-keyboard-response","186","253676","0.0-6.0-5.25","505","","","","","make choice","973","3","","","critical","d","c","t","158.0083","227.1683","240","164","164","240","trueblood","0.09","h","164","240","240","164","158.0083","227.1683","39360","39360","35894.4834","td","null","null","null","null","null","null","[3,1]","","",""
"","canvas-keyboard-response","187","253693","0.0-6.0-6.25","505","","","","","clear_screen","null","null","","","critical","d","c","t","158.0083","227.1683","240","164","164","240","trueblood","0.09","h","164","240","240","164","158.0083","227.1683","39360","39360","35894.4834","td","null","null","null","null","null","null","[3,1]","","",""
"","canvas-keyboard-response","188","253894","0.0-6.0-0.26","505","","","","","pre trial waiting period","null","null","","","critical","t","c","d","240","164","164","240","240","164","trueblood","0","w","240","164","164","240","240","164","39360","39360","39360","dc","null","null","null","null","null","null","[3,2]","479.61857501762086","462.9343946494016","497.0731973567287"
"","canvas-keyboard-response","189","253913","0.0-6.0-1.26","505","","","","","clear_screen","null","null","","","critical","t","c","d","240","164","164","240","240","164","trueblood","0","w","240","164","164","240","240","164","39360","39360","39360","dc","null","null","null","null","null","null","[3,2]","479.61857501762086","462.9343946494016","497.0731973567287"
"","canvas-keyboard-response","190","254423","0.0-6.0-2.26","505","","","","","rectangles no change","null","null","","","critical","t","c","d","240","164","164","240","240","164","trueblood","0","w","240","164","164","240","240","164","39360","39360","39360","dc","null","null","null","null","null","null","[3,2]","479.61857501762086","462.9343946494016","497.0731973567287"
"","canvas-keyboard-response","191","255759","0.0-6.0-3.26","505","","","","","rectangles with change","null","null","","","critical","t","c","d","240","164","164","240","240","164","trueblood","0","w","240","164","164","240","240","164","39360","39360","39360","dc","null","null","null","null","null","null","[3,2]","479.61857501762086","462.9343946494016","497.0731973567287"
"","canvas-keyboard-response","192","255779","0.0-6.0-4.26","505","","","","","clear_screen","null","null","","","critical","t","c","d","240","164","164","240","240","164","trueblood","0","w","240","164","164","240","240","164","39360","39360","39360","dc","null","null","null","null","null","null","[3,2]","479.61857501762086","462.9343946494016","497.0731973567287"
"","canvas-keyboard-response","193","258019","0.0-6.0-5.26","505","","","","","make choice","2237","3","","","critical","t","c","d","240","164","164","240","240","164","trueblood","0","w","240","164","164","240","240","164","39360","39360","39360","dc","null","null","null","null","null","null","[3,2]","","",""
"","canvas-keyboard-response","194","258036","0.0-6.0-6.26","505","","","","","clear_screen","null","null","","","critical","t","c","d","240","164","164","240","240","164","trueblood","0","w","240","164","164","240","240","164","39360","39360","39360","dc","null","null","null","null","null","null","[3,2]","","",""
"","canvas-keyboard-response","195","258237","0.0-6.0-0.27","505","","","","","pre trial waiting period","null","null","","","catch","l","sh","sw","239","295","226","169","160","216","spektor","null","null","null","null","null","null","null","null","null","null","null","","180","200","260","200","36000","52000","[1,3]","437.0267446858173","184.02974547772143","516.4437380759265"
"","canvas-keyboard-response","196","258256","0.0-6.0-1.27","505","","","","","clear_screen","null","null","","","catch","l","sh","sw","239","295","226","169","160","216","spektor","null","null","null","null","null","null","null","null","null","null","null","","180","200","260","200","36000","52000","[1,3]","437.0267446858173","184.02974547772143","516.4437380759265"
"","canvas-keyboard-response","197","258763","0.0-6.0-2.27","505","","","","","rectangles no change","null","null","","","catch","l","sh","sw","239","295","226","169","160","216","spektor","null","null","null","null","null","null","null","null","null","null","null","","180","200","260","200","36000","52000","[1,3]","437.0267446858173","184.02974547772143","516.4437380759265"
"","canvas-keyboard-response","198","260102","0.0-6.0-3.27","505","","","","","rectangles with change","null","null","","","catch","l","sh","sw","239","295","226","169","160","216","spektor","null","null","null","null","null","null","null","null","null","null","null","","180","200","260","200","36000","52000","[1,3]","437.0267446858173","184.02974547772143","516.4437380759265"
"","canvas-keyboard-response","199","260118","0.0-6.0-4.27","505","","","","","clear_screen","null","null","","","catch","l","sh","sw","239","295","226","169","160","216","spektor","null","null","null","null","null","null","null","null","null","null","null","","180","200","260","200","36000","52000","[1,3]","437.0267446858173","184.02974547772143","516.4437380759265"
"","canvas-keyboard-response","200","261355","0.0-6.0-5.27","505","","","","","make choice","1230","1","","","catch","l","sh","sw","239","295","226","169","160","216","spektor","null","null","null","null","null","null","null","null","null","null","null","","180","200","260","200","36000","52000","[1,3]","","",""
"","canvas-keyboard-response","201","261375","0.0-6.0-6.27","505","","","","","clear_screen","null","null","","","catch","l","sh","sw","239","295","226","169","160","216","spektor","null","null","null","null","null","null","null","null","null","null","null","","180","200","260","200","36000","52000","[1,3]","","",""
"","canvas-keyboard-response","202","261577","0.0-6.0-0.28","505","","","","","pre trial waiting period","null","null","","","critical","t","d","c","164","240","158.0083","227.1683","240","164","spektor","0.09","h","164","240","240","164","158.0083","227.1683","39360","39360","35894.4834","td","null","null","null","null","null","null","[1,2]","465.1532209563157","126.55282390645098","505.0750409692725"
"","canvas-keyboard-response","203","261596","0.0-6.0-1.28","505","","","","","clear_screen","null","null","","","critical","t","d","c","164","240","158.0083","227.1683","240","164","spektor","0.09","h","164","240","240","164","158.0083","227.1683","39360","39360","35894.4834","td","null","null","null","null","null","null","[1,2]","465.1532209563157","126.55282390645098","505.0750409692725"
"","canvas-keyboard-response","204","262107","0.0-6.0-2.28","505","","","","","rectangles no change","null","null","","","critical","t","d","c","164","240","158.0083","227.1683","240","164","spektor","0.09","h","164","240","240","164","158.0083","227.1683","39360","39360","35894.4834","td","null","null","null","null","null","null","[1,2]","465.1532209563157","126.55282390645098","505.0750409692725"
"","canvas-keyboard-response","205","263441","0.0-6.0-3.28","505","","","","","rectangles with change","null","null","","","critical","t","d","c","164","240","158.0083","227.1683","240","164","spektor","0.09","h","164","240","240","164","158.0083","227.1683","39360","39360","35894.4834","td","null","null","null","null","null","null","[1,2]","465.1532209563157","126.55282390645098","505.0750409692725"
"","canvas-keyboard-response","206","263460","0.0-6.0-4.28","505","","","","","clear_screen","null","null","","","critical","t","d","c","164","240","158.0083","227.1683","240","164","spektor","0.09","h","164","240","240","164","158.0083","227.1683","39360","39360","35894.4834","td","null","null","null","null","null","null","[1,2]","465.1532209563157","126.55282390645098","505.0750409692725"
"","canvas-keyboard-response","207","264364","0.0-6.0-5.28","505","","","","","make choice","898","1","","","critical","t","d","c","164","240","158.0083","227.1683","240","164","spektor","0.09","h","164","240","240","164","158.0083","227.1683","39360","39360","35894.4834","td","null","null","null","null","null","null","[1,2]","","",""
"","canvas-keyboard-response","208","264381","0.0-6.0-6.28","505","","","","","clear_screen","null","null","","","critical","t","d","c","164","240","158.0083","227.1683","240","164","spektor","0.09","h","164","240","240","164","158.0083","227.1683","39360","39360","35894.4834","td","null","null","null","null","null","null","[1,2]","","",""
"","canvas-keyboard-response","209","264581","0.0-6.0-0.29","505","","","","","pre trial waiting period","null","null","","","catch","l","sw","sh","176","295","197","215","183","156","trueblood","null","null","null","null","null","null","null","null","null","null","null","","180","200","260","200","36000","52000","[1,3]","421.2298384978605","483.20908786575615","520.0309576038737"
"","canvas-keyboard-response","210","264600","0.0-6.0-1.29","505","","","","","clear_screen","null","null","","","catch","l","sw","sh","176","295","197","215","183","156","trueblood","null","null","null","null","null","null","null","null","null","null","null","","180","200","260","200","36000","52000","[1,3]","421.2298384978605","483.20908786575615","520.0309576038737"
"","canvas-keyboard-response","211","265107","0.0-6.0-2.29","505","","","","","rectangles no change","null","null","","","catch","l","sw","sh","176","295","197","215","183","156","trueblood","null","null","null","null","null","null","null","null","null","null","null","","180","200","260","200","36000","52000","[1,3]","421.2298384978605","483.20908786575615","520.0309576038737"
"","canvas-keyboard-response","212","266443","0.0-6.0-3.29","505","","","","","rectangles with change","null","null","","","catch","l","sw","sh","176","295","197","215","183","156","trueblood","null","null","null","null","null","null","null","null","null","null","null","","180","200","260","200","36000","52000","[1,3]","421.2298384978605","483.20908786575615","520.0309576038737"
"","canvas-keyboard-response","213","266463","0.0-6.0-4.29","505","","","","","clear_screen","null","null","","","catch","l","sw","sh","176","295","197","215","183","156","trueblood","null","null","null","null","null","null","null","null","null","null","null","","180","200","260","200","36000","52000","[1,3]","421.2298384978605","483.20908786575615","520.0309576038737"
"","canvas-keyboard-response","214","267323","0.0-6.0-5.29","505","","","","","make choice","855","1","","","catch","l","sw","sh","176","295","197","215","183","156","trueblood","null","null","null","null","null","null","null","null","null","null","null","","180","200","260","200","36000","52000","[1,3]","","",""
"","canvas-keyboard-response","215","267344","0.0-6.0-6.29","505","","","","","clear_screen","null","null","","","catch","l","sw","sh","176","295","197","215","183","156","trueblood","null","null","null","null","null","null","null","null","null","null","null","","180","200","260","200","36000","52000","[1,3]","","",""
"","canvas-keyboard-response","216","267547","0.0-6.0-0.30","505","","","","","pre trial waiting period","null","null","","","critical","d","t","c","232.8713","160.6713","240","164","164","240","spektor","0.05","w","240","164","164","240","232.8713","160.6713","39360","39360","37415.7294","tc","null","null","null","null","null","null","[2,3]","520.6670011144805","176.8371735662464","481.8710564910685"
"","canvas-keyboard-response","217","267565","0.0-6.0-1.30","505","","","","","clear_screen","null","null","","","critical","d","t","c","232.8713","160.6713","240","164","164","240","spektor","0.05","w","240","164","164","240","232.8713","160.6713","39360","39360","37415.7294","tc","null","null","null","null","null","null","[2,3]","520.6670011144805","176.8371735662464","481.8710564910685"
"","canvas-keyboard-response","218","268071","0.0-6.0-2.30","505","","","","","rectangles no change","null","null","","","critical","d","t","c","232.8713","160.6713","240","164","164","240","spektor","0.05","w","240","164","164","240","232.8713","160.6713","39360","39360","37415.7294","tc","null","null","null","null","null","null","[2,3]","520.6670011144805","176.8371735662464","481.8710564910685"
"","canvas-keyboard-response","219","269407","0.0-6.0-3.30","505","","","","","rectangles with change","null","null","","","critical","d","t","c","232.8713","160.6713","240","164","164","240","spektor","0.05","w","240","164","164","240","232.8713","160.6713","39360","39360","37415.7294","tc","null","null","null","null","null","null","[2,3]","520.6670011144805","176.8371735662464","481.8710564910685"
"","canvas-keyboard-response","220","269428","0.0-6.0-4.30","505","","","","","clear_screen","null","null","","","critical","d","t","c","232.8713","160.6713","240","164","164","240","spektor","0.05","w","240","164","164","240","232.8713","160.6713","39360","39360","37415.7294","tc","null","null","null","null","null","null","[2,3]","520.6670011144805","176.8371735662464","481.8710564910685"
"","canvas-keyboard-response","221","270467","0.0-6.0-5.30","505","","","","","make choice","1034","2","","","critical","d","t","c","232.8713","160.6713","240","164","164","240","spektor","0.05","w","240","164","164","240","232.8713","160.6713","39360","39360","37415.7294","tc","null","null","null","null","null","null","[2,3]","","",""
"","canvas-keyboard-response","222","270488","0.0-6.0-6.30","505","","","","","clear_screen","null","null","","","critical","d","t","c","232.8713","160.6713","240","164","164","240","spektor","0.05","w","240","164","164","240","232.8713","160.6713","39360","39360","37415.7294","tc","null","null","null","null","null","null","[2,3]","","",""
"","canvas-keyboard-response","223","270688","0.0-6.0-0.31","505","","","","","pre trial waiting period","null","null","","","critical","d","c","t","227.1683","158.0083","164","240","240","164","spektor","0.09","w","240","164","164","240","227.1683","158.0083","39360","39360","35894.4834","td","null","null","null","null","null","null","[3,1]","511.5354437060193","148.01968344515385","530.8883816228829"
"","canvas-keyboard-response","224","270711","0.0-6.0-1.31","505","","","","","clear_screen","null","null","","","critical","d","c","t","227.1683","158.0083","164","240","240","164","spektor","0.09","w","240","164","164","240","227.1683","158.0083","39360","39360","35894.4834","td","null","null","null","null","null","null","[3,1]","511.5354437060193","148.01968344515385","530.8883816228829"
"","canvas-keyboard-response","225","271219","0.0-6.0-2.31","505","","","","","rectangles no change","null","null","","","critical","d","c","t","227.1683","158.0083","164","240","240","164","spektor","0.09","w","240","164","164","240","227.1683","158.0083","39360","39360","35894.4834","td","null","null","null","null","null","null","[3,1]","511.5354437060193","148.01968344515385","530.8883816228829"
"","canvas-keyboard-response","226","272556","0.0-6.0-3.31","505","","","","","rectangles with change","null","null","","","critical","d","c","t","227.1683","158.0083","164","240","240","164","spektor","0.09","w","240","164","164","240","227.1683","158.0083","39360","39360","35894.4834","td","null","null","null","null","null","null","[3,1]","511.5354437060193","148.01968344515385","530.8883816228829"
"","canvas-keyboard-response","227","272575","0.0-6.0-4.31","505","","","","","clear_screen","null","null","","","critical","d","c","t","227.1683","158.0083","164","240","240","164","spektor","0.09","w","240","164","164","240","227.1683","158.0083","39360","39360","35894.4834","td","null","null","null","null","null","null","[3,1]","511.5354437060193","148.01968344515385","530.8883816228829"
"","canvas-keyboard-response","228","273185","0.0-6.0-5.31","505","","","","","make choice","600","3","","","critical","d","c","t","227.1683","158.0083","164","240","240","164","spektor","0.09","w","240","164","164","240","227.1683","158.0083","39360","39360","35894.4834","td","null","null","null","null","null","null","[3,1]","","",""
"","canvas-keyboard-response","229","273202","0.0-6.0-6.31","505","","","","","clear_screen","null","null","","","critical","d","c","t","227.1683","158.0083","164","240","240","164","spektor","0.09","w","240","164","164","240","227.1683","158.0083","39360","39360","35894.4834","td","null","null","null","null","null","null","[3,1]","","",""
"","canvas-keyboard-response","230","273403","0.0-6.0-0.32","505","","","","","pre trial waiting period","null","null","","","catch","sw","sh","l","180","200","236","200","173","295","trueblood","null","null","null","null","null","null","null","null","null","null","null","","180","200","260","200","36000","52000","[2,3]","473.66692876145635","456.1608233663217","418.50390614221294"
"","canvas-keyboard-response","231","273422","0.0-6.0-1.32","505","","","","","clear_screen","null","null","","","catch","sw","sh","l","180","200","236","200","173","295","trueblood","null","null","null","null","null","null","null","null","null","null","null","","180","200","260","200","36000","52000","[2,3]","473.66692876145635","456.1608233663217","418.50390614221294"
"","canvas-keyboard-response","232","273928","0.0-6.0-2.32","505","","","","","rectangles no change","null","null","","","catch","sw","sh","l","180","200","236","200","173","295","trueblood","null","null","null","null","null","null","null","null","null","null","null","","180","200","260","200","36000","52000","[2,3]","473.66692876145635","456.1608233663217","418.50390614221294"
"","canvas-keyboard-response","233","275262","0.0-6.0-3.32","505","","","","","rectangles with change","null","null","","","catch","sw","sh","l","180","200","236","200","173","295","trueblood","null","null","null","null","null","null","null","null","null","null","null","","180","200","260","200","36000","52000","[2,3]","473.66692876145635","456.1608233663217","418.50390614221294"
"","canvas-keyboard-response","234","275280","0.0-6.0-4.32","505","","","","","clear_screen","null","null","","","catch","sw","sh","l","180","200","236","200","173","295","trueblood","null","null","null","null","null","null","null","null","null","null","null","","180","200","260","200","36000","52000","[2,3]","473.66692876145635","456.1608233663217","418.50390614221294"
"","canvas-keyboard-response","235","277547","0.0-6.0-5.32","505","","","","","make choice","2261","3","","","catch","sw","sh","l","180","200","236","200","173","295","trueblood","null","null","null","null","null","null","null","null","null","null","null","","180","200","260","200","36000","52000","[2,3]","","",""
"","canvas-keyboard-response","236","277565","0.0-6.0-6.32","505","","","","","clear_screen","null","null","","","catch","sw","sh","l","180","200","236","200","173","295","trueblood","null","null","null","null","null","null","null","null","null","null","null","","180","200","260","200","36000","52000","[2,3]","","",""
"","canvas-keyboard-response","237","277767","0.0-6.0-0.33","505","","","","","pre trial waiting period","null","null","","","critical","t","c","d","240","164","164","240","237.1485","162.6685","trueblood","0.02","w","240","164","164","240","237.1485","162.6685","39360","39360","38576.5967","tc","null","null","null","null","null","null","[1,2]","494.9285493000182","442.6043073715028","479.3286612517043"
"","canvas-keyboard-response","238","277787","0.0-6.0-1.33","505","","","","","clear_screen","null","null","","","critical","t","c","d","240","164","164","240","237.1485","162.6685","trueblood","0.02","w","240","164","164","240","237.1485","162.6685","39360","39360","38576.5967","tc","null","null","null","null","null","null","[1,2]","494.9285493000182","442.6043073715028","479.3286612517043"
"","canvas-keyboard-response","239","278292","0.0-6.0-2.33","505","","","","","rectangles no change","null","null","","","critical","t","c","d","240","164","164","240","237.1485","162.6685","trueblood","0.02","w","240","164","164","240","237.1485","162.6685","39360","39360","38576.5967","tc","null","null","null","null","null","null","[1,2]","494.9285493000182","442.6043073715028","479.3286612517043"
"","canvas-keyboard-response","240","279630","0.0-6.0-3.33","505","","","","","rectangles with change","null","null","","","critical","t","c","d","240","164","164","240","237.1485","162.6685","trueblood","0.02","w","240","164","164","240","237.1485","162.6685","39360","39360","38576.5967","tc","null","null","null","null","null","null","[1,2]","494.9285493000182","442.6043073715028","479.3286612517043"
"","canvas-keyboard-response","241","279648","0.0-6.0-4.33","505","","","","","clear_screen","null","null","","","critical","t","c","d","240","164","164","240","237.1485","162.6685","trueblood","0.02","w","240","164","164","240","237.1485","162.6685","39360","39360","38576.5967","tc","null","null","null","null","null","null","[1,2]","494.9285493000182","442.6043073715028","479.3286612517043"
"","canvas-keyboard-response","242","281091","0.0-6.0-5.33","505","","","","","make choice","1439","1","","","critical","t","c","d","240","164","164","240","237.1485","162.6685","trueblood","0.02","w","240","164","164","240","237.1485","162.6685","39360","39360","38576.5967","tc","null","null","null","null","null","null","[1,2]","","",""
"","canvas-keyboard-response","243","281112","0.0-6.0-6.33","505","","","","","clear_screen","null","null","","","critical","t","c","d","240","164","164","240","237.1485","162.6685","trueblood","0.02","w","240","164","164","240","237.1485","162.6685","39360","39360","38576.5967","tc","null","null","null","null","null","null","[1,2]","","",""
"","canvas-keyboard-response","244","281314","0.0-6.0-0.34","505","","","","","pre trial waiting period","null","null","","","critical","t","d","c","240","164","240","164","164","240","spektor","0","w","240","164","164","240","240","164","39360","39360","39360","dc","null","null","null","null","null","null","[2,3]","541.268920679607","207.1361749102907","465.42850705824156"
"","canvas-keyboard-response","245","281334","0.0-6.0-1.34","505","","","","","clear_screen","null","null","","","critical","t","d","c","240","164","240","164","164","240","spektor","0","w","240","164","164","240","240","164","39360","39360","39360","dc","null","null","null","null","null","null","[2,3]","541.268920679607","207.1361749102907","465.42850705824156"
"","canvas-keyboard-response","246","281840","0.0-6.0-2.34","505","","","","","rectangles no change","null","null","","","critical","t","d","c","240","164","240","164","164","240","spektor","0","w","240","164","164","240","240","164","39360","39360","39360","dc","null","null","null","null","null","null","[2,3]","541.268920679607","207.1361749102907","465.42850705824156"
"","canvas-keyboard-response","247","283180","0.0-6.0-3.34","505","","","","","rectangles with change","null","null","","","critical","t","d","c","240","164","240","164","164","240","spektor","0","w","240","164","164","240","240","164","39360","39360","39360","dc","null","null","null","null","null","null","[2,3]","541.268920679607","207.1361749102907","465.42850705824156"
"","canvas-keyboard-response","248","283200","0.0-6.0-4.34","505","","","","","clear_screen","null","null","","","critical","t","d","c","240","164","240","164","164","240","spektor","0","w","240","164","164","240","240","164","39360","39360","39360","dc","null","null","null","null","null","null","[2,3]","541.268920679607","207.1361749102907","465.42850705824156"
"","canvas-keyboard-response","249","283739","0.0-6.0-5.34","505","","","","","make choice","533","2","","","critical","t","d","c","240","164","240","164","164","240","spektor","0","w","240","164","164","240","240","164","39360","39360","39360","dc","null","null","null","null","null","null","[2,3]","","",""
"","canvas-keyboard-response","250","283758","0.0-6.0-6.34","505","","","","","clear_screen","null","null","","","critical","t","d","c","240","164","240","164","164","240","spektor","0","w","240","164","164","240","240","164","39360","39360","39360","dc","null","null","null","null","null","null","[2,3]","","",""
"","canvas-keyboard-response","251","283959","0.0-6.0-0.35","505","","","","","pre trial waiting period","null","null","","","critical","t","d","c","164","240","160.6713","232.8713","240","164","trueblood","0.05","h","164","240","240","164","160.6713","232.8713","39360","39360","37415.7294","dc","null","null","null","null","null","null","[2,3]","467.1965472077291","462.94803799977495","472.9530388600562"
"","canvas-keyboard-response","252","283981","0.0-6.0-1.35","505","","","","","clear_screen","null","null","","","critical","t","d","c","164","240","160.6713","232.8713","240","164","trueblood","0.05","h","164","240","240","164","160.6713","232.8713","39360","39360","37415.7294","dc","null","null","null","null","null","null","[2,3]","467.1965472077291","462.94803799977495","472.9530388600562"
"","canvas-keyboard-response","253","284488","0.0-6.0-2.35","505","","","","","rectangles no change","null","null","","","critical","t","d","c","164","240","160.6713","232.8713","240","164","trueblood","0.05","h","164","240","240","164","160.6713","232.8713","39360","39360","37415.7294","dc","null","null","null","null","null","null","[2,3]","467.1965472077291","462.94803799977495","472.9530388600562"
"","canvas-keyboard-response","254","285823","0.0-6.0-3.35","505","","","","","rectangles with change","null","null","","","critical","t","d","c","164","240","160.6713","232.8713","240","164","trueblood","0.05","h","164","240","240","164","160.6713","232.8713","39360","39360","37415.7294","dc","null","null","null","null","null","null","[2,3]","467.1965472077291","462.94803799977495","472.9530388600562"
"","canvas-keyboard-response","255","285846","0.0-6.0-4.35","505","","","","","clear_screen","null","null","","","critical","t","d","c","164","240","160.6713","232.8713","240","164","trueblood","0.05","h","164","240","240","164","160.6713","232.8713","39360","39360","37415.7294","dc","null","null","null","null","null","null","[2,3]","467.1965472077291","462.94803799977495","472.9530388600562"
"","canvas-keyboard-response","256","289412","0.0-6.0-5.35","505","","","","","make choice","3558","2","","","critical","t","d","c","164","240","160.6713","232.8713","240","164","trueblood","0.05","h","164","240","240","164","160.6713","232.8713","39360","39360","37415.7294","dc","null","null","null","null","null","null","[2,3]","","",""
"","canvas-keyboard-response","257","289429","0.0-6.0-6.35","505","","","","","clear_screen","null","null","","","critical","t","d","c","164","240","160.6713","232.8713","240","164","trueblood","0.05","h","164","240","240","164","160.6713","232.8713","39360","39360","37415.7294","dc","null","null","null","null","null","null","[2,3]","","",""
"","canvas-keyboard-response","258","289632","0.0-6.0-0.36","505","","","","","pre trial waiting period","null","null","","","critical","t","d","c","240","164","232.8713","160.6713","164","240","trueblood","0.05","w","240","164","164","240","232.8713","160.6713","39360","39360","37415.7294","tc","null","null","null","null","null","null","[1,3]","476.2776075671271","500.88658101704203","436.3674061955496"
"","canvas-keyboard-response","259","289651","0.0-6.0-1.36","505","","","","","clear_screen","null","null","","","critical","t","d","c","240","164","232.8713","160.6713","164","240","trueblood","0.05","w","240","164","164","240","232.8713","160.6713","39360","39360","37415.7294","tc","null","null","null","null","null","null","[1,3]","476.2776075671271","500.88658101704203","436.3674061955496"
"","canvas-keyboard-response","260","290157","0.0-6.0-2.36","505","","","","","rectangles no change","null","null","","","critical","t","d","c","240","164","232.8713","160.6713","164","240","trueblood","0.05","w","240","164","164","240","232.8713","160.6713","39360","39360","37415.7294","tc","null","null","null","null","null","null","[1,3]","476.2776075671271","500.88658101704203","436.3674061955496"
"","canvas-keyboard-response","261","291491","0.0-6.0-3.36","505","","","","","rectangles with change","null","null","","","critical","t","d","c","240","164","232.8713","160.6713","164","240","trueblood","0.05","w","240","164","164","240","232.8713","160.6713","39360","39360","37415.7294","tc","null","null","null","null","null","null","[1,3]","476.2776075671271","500.88658101704203","436.3674061955496"
"","canvas-keyboard-response","262","291513","0.0-6.0-4.36","505","","","","","clear_screen","null","null","","","critical","t","d","c","240","164","232.8713","160.6713","164","240","trueblood","0.05","w","240","164","164","240","232.8713","160.6713","39360","39360","37415.7294","tc","null","null","null","null","null","null","[1,3]","476.2776075671271","500.88658101704203","436.3674061955496"
"","canvas-keyboard-response","263","293499","0.0-6.0-5.36","505","","","","","make choice","1980","3","","","critical","t","d","c","240","164","232.8713","160.6713","164","240","trueblood","0.05","w","240","164","164","240","232.8713","160.6713","39360","39360","37415.7294","tc","null","null","null","null","null","null","[1,3]","","",""
"","canvas-keyboard-response","264","293516","0.0-6.0-6.36","505","","","","","clear_screen","null","null","","","critical","t","d","c","240","164","232.8713","160.6713","164","240","trueblood","0.05","w","240","164","164","240","232.8713","160.6713","39360","39360","37415.7294","tc","null","null","null","null","null","null","[1,3]","","",""
"","canvas-keyboard-response","265","293717","0.0-6.0-0.37","505","","","","","pre trial waiting period","null","null","","","critical","t","c","d","164","240","240","164","158.0083","227.1683","spektor","0.09","h","164","240","240","164","158.0083","227.1683","39360","39360","35894.4834","tc","null","null","null","null","null","null","[1,2]","484.07969013553384","170.25851531207564","466.6370186540428"
"","canvas-keyboard-response","266","293740","0.0-6.0-1.37","505","","","","","clear_screen","null","null","","","critical","t","c","d","164","240","240","164","158.0083","227.1683","spektor","0.09","h","164","240","240","164","158.0083","227.1683","39360","39360","35894.4834","tc","null","null","null","null","null","null","[1,2]","484.07969013553384","170.25851531207564","466.6370186540428"
