"success","trial_type","trial_index","time_elapsed","internal_node_id","sub_n","timeout","failed_images","failed_audio","failed_video","screen_id","rt","response","stimulus","view_history","trial","r1","r2","r3","w1","h1","w2","h2","w3","h3","display","tdd","tdo","tw","th","cw","ch","dw","dh","ta","ca","da","probe","csls","csss","clls","clss","sa","la","probe_rects","r1yloc","r2yloc","r3yloc"
"true","fullscreen","0","1907","0.0-0.0","580","","","","","","","","","","","","","","","","","","","","","","","","","","","","","","","","","","","","","","","","","",""
"true","preload","1","1923","0.0-1.0","580","false","[]","[]","[]","img preload","","","","","","","","","","","","","","","","","","","","","","","","","","","","","","","","","","","","",""
"","survey-html-form","2","4479","0.0-2.0","580","","","","","enter-sub-number","2551","{""response"":""580""}","","","","","","","","","","","","","","","","","","","","","","","","","","","","","","","","","","",""
"","image-button-response","3","72980","0.0-3.0","580","","","","","","68433","0","consent.png","","","","","","","","","","","","","","","","","","","","","","","","","","","","","","","","","",""
"","html-button-response","4","83730","0.0-4.0","580","","","","","intro mssg","10746","0","<div style= ""font-size:25px;"" <p> <strong> Welcome! </strong><br> <p style=""color:#8B0000; font-size:25px;""><strong> Please do NOT exit full screen until you are done with the experiment. </strong> </p><p style=""font-size:25px;color:#8B0000;""> <strong> Your data will be lost <br> if you try to go back or refresh the page after the experiment starts. Feel free to click ""previous"" during the instructions, however.</strong> </p><br><p> <strong> Thanks in advance for your contribution to our research! </strong></p>","","","","","","","","","","","","","","","","","","","","","","","","","","","","","","","","","",""
"","instructions","5","132517","0.0-5.0","580","","","","","instructions","48783","","","[{""page_index"":0,""viewing_time"":6271},{""page_index"":1,""viewing_time"":4400},{""page_index"":2,""viewing_time"":3742},{""page_index"":3,""viewing_time"":22441},{""page_index"":4,""viewing_time"":6904},{""page_index"":5,""viewing_time"":1936},{""page_index"":6,""viewing_time"":1712},{""page_index"":7,""viewing_time"":1376}]","","","","","","","","","","","","","","","","","","","","","","","","","","","","","","","","",""
"","canvas-keyboard-response","6","132720","0.0-6.0-0.0","580","","","","","pre trial waiting period","null","null","","","catch","sw","sh","l","180","200","212","171","233","279","trueblood","null","null","null","null","null","null","null","null","null","null","null","","180","200","260","200","36000","52000","[1,3]","466.6021181955369","473.6939075797488","436.81911627687066"
"","canvas-keyboard-response","7","132747","0.0-6.0-1.0","580","","","","","clear_screen","null","null","","","catch","sw","sh","l","180","200","212","171","233","279","trueblood","null","null","null","null","null","null","null","null","null","null","null","","180","200","260","200","36000","52000","[1,3]","466.6021181955369","473.6939075797488","436.81911627687066"
"","canvas-keyboard-response","8","133255","0.0-6.0-2.0","580","","","","","rectangles no change","null","null","","","catch","sw","sh","l","180","200","212","171","233","279","trueblood","null","null","null","null","null","null","null","null","null","null","null","","180","200","260","200","36000","52000","[1,3]","466.6021181955369","473.6939075797488","436.81911627687066"
"","canvas-keyboard-response","9","134591","0.0-6.0-3.0","580","","","","","rectangles with change","null","null","","","catch","sw","sh","l","180","200","212","171","233","279","trueblood","null","null","null","null","null","null","null","null","null","null","null","","180","200","260","200","36000","52000","[1,3]","466.6021181955369","473.6939075797488","436.81911627687066"
"","canvas-keyboard-response","10","134611","0.0-6.0-4.0","580","","","","","clear_screen","null","null","","","catch","sw","sh","l","180","200","212","171","233","279","trueblood","null","null","null","null","null","null","null","null","null","null","null","","180","200","260","200","36000","52000","[1,3]","466.6021181955369","473.6939075797488","436.81911627687066"
"","canvas-keyboard-response","11","136805","0.0-6.0-5.0","580","","","","","make choice","2185","3","","","catch","sw","sh","l","180","200","212","171","233","279","trueblood","null","null","null","null","null","null","null","null","null","null","null","","180","200","260","200","36000","52000","[1,3]","","",""
"","canvas-keyboard-response","12","136825","0.0-6.0-6.0","580","","","","","clear_screen","null","null","","","catch","sw","sh","l","180","200","212","171","233","279","trueblood","null","null","null","null","null","null","null","null","null","null","null","","180","200","260","200","36000","52000","[1,3]","","",""
"","canvas-keyboard-response","13","137027","0.0-6.0-0.1","580","","","","","pre trial waiting period","null","null","","","catch","sw","l","sh","180","200","241","219","202","186","spektor","null","null","null","null","null","null","null","null","null","null","null","","180","200","260","200","36000","52000","[1,2]","502.2538468628958","118.35468843834252","526.8209111297439"
"","canvas-keyboard-response","14","137048","0.0-6.0-1.1","580","","","","","clear_screen","null","null","","","catch","sw","l","sh","180","200","241","219","202","186","spektor","null","null","null","null","null","null","null","null","null","null","null","","180","200","260","200","36000","52000","[1,2]","502.2538468628958","118.35468843834252","526.8209111297439"
"","canvas-keyboard-response","15","137554","0.0-6.0-2.1","580","","","","","rectangles no change","null","null","","","catch","sw","l","sh","180","200","241","219","202","186","spektor","null","null","null","null","null","null","null","null","null","null","null","","180","200","260","200","36000","52000","[1,2]","502.2538468628958","118.35468843834252","526.8209111297439"
"","canvas-keyboard-response","16","138894","0.0-6.0-3.1","580","","","","","rectangles with change","null","null","","","catch","sw","l","sh","180","200","241","219","202","186","spektor","null","null","null","null","null","null","null","null","null","null","null","","180","200","260","200","36000","52000","[1,2]","502.2538468628958","118.35468843834252","526.8209111297439"
"","canvas-keyboard-response","17","138913","0.0-6.0-4.1","580","","","","","clear_screen","null","null","","","catch","sw","l","sh","180","200","241","219","202","186","spektor","null","null","null","null","null","null","null","null","null","null","null","","180","200","260","200","36000","52000","[1,2]","502.2538468628958","118.35468843834252","526.8209111297439"
"","canvas-keyboard-response","18","139387","0.0-6.0-5.1","580","","","","","make choice","465","2","","","catch","sw","l","sh","180","200","241","219","202","186","spektor","null","null","null","null","null","null","null","null","null","null","null","","180","200","260","200","36000","52000","[1,2]","","",""
"","canvas-keyboard-response","19","139407","0.0-6.0-6.1","580","","","","","clear_screen","null","null","","","catch","sw","l","sh","180","200","241","219","202","186","spektor","null","null","null","null","null","null","null","null","null","null","null","","180","200","260","200","36000","52000","[1,2]","","",""
"","canvas-keyboard-response","20","139608","0.0-6.0-0.2","580","","","","","pre trial waiting period","null","null","","","catch","l","sh","sw","220","176","170","155","178","222","trueblood","null","null","null","null","null","null","null","null","null","null","null","","180","200","260","200","36000","52000","[1,2]","497.6723735030096","481.30033405143274","464.59647940716036"
"","canvas-keyboard-response","21","139628","0.0-6.0-1.2","580","","","","","clear_screen","null","null","","","catch","l","sh","sw","220","176","170","155","178","222","trueblood","null","null","null","null","null","null","null","null","null","null","null","","180","200","260","200","36000","52000","[1,2]","497.6723735030096","481.30033405143274","464.59647940716036"
"","canvas-keyboard-response","22","140135","0.0-6.0-2.2","580","","","","","rectangles no change","null","null","","","catch","l","sh","sw","220","176","170","155","178","222","trueblood","null","null","null","null","null","null","null","null","null","null","null","","180","200","260","200","36000","52000","[1,2]","497.6723735030096","481.30033405143274","464.59647940716036"
"","canvas-keyboard-response","23","141469","0.0-6.0-3.2","580","","","","","rectangles with change","null","null","","","catch","l","sh","sw","220","176","170","155","178","222","trueblood","null","null","null","null","null","null","null","null","null","null","null","","180","200","260","200","36000","52000","[1,2]","497.6723735030096","481.30033405143274","464.59647940716036"
"","canvas-keyboard-response","24","141489","0.0-6.0-4.2","580","","","","","clear_screen","null","null","","","catch","l","sh","sw","220","176","170","155","178","222","trueblood","null","null","null","null","null","null","null","null","null","null","null","","180","200","260","200","36000","52000","[1,2]","497.6723735030096","481.30033405143274","464.59647940716036"
"","canvas-keyboard-response","25","141882","0.0-6.0-5.2","580","","","","","make choice","388","1","","","catch","l","sh","sw","220","176","170","155","178","222","trueblood","null","null","null","null","null","null","null","null","null","null","null","","180","200","260","200","36000","52000","[1,2]","","",""
"","canvas-keyboard-response","26","141899","0.0-6.0-6.2","580","","","","","clear_screen","null","null","","","catch","l","sh","sw","220","176","170","155","178","222","trueblood","null","null","null","null","null","null","null","null","null","null","null","","180","200","260","200","36000","52000","[1,2]","","",""
"","canvas-keyboard-response","27","142100","0.0-6.0-0.3","580","","","","","pre trial waiting period","null","null","","","catch","sh","l","sw","226","192","216","239","150","176","trueblood","null","null","null","null","null","null","null","null","null","null","null","","180","200","260","200","36000","52000","[1,2]","450.755206987464","446.4442432586731","497.5091777873662"
"","canvas-keyboard-response","28","142120","0.0-6.0-1.3","580","","","","","clear_screen","null","null","","","catch","sh","l","sw","226","192","216","239","150","176","trueblood","null","null","null","null","null","null","null","null","null","null","null","","180","200","260","200","36000","52000","[1,2]","450.755206987464","446.4442432586731","497.5091777873662"
"","canvas-keyboard-response","29","142625","0.0-6.0-2.3","580","","","","","rectangles no change","null","null","","","catch","sh","l","sw","226","192","216","239","150","176","trueblood","null","null","null","null","null","null","null","null","null","null","null","","180","200","260","200","36000","52000","[1,2]","450.755206987464","446.4442432586731","497.5091777873662"
"","canvas-keyboard-response","30","143966","0.0-6.0-3.3","580","","","","","rectangles with change","null","null","","","catch","sh","l","sw","226","192","216","239","150","176","trueblood","null","null","null","null","null","null","null","null","null","null","null","","180","200","260","200","36000","52000","[1,2]","450.755206987464","446.4442432586731","497.5091777873662"
"","canvas-keyboard-response","31","143985","0.0-6.0-4.3","580","","","","","clear_screen","null","null","","","catch","sh","l","sw","226","192","216","239","150","176","trueblood","null","null","null","null","null","null","null","null","null","null","null","","180","200","260","200","36000","52000","[1,2]","450.755206987464","446.4442432586731","497.5091777873662"
"","canvas-keyboard-response","32","144348","0.0-6.0-5.3","580","","","","","make choice","359","2","","","catch","sh","l","sw","226","192","216","239","150","176","trueblood","null","null","null","null","null","null","null","null","null","null","null","","180","200","260","200","36000","52000","[1,2]","","",""
"","canvas-keyboard-response","33","144368","0.0-6.0-6.3","580","","","","","clear_screen","null","null","","","catch","sh","l","sw","226","192","216","239","150","176","trueblood","null","null","null","null","null","null","null","null","null","null","null","","180","200","260","200","36000","52000","[1,2]","","",""
"","canvas-keyboard-response","34","144570","0.0-6.0-0.4","580","","","","","pre trial waiting period","null","null","","","catch","sh","sw","l","176","151","171","208","223","240","trueblood","null","null","null","null","null","null","null","null","null","null","null","","180","200","260","200","36000","52000","[1,3]","523.1694455919315","443.0245687650225","460.57334194780253"
"","canvas-keyboard-response","35","144589","0.0-6.0-1.4","580","","","","","clear_screen","null","null","","","catch","sh","sw","l","176","151","171","208","223","240","trueblood","null","null","null","null","null","null","null","null","null","null","null","","180","200","260","200","36000","52000","[1,3]","523.1694455919315","443.0245687650225","460.57334194780253"
"","canvas-keyboard-response","36","145095","0.0-6.0-2.4","580","","","","","rectangles no change","null","null","","","catch","sh","sw","l","176","151","171","208","223","240","trueblood","null","null","null","null","null","null","null","null","null","null","null","","180","200","260","200","36000","52000","[1,3]","523.1694455919315","443.0245687650225","460.57334194780253"
"","canvas-keyboard-response","37","146429","0.0-6.0-3.4","580","","","","","rectangles with change","null","null","","","catch","sh","sw","l","176","151","171","208","223","240","trueblood","null","null","null","null","null","null","null","null","null","null","null","","180","200","260","200","36000","52000","[1,3]","523.1694455919315","443.0245687650225","460.57334194780253"
"","canvas-keyboard-response","38","146451","0.0-6.0-4.4","580","","","","","clear_screen","null","null","","","catch","sh","sw","l","176","151","171","208","223","240","trueblood","null","null","null","null","null","null","null","null","null","null","null","","180","200","260","200","36000","52000","[1,3]","523.1694455919315","443.0245687650225","460.57334194780253"
"","canvas-keyboard-response","39","150356","0.0-6.0-5.4","580","","","","","make choice","3900","3","","","catch","sh","sw","l","176","151","171","208","223","240","trueblood","null","null","null","null","null","null","null","null","null","null","null","","180","200","260","200","36000","52000","[1,3]","","",""
"","canvas-keyboard-response","40","150377","0.0-6.0-6.4","580","","","","","clear_screen","null","null","","","catch","sh","sw","l","176","151","171","208","223","240","trueblood","null","null","null","null","null","null","null","null","null","null","null","","180","200","260","200","36000","52000","[1,3]","","",""
"","canvas-keyboard-response","41","150581","0.0-6.0-0.5","580","","","","","pre trial waiting period","null","null","","","critical","c","d","t","164","240","227.1683","158.0083","240","164","trueblood","0.09","w","240","164","164","240","227.1683","158.0083","39360","39360","35894.4834","dc","null","null","null","null","null","null","[2,1]","458.13443997985223","489.33194415803564","470.6583571676164"
"","canvas-keyboard-response","42","150604","0.0-6.0-1.5","580","","","","","clear_screen","null","null","","","critical","c","d","t","164","240","227.1683","158.0083","240","164","trueblood","0.09","w","240","164","164","240","227.1683","158.0083","39360","39360","35894.4834","dc","null","null","null","null","null","null","[2,1]","458.13443997985223","489.33194415803564","470.6583571676164"
"","canvas-keyboard-response","43","151110","0.0-6.0-2.5","580","","","","","rectangles no change","null","null","","","critical","c","d","t","164","240","227.1683","158.0083","240","164","trueblood","0.09","w","240","164","164","240","227.1683","158.0083","39360","39360","35894.4834","dc","null","null","null","null","null","null","[2,1]","458.13443997985223","489.33194415803564","470.6583571676164"
"","canvas-keyboard-response","44","152447","0.0-6.0-3.5","580","","","","","rectangles with change","null","null","","","critical","c","d","t","164","240","227.1683","158.0083","240","164","trueblood","0.09","w","240","164","164","240","227.1683","158.0083","39360","39360","35894.4834","dc","null","null","null","null","null","null","[2,1]","458.13443997985223","489.33194415803564","470.6583571676164"
"","canvas-keyboard-response","45","152466","0.0-6.0-4.5","580","","","","","clear_screen","null","null","","","critical","c","d","t","164","240","227.1683","158.0083","240","164","trueblood","0.09","w","240","164","164","240","227.1683","158.0083","39360","39360","35894.4834","dc","null","null","null","null","null","null","[2,1]","458.13443997985223","489.33194415803564","470.6583571676164"
"","canvas-keyboard-response","46","153010","0.0-6.0-5.5","580","","","","","make choice","537","1","","","critical","c","d","t","164","240","227.1683","158.0083","240","164","trueblood","0.09","w","240","164","164","240","227.1683","158.0083","39360","39360","35894.4834","dc","null","null","null","null","null","null","[2,1]","","",""
"","canvas-keyboard-response","47","153026","0.0-6.0-6.5","580","","","","","clear_screen","null","null","","","critical","c","d","t","164","240","227.1683","158.0083","240","164","trueblood","0.09","w","240","164","164","240","227.1683","158.0083","39360","39360","35894.4834","dc","null","null","null","null","null","null","[2,1]","","",""
"","canvas-keyboard-response","48","153229","0.0-6.0-0.6","580","","","","","pre trial waiting period","null","null","","","critical","c","d","t","240","164","162.6685","237.1485","164","240","trueblood","0.02","h","164","240","240","164","162.6685","237.1485","39360","39360","38576.5967","tc","null","null","null","null","null","null","[3,1]","490.48825987936044","423.7199851956394","425.7039309193894"
"","canvas-keyboard-response","49","153249","0.0-6.0-1.6","580","","","","","clear_screen","null","null","","","critical","c","d","t","240","164","162.6685","237.1485","164","240","trueblood","0.02","h","164","240","240","164","162.6685","237.1485","39360","39360","38576.5967","tc","null","null","null","null","null","null","[3,1]","490.48825987936044","423.7199851956394","425.7039309193894"
"","canvas-keyboard-response","50","153756","0.0-6.0-2.6","580","","","","","rectangles no change","null","null","","","critical","c","d","t","240","164","162.6685","237.1485","164","240","trueblood","0.02","h","164","240","240","164","162.6685","237.1485","39360","39360","38576.5967","tc","null","null","null","null","null","null","[3,1]","490.48825987936044","423.7199851956394","425.7039309193894"
"","canvas-keyboard-response","51","155093","0.0-6.0-3.6","580","","","","","rectangles with change","null","null","","","critical","c","d","t","240","164","162.6685","237.1485","164","240","trueblood","0.02","h","164","240","240","164","162.6685","237.1485","39360","39360","38576.5967","tc","null","null","null","null","null","null","[3,1]","490.48825987936044","423.7199851956394","425.7039309193894"
"","canvas-keyboard-response","52","155114","0.0-6.0-4.6","580","","","","","clear_screen","null","null","","","critical","c","d","t","240","164","162.6685","237.1485","164","240","trueblood","0.02","h","164","240","240","164","162.6685","237.1485","39360","39360","38576.5967","tc","null","null","null","null","null","null","[3,1]","490.48825987936044","423.7199851956394","425.7039309193894"
"","canvas-keyboard-response","53","155780","0.0-6.0-5.6","580","","","","","make choice","661","1","","","critical","c","d","t","240","164","162.6685","237.1485","164","240","trueblood","0.02","h","164","240","240","164","162.6685","237.1485","39360","39360","38576.5967","tc","null","null","null","null","null","null","[3,1]","","",""
"","canvas-keyboard-response","54","155799","0.0-6.0-6.6","580","","","","","clear_screen","null","null","","","critical","c","d","t","240","164","162.6685","237.1485","164","240","trueblood","0.02","h","164","240","240","164","162.6685","237.1485","39360","39360","38576.5967","tc","null","null","null","null","null","null","[3,1]","","",""
"","canvas-keyboard-response","55","156000","0.0-6.0-0.7","580","","","","","pre trial waiting period","null","null","","","critical","d","c","t","160.6713","232.8713","240","164","164","240","trueblood","0.05","h","164","240","240","164","160.6713","232.8713","39360","39360","37415.7294","dc","null","null","null","null","null","null","[1,2]","427.9449075434652","486.20739330943087","452.0928521450383"
"","canvas-keyboard-response","56","156017","0.0-6.0-1.7","580","","","","","clear_screen","null","null","","","critical","d","c","t","160.6713","232.8713","240","164","164","240","trueblood","0.05","h","164","240","240","164","160.6713","232.8713","39360","39360","37415.7294","dc","null","null","null","null","null","null","[1,2]","427.9449075434652","486.20739330943087","452.0928521450383"
"","canvas-keyboard-response","57","156528","0.0-6.0-2.7","580","","","","","rectangles no change","null","null","","","critical","d","c","t","160.6713","232.8713","240","164","164","240","trueblood","0.05","h","164","240","240","164","160.6713","232.8713","39360","39360","37415.7294","dc","null","null","null","null","null","null","[1,2]","427.9449075434652","486.20739330943087","452.0928521450383"
"","canvas-keyboard-response","58","157863","0.0-6.0-3.7","580","","","","","rectangles with change","null","null","","","critical","d","c","t","160.6713","232.8713","240","164","164","240","trueblood","0.05","h","164","240","240","164","160.6713","232.8713","39360","39360","37415.7294","dc","null","null","null","null","null","null","[1,2]","427.9449075434652","486.20739330943087","452.0928521450383"
"","canvas-keyboard-response","59","157877","0.0-6.0-4.7","580","","","","","clear_screen","null","null","","","critical","d","c","t","160.6713","232.8713","240","164","164","240","trueblood","0.05","h","164","240","240","164","160.6713","232.8713","39360","39360","37415.7294","dc","null","null","null","null","null","null","[1,2]","427.9449075434652","486.20739330943087","452.0928521450383"
"","canvas-keyboard-response","60","158331","0.0-6.0-5.7","580","","","","","make choice","447","2","","","critical","d","c","t","160.6713","232.8713","240","164","164","240","trueblood","0.05","h","164","240","240","164","160.6713","232.8713","39360","39360","37415.7294","dc","null","null","null","null","null","null","[1,2]","","",""
"","canvas-keyboard-response","61","158350","0.0-6.0-6.7","580","","","","","clear_screen","null","null","","","critical","d","c","t","160.6713","232.8713","240","164","164","240","trueblood","0.05","h","164","240","240","164","160.6713","232.8713","39360","39360","37415.7294","dc","null","null","null","null","null","null","[1,2]","","",""
"","canvas-keyboard-response","62","158552","0.0-6.0-0.8","580","","","","","pre trial waiting period","null","null","","","catch","l","sh","sw","286","189","202","179","168","188","trueblood","null","null","null","null","null","null","null","null","null","null","null","","180","200","260","200","36000","52000","[1,3]","456.83873927455744","475.37819514258814","494.845694185485"
"","canvas-keyboard-response","63","158572","0.0-6.0-1.8","580","","","","","clear_screen","null","null","","","catch","l","sh","sw","286","189","202","179","168","188","trueblood","null","null","null","null","null","null","null","null","null","null","null","","180","200","260","200","36000","52000","[1,3]","456.83873927455744","475.37819514258814","494.845694185485"
"","canvas-keyboard-response","64","159076","0.0-6.0-2.8","580","","","","","rectangles no change","null","null","","","catch","l","sh","sw","286","189","202","179","168","188","trueblood","null","null","null","null","null","null","null","null","null","null","null","","180","200","260","200","36000","52000","[1,3]","456.83873927455744","475.37819514258814","494.845694185485"
"","canvas-keyboard-response","65","160411","0.0-6.0-3.8","580","","","","","rectangles with change","null","null","","","catch","l","sh","sw","286","189","202","179","168","188","trueblood","null","null","null","null","null","null","null","null","null","null","null","","180","200","260","200","36000","52000","[1,3]","456.83873927455744","475.37819514258814","494.845694185485"
"","canvas-keyboard-response","66","160432","0.0-6.0-4.8","580","","","","","clear_screen","null","null","","","catch","l","sh","sw","286","189","202","179","168","188","trueblood","null","null","null","null","null","null","null","null","null","null","null","","180","200","260","200","36000","52000","[1,3]","456.83873927455744","475.37819514258814","494.845694185485"
"","canvas-keyboard-response","67","160861","0.0-6.0-5.8","580","","","","","make choice","418","1","","","catch","l","sh","sw","286","189","202","179","168","188","trueblood","null","null","null","null","null","null","null","null","null","null","null","","180","200","260","200","36000","52000","[1,3]","","",""
"","canvas-keyboard-response","68","160880","0.0-6.0-6.8","580","","","","","clear_screen","null","null","","","catch","l","sh","sw","286","189","202","179","168","188","trueblood","null","null","null","null","null","null","null","null","null","null","null","","180","200","260","200","36000","52000","[1,3]","","",""
"","canvas-keyboard-response","69","161080","0.0-6.0-0.9","580","","","","","pre trial waiting period","null","null","","","catch","l","sw","sh","241","196","177","206","228","184","trueblood","null","null","null","null","null","null","null","null","null","null","null","","180","200","260","200","36000","52000","[1,2]","474.8605811511219","453.83637670442107","490.168158202833"
"","canvas-keyboard-response","70","161099","0.0-6.0-1.9","580","","","","","clear_screen","null","null","","","catch","l","sw","sh","241","196","177","206","228","184","trueblood","null","null","null","null","null","null","null","null","null","null","null","","180","200","260","200","36000","52000","[1,2]","474.8605811511219","453.83637670442107","490.168158202833"
"","canvas-keyboard-response","71","161607","0.0-6.0-2.9","580","","","","","rectangles no change","null","null","","","catch","l","sw","sh","241","196","177","206","228","184","trueblood","null","null","null","null","null","null","null","null","null","null","null","","180","200","260","200","36000","52000","[1,2]","474.8605811511219","453.83637670442107","490.168158202833"
"","canvas-keyboard-response","72","162947","0.0-6.0-3.9","580","","","","","rectangles with change","null","null","","","catch","l","sw","sh","241","196","177","206","228","184","trueblood","null","null","null","null","null","null","null","null","null","null","null","","180","200","260","200","36000","52000","[1,2]","474.8605811511219","453.83637670442107","490.168158202833"
"","canvas-keyboard-response","73","162964","0.0-6.0-4.9","580","","","","","clear_screen","null","null","","","catch","l","sw","sh","241","196","177","206","228","184","trueblood","null","null","null","null","null","null","null","null","null","null","null","","180","200","260","200","36000","52000","[1,2]","474.8605811511219","453.83637670442107","490.168158202833"
"","canvas-keyboard-response","74","163315","0.0-6.0-5.9","580","","","","","make choice","345","1","","","catch","l","sw","sh","241","196","177","206","228","184","trueblood","null","null","null","null","null","null","null","null","null","null","null","","180","200","260","200","36000","52000","[1,2]","","",""
"","canvas-keyboard-response","75","163335","0.0-6.0-6.9","580","","","","","clear_screen","null","null","","","catch","l","sw","sh","241","196","177","206","228","184","trueblood","null","null","null","null","null","null","null","null","null","null","null","","180","200","260","200","36000","52000","[1,2]","","",""
"","canvas-keyboard-response","76","163536","0.0-6.0-0.10","580","","","","","pre trial waiting period","null","null","","","critical","c","t","d","164","240","240","164","227.1683","158.0083","spektor","0.09","w","240","164","164","240","227.1683","158.0083","39360","39360","35894.4834","td","null","null","null","null","null","null","[2,3]","459.72980770522844","208.73672099303798","542.1527824648822"
"","canvas-keyboard-response","77","163560","0.0-6.0-1.10","580","","","","","clear_screen","null","null","","","critical","c","t","d","164","240","240","164","227.1683","158.0083","spektor","0.09","w","240","164","164","240","227.1683","158.0083","39360","39360","35894.4834","td","null","null","null","null","null","null","[2,3]","459.72980770522844","208.73672099303798","542.1527824648822"
"","canvas-keyboard-response","78","164065","0.0-6.0-2.10","580","","","","","rectangles no change","null","null","","","critical","c","t","d","164","240","240","164","227.1683","158.0083","spektor","0.09","w","240","164","164","240","227.1683","158.0083","39360","39360","35894.4834","td","null","null","null","null","null","null","[2,3]","459.72980770522844","208.73672099303798","542.1527824648822"
"","canvas-keyboard-response","79","165400","0.0-6.0-3.10","580","","","","","rectangles with change","null","null","","","critical","c","t","d","164","240","240","164","227.1683","158.0083","spektor","0.09","w","240","164","164","240","227.1683","158.0083","39360","39360","35894.4834","td","null","null","null","null","null","null","[2,3]","459.72980770522844","208.73672099303798","542.1527824648822"
"","canvas-keyboard-response","80","165422","0.0-6.0-4.10","580","","","","","clear_screen","null","null","","","critical","c","t","d","164","240","240","164","227.1683","158.0083","spektor","0.09","w","240","164","164","240","227.1683","158.0083","39360","39360","35894.4834","td","null","null","null","null","null","null","[2,3]","459.72980770522844","208.73672099303798","542.1527824648822"
"","canvas-keyboard-response","81","167147","0.0-6.0-5.10","580","","","","","make choice","1720","3","","","critical","c","t","d","164","240","240","164","227.1683","158.0083","spektor","0.09","w","240","164","164","240","227.1683","158.0083","39360","39360","35894.4834","td","null","null","null","null","null","null","[2,3]","","",""
"","canvas-keyboard-response","82","167166","0.0-6.0-6.10","580","","","","","clear_screen","null","null","","","critical","c","t","d","164","240","240","164","227.1683","158.0083","spektor","0.09","w","240","164","164","240","227.1683","158.0083","39360","39360","35894.4834","td","null","null","null","null","null","null","[2,3]","","",""
"","canvas-keyboard-response","83","167367","0.0-6.0-0.11","580","","","","","pre trial waiting period","null","null","","","critical","c","t","d","240","164","164","240","160.6713","232.8713","trueblood","0.05","h","164","240","240","164","160.6713","232.8713","39360","39360","37415.7294","td","null","null","null","null","null","null","[2,3]","476.13800917423913","456.8573866002485","465.0196699407432"
"","canvas-keyboard-response","84","167390","0.0-6.0-1.11","580","","","","","clear_screen","null","null","","","critical","c","t","d","240","164","164","240","160.6713","232.8713","trueblood","0.05","h","164","240","240","164","160.6713","232.8713","39360","39360","37415.7294","td","null","null","null","null","null","null","[2,3]","476.13800917423913","456.8573866002485","465.0196699407432"
"","canvas-keyboard-response","85","167895","0.0-6.0-2.11","580","","","","","rectangles no change","null","null","","","critical","c","t","d","240","164","164","240","160.6713","232.8713","trueblood","0.05","h","164","240","240","164","160.6713","232.8713","39360","39360","37415.7294","td","null","null","null","null","null","null","[2,3]","476.13800917423913","456.8573866002485","465.0196699407432"
"","canvas-keyboard-response","86","169235","0.0-6.0-3.11","580","","","","","rectangles with change","null","null","","","critical","c","t","d","240","164","164","240","160.6713","232.8713","trueblood","0.05","h","164","240","240","164","160.6713","232.8713","39360","39360","37415.7294","td","null","null","null","null","null","null","[2,3]","476.13800917423913","456.8573866002485","465.0196699407432"
"","canvas-keyboard-response","87","169255","0.0-6.0-4.11","580","","","","","clear_screen","null","null","","","critical","c","t","d","240","164","164","240","160.6713","232.8713","trueblood","0.05","h","164","240","240","164","160.6713","232.8713","39360","39360","37415.7294","td","null","null","null","null","null","null","[2,3]","476.13800917423913","456.8573866002485","465.0196699407432"
"","canvas-keyboard-response","88","169691","0.0-6.0-5.11","580","","","","","make choice","432","2","","","critical","c","t","d","240","164","164","240","160.6713","232.8713","trueblood","0.05","h","164","240","240","164","160.6713","232.8713","39360","39360","37415.7294","td","null","null","null","null","null","null","[2,3]","","",""
"","canvas-keyboard-response","89","169711","0.0-6.0-6.11","580","","","","","clear_screen","null","null","","","critical","c","t","d","240","164","164","240","160.6713","232.8713","trueblood","0.05","h","164","240","240","164","160.6713","232.8713","39360","39360","37415.7294","td","null","null","null","null","null","null","[2,3]","","",""
"","canvas-keyboard-response","90","169912","0.0-6.0-0.12","580","","","","","pre trial waiting period","null","null","","","catch","l","sw","sh","179","262","163","225","195","160","spektor","null","null","null","null","null","null","null","null","null","null","null","","180","200","260","200","36000","52000","[1,2]","489.768916546235","149.39109166510946","496.51413161333494"
"","canvas-keyboard-response","91","169932","0.0-6.0-1.12","580","","","","","clear_screen","null","null","","","catch","l","sw","sh","179","262","163","225","195","160","spektor","null","null","null","null","null","null","null","null","null","null","null","","180","200","260","200","36000","52000","[1,2]","489.768916546235","149.39109166510946","496.51413161333494"
"","canvas-keyboard-response","92","170442","0.0-6.0-2.12","580","","","","","rectangles no change","null","null","","","catch","l","sw","sh","179","262","163","225","195","160","spektor","null","null","null","null","null","null","null","null","null","null","null","","180","200","260","200","36000","52000","[1,2]","489.768916546235","149.39109166510946","496.51413161333494"
"","canvas-keyboard-response","93","171782","0.0-6.0-3.12","580","","","","","rectangles with change","null","null","","","catch","l","sw","sh","179","262","163","225","195","160","spektor","null","null","null","null","null","null","null","null","null","null","null","","180","200","260","200","36000","52000","[1,2]","489.768916546235","149.39109166510946","496.51413161333494"
"","canvas-keyboard-response","94","171801","0.0-6.0-4.12","580","","","","","clear_screen","null","null","","","catch","l","sw","sh","179","262","163","225","195","160","spektor","null","null","null","null","null","null","null","null","null","null","null","","180","200","260","200","36000","52000","[1,2]","489.768916546235","149.39109166510946","496.51413161333494"
"","canvas-keyboard-response","95","172220","0.0-6.0-5.12","580","","","","","make choice","411","1","","","catch","l","sw","sh","179","262","163","225","195","160","spektor","null","null","null","null","null","null","null","null","null","null","null","","180","200","260","200","36000","52000","[1,2]","","",""
"","canvas-keyboard-response","96","172237","0.0-6.0-6.12","580","","","","","clear_screen","null","null","","","catch","l","sw","sh","179","262","163","225","195","160","spektor","null","null","null","null","null","null","null","null","null","null","null","","180","200","260","200","36000","52000","[1,2]","","",""
"","canvas-keyboard-response","97","172438","0.0-6.0-0.13","580","","","","","pre trial waiting period","null","null","","","critical","c","t","d","164","240","240","164","220.0396","154.6796","spektor","0.14","w","240","164","164","240","220.0396","154.6796","39360","39360","34035.6388","dc","null","null","null","null","null","null","[3,1]","492.6454406552463","172.5645073873144","537.5853718155065"
"","canvas-keyboard-response","98","172459","0.0-6.0-1.13","580","","","","","clear_screen","null","null","","","critical","c","t","d","164","240","240","164","220.0396","154.6796","spektor","0.14","w","240","164","164","240","220.0396","154.6796","39360","39360","34035.6388","dc","null","null","null","null","null","null","[3,1]","492.6454406552463","172.5645073873144","537.5853718155065"
"","canvas-keyboard-response","99","172964","0.0-6.0-2.13","580","","","","","rectangles no change","null","null","","","critical","c","t","d","164","240","240","164","220.0396","154.6796","spektor","0.14","w","240","164","164","240","220.0396","154.6796","39360","39360","34035.6388","dc","null","null","null","null","null","null","[3,1]","492.6454406552463","172.5645073873144","537.5853718155065"
"","canvas-keyboard-response","100","174299","0.0-6.0-3.13","580","","","","","rectangles with change","null","null","","","critical","c","t","d","164","240","240","164","220.0396","154.6796","spektor","0.14","w","240","164","164","240","220.0396","154.6796","39360","39360","34035.6388","dc","null","null","null","null","null","null","[3,1]","492.6454406552463","172.5645073873144","537.5853718155065"
"","canvas-keyboard-response","101","174321","0.0-6.0-4.13","580","","","","","clear_screen","null","null","","","critical","c","t","d","164","240","240","164","220.0396","154.6796","spektor","0.14","w","240","164","164","240","220.0396","154.6796","39360","39360","34035.6388","dc","null","null","null","null","null","null","[3,1]","492.6454406552463","172.5645073873144","537.5853718155065"
"","canvas-keyboard-response","102","174956","0.0-6.0-5.13","580","","","","","make choice","629","1","","","critical","c","t","d","164","240","240","164","220.0396","154.6796","spektor","0.14","w","240","164","164","240","220.0396","154.6796","39360","39360","34035.6388","dc","null","null","null","null","null","null","[3,1]","","",""
"","canvas-keyboard-response","103","174977","0.0-6.0-6.13","580","","","","","clear_screen","null","null","","","critical","c","t","d","164","240","240","164","220.0396","154.6796","spektor","0.14","w","240","164","164","240","220.0396","154.6796","39360","39360","34035.6388","dc","null","null","null","null","null","null","[3,1]","","",""
"","canvas-keyboard-response","104","175177","0.0-6.0-0.14","580","","","","","pre trial waiting period","null","null","","","catch","l","sh","sw","231","228","210","157","166","224","spektor","null","null","null","null","null","null","null","null","null","null","null","","180","200","260","200","36000","52000","[1,3]","489.4705162255396","195.94701137528457","509.72843804639047"
"","canvas-keyboard-response","105","175199","0.0-6.0-1.14","580","","","","","clear_screen","null","null","","","catch","l","sh","sw","231","228","210","157","166","224","spektor","null","null","null","null","null","null","null","null","null","null","null","","180","200","260","200","36000","52000","[1,3]","489.4705162255396","195.94701137528457","509.72843804639047"
"","canvas-keyboard-response","106","175706","0.0-6.0-2.14","580","","","","","rectangles no change","null","null","","","catch","l","sh","sw","231","228","210","157","166","224","spektor","null","null","null","null","null","null","null","null","null","null","null","","180","200","260","200","36000","52000","[1,3]","489.4705162255396","195.94701137528457","509.72843804639047"
"","canvas-keyboard-response","107","177046","0.0-6.0-3.14","580","","","","","rectangles with change","null","null","","","catch","l","sh","sw","231","228","210","157","166","224","spektor","null","null","null","null","null","null","null","null","null","null","null","","180","200","260","200","36000","52000","[1,3]","489.4705162255396","195.94701137528457","509.72843804639047"
"","canvas-keyboard-response","108","177064","0.0-6.0-4.14","580","","","","","clear_screen","null","null","","","catch","l","sh","sw","231","228","210","157","166","224","spektor","null","null","null","null","null","null","null","null","null","null","null","","180","200","260","200","36000","52000","[1,3]","489.4705162255396","195.94701137528457","509.72843804639047"
"","canvas-keyboard-response","109","177539","0.0-6.0-5.14","580","","","","","make choice","471","1","","","catch","l","sh","sw","231","228","210","157","166","224","spektor","null","null","null","null","null","null","null","null","null","null","null","","180","200","260","200","36000","52000","[1,3]","","",""
"","canvas-keyboard-response","110","177559","0.0-6.0-6.14","580","","","","","clear_screen","null","null","","","catch","l","sh","sw","231","228","210","157","166","224","spektor","null","null","null","null","null","null","null","null","null","null","null","","180","200","260","200","36000","52000","[1,3]","","",""
"","canvas-keyboard-response","111","177761","0.0-6.0-0.15","580","","","","","pre trial waiting period","null","null","","","catch","sh","l","sw","163","160","217","249","165","208","spektor","null","null","null","null","null","null","null","null","null","null","null","","180","200","260","200","36000","52000","[1,2]","514.0586128110422","130.67902479637758","488.95881198553593"
"","canvas-keyboard-response","112","177784","0.0-6.0-1.15","580","","","","","clear_screen","null","null","","","catch","sh","l","sw","163","160","217","249","165","208","spektor","null","null","null","null","null","null","null","null","null","null","null","","180","200","260","200","36000","52000","[1,2]","514.0586128110422","130.67902479637758","488.95881198553593"
"","canvas-keyboard-response","113","178289","0.0-6.0-2.15","580","","","","","rectangles no change","null","null","","","catch","sh","l","sw","163","160","217","249","165","208","spektor","null","null","null","null","null","null","null","null","null","null","null","","180","200","260","200","36000","52000","[1,2]","514.0586128110422","130.67902479637758","488.95881198553593"
"","canvas-keyboard-response","114","179627","0.0-6.0-3.15","580","","","","","rectangles with change","null","null","","","catch","sh","l","sw","163","160","217","249","165","208","spektor","null","null","null","null","null","null","null","null","null","null","null","","180","200","260","200","36000","52000","[1,2]","514.0586128110422","130.67902479637758","488.95881198553593"
"","canvas-keyboard-response","115","179644","0.0-6.0-4.15","580","","","","","clear_screen","null","null","","","catch","sh","l","sw","163","160","217","249","165","208","spektor","null","null","null","null","null","null","null","null","null","null","null","","180","200","260","200","36000","52000","[1,2]","514.0586128110422","130.67902479637758","488.95881198553593"
"","canvas-keyboard-response","116","179907","0.0-6.0-5.15","580","","","","","make choice","255","2","","","catch","sh","l","sw","163","160","217","249","165","208","spektor","null","null","null","null","null","null","null","null","null","null","null","","180","200","260","200","36000","52000","[1,2]","","",""
"","canvas-keyboard-response","117","179927","0.0-6.0-6.15","580","","","","","clear_screen","null","null","","","catch","sh","l","sw","163","160","217","249","165","208","spektor","null","null","null","null","null","null","null","null","null","null","null","","180","200","260","200","36000","52000","[1,2]","","",""
"","canvas-keyboard-response","118","180129","0.0-6.0-0.16","580","","","","","pre trial waiting period","null","null","","","catch","sh","l","sw","198","189","221","165","158","220","spektor","null","null","null","null","null","null","null","null","null","null","null","","180","200","260","200","36000","52000","[2,3]","498.93895708291114","194.40205205157133","470.97280155728754"
"","canvas-keyboard-response","119","180148","0.0-6.0-1.16","580","","","","","clear_screen","null","null","","","catch","sh","l","sw","198","189","221","165","158","220","spektor","null","null","null","null","null","null","null","null","null","null","null","","180","200","260","200","36000","52000","[2,3]","498.93895708291114","194.40205205157133","470.97280155728754"
"","canvas-keyboard-response","120","180656","0.0-6.0-2.16","580","","","","","rectangles no change","null","null","","","catch","sh","l","sw","198","189","221","165","158","220","spektor","null","null","null","null","null","null","null","null","null","null","null","","180","200","260","200","36000","52000","[2,3]","498.93895708291114","194.40205205157133","470.97280155728754"
"","canvas-keyboard-response","121","181995","0.0-6.0-3.16","580","","","","","rectangles with change","null","null","","","catch","sh","l","sw","198","189","221","165","158","220","spektor","null","null","null","null","null","null","null","null","null","null","null","","180","200","260","200","36000","52000","[2,3]","498.93895708291114","194.40205205157133","470.97280155728754"
"","canvas-keyboard-response","122","182017","0.0-6.0-4.16","580","","","","","clear_screen","null","null","","","catch","sh","l","sw","198","189","221","165","158","220","spektor","null","null","null","null","null","null","null","null","null","null","null","","180","200","260","200","36000","52000","[2,3]","498.93895708291114","194.40205205157133","470.97280155728754"
"","canvas-keyboard-response","123","182523","0.0-6.0-5.16","580","","","","","make choice","503","2","","","catch","sh","l","sw","198","189","221","165","158","220","spektor","null","null","null","null","null","null","null","null","null","null","null","","180","200","260","200","36000","52000","[2,3]","","",""
"","canvas-keyboard-response","124","182541","0.0-6.0-6.16","580","","","","","clear_screen","null","null","","","catch","sh","l","sw","198","189","221","165","158","220","spektor","null","null","null","null","null","null","null","null","null","null","null","","180","200","260","200","36000","52000","[2,3]","","",""
"","canvas-keyboard-response","125","182743","0.0-6.0-0.17","580","","","","","pre trial waiting period","null","null","","","catch","l","sh","sw","241","233","184","189","179","171","trueblood","null","null","null","null","null","null","null","null","null","null","null","","180","200","260","200","36000","52000","[1,2]","439.41867291234985","501.6241709516196","486.88684453768394"
"","canvas-keyboard-response","126","182767","0.0-6.0-1.17","580","","","","","clear_screen","null","null","","","catch","l","sh","sw","241","233","184","189","179","171","trueblood","null","null","null","null","null","null","null","null","null","null","null","","180","200","260","200","36000","52000","[1,2]","439.41867291234985","501.6241709516196","486.88684453768394"
"","canvas-keyboard-response","127","183271","0.0-6.0-2.17","580","","","","","rectangles no change","null","null","","","catch","l","sh","sw","241","233","184","189","179","171","trueblood","null","null","null","null","null","null","null","null","null","null","null","","180","200","260","200","36000","52000","[1,2]","439.41867291234985","501.6241709516196","486.88684453768394"
"","canvas-keyboard-response","128","184606","0.0-6.0-3.17","580","","","","","rectangles with change","null","null","","","catch","l","sh","sw","241","233","184","189","179","171","trueblood","null","null","null","null","null","null","null","null","null","null","null","","180","200","260","200","36000","52000","[1,2]","439.41867291234985","501.6241709516196","486.88684453768394"
"","canvas-keyboard-response","129","184628","0.0-6.0-4.17","580","","","","","clear_screen","null","null","","","catch","l","sh","sw","241","233","184","189","179","171","trueblood","null","null","null","null","null","null","null","null","null","null","null","","180","200","260","200","36000","52000","[1,2]","439.41867291234985","501.6241709516196","486.88684453768394"
"","canvas-keyboard-response","130","185523","0.0-6.0-5.17","580","","","","","make choice","889","1","","","catch","l","sh","sw","241","233","184","189","179","171","trueblood","null","null","null","null","null","null","null","null","null","null","null","","180","200","260","200","36000","52000","[1,2]","","",""
"","canvas-keyboard-response","131","185542","0.0-6.0-6.17","580","","","","","clear_screen","null","null","","","catch","l","sh","sw","241","233","184","189","179","171","trueblood","null","null","null","null","null","null","null","null","null","null","null","","180","200","260","200","36000","52000","[1,2]","","",""
"","canvas-keyboard-response","132","185743","0.0-6.0-0.18","580","","","","","pre trial waiting period","null","null","","","catch","sw","l","sh","180","200","228","240","195","218","trueblood","null","null","null","null","null","null","null","null","null","null","null","","180","200","260","200","36000","52000","[1,2]","452.69554233635824","466.92356409060625","442.5300507000235"
"","canvas-keyboard-response","133","185766","0.0-6.0-1.18","580","","","","","clear_screen","null","null","","","catch","sw","l","sh","180","200","228","240","195","218","trueblood","null","null","null","null","null","null","null","null","null","null","null","","180","200","260","200","36000","52000","[1,2]","452.69554233635824","466.92356409060625","442.5300507000235"
"","canvas-keyboard-response","134","186270","0.0-6.0-2.18","580","","","","","rectangles no change","null","null","","","catch","sw","l","sh","180","200","228","240","195","218","trueblood","null","null","null","null","null","null","null","null","null","null","null","","180","200","260","200","36000","52000","[1,2]","452.69554233635824","466.92356409060625","442.5300507000235"
"","canvas-keyboard-response","135","187606","0.0-6.0-3.18","580","","","","","rectangles with change","null","null","","","catch","sw","l","sh","180","200","228","240","195","218","trueblood","null","null","null","null","null","null","null","null","null","null","null","","180","200","260","200","36000","52000","[1,2]","452.69554233635824","466.92356409060625","442.5300507000235"
"","canvas-keyboard-response","136","187625","0.0-6.0-4.18","580","","","","","clear_screen","null","null","","","catch","sw","l","sh","180","200","228","240","195","218","trueblood","null","null","null","null","null","null","null","null","null","null","null","","180","200","260","200","36000","52000","[1,2]","452.69554233635824","466.92356409060625","442.5300507000235"
"","canvas-keyboard-response","137","188299","0.0-6.0-5.18","580","","","","","make choice","668","2","","","catch","sw","l","sh","180","200","228","240","195","218","trueblood","null","null","null","null","null","null","null","null","null","null","null","","180","200","260","200","36000","52000","[1,2]","","",""
"","canvas-keyboard-response","138","188319","0.0-6.0-6.18","580","","","","","clear_screen","null","null","","","catch","sw","l","sh","180","200","228","240","195","218","trueblood","null","null","null","null","null","null","null","null","null","null","null","","180","200","260","200","36000","52000","[1,2]","","",""
"","canvas-keyboard-response","139","188520","0.0-6.0-0.19","580","","","","","pre trial waiting period","null","null","","","catch","sw","sh","l","180","200","176","190","222","239","trueblood","null","null","null","null","null","null","null","null","null","null","null","","180","200","260","200","36000","52000","[1,3]","490.86487117058726","477.8469600075621","427.78396056834873"
"","canvas-keyboard-response","140","188543","0.0-6.0-1.19","580","","","","","clear_screen","null","null","","","catch","sw","sh","l","180","200","176","190","222","239","trueblood","null","null","null","null","null","null","null","null","null","null","null","","180","200","260","200","36000","52000","[1,3]","490.86487117058726","477.8469600075621","427.78396056834873"
"","canvas-keyboard-response","141","189053","0.0-6.0-2.19","580","","","","","rectangles no change","null","null","","","catch","sw","sh","l","180","200","176","190","222","239","trueblood","null","null","null","null","null","null","null","null","null","null","null","","180","200","260","200","36000","52000","[1,3]","490.86487117058726","477.8469600075621","427.78396056834873"
"","canvas-keyboard-response","142","190395","0.0-6.0-3.19","580","","","","","rectangles with change","null","null","","","catch","sw","sh","l","180","200","176","190","222","239","trueblood","null","null","null","null","null","null","null","null","null","null","null","","180","200","260","200","36000","52000","[1,3]","490.86487117058726","477.8469600075621","427.78396056834873"
"","canvas-keyboard-response","143","190415","0.0-6.0-4.19","580","","","","","clear_screen","null","null","","","catch","sw","sh","l","180","200","176","190","222","239","trueblood","null","null","null","null","null","null","null","null","null","null","null","","180","200","260","200","36000","52000","[1,3]","490.86487117058726","477.8469600075621","427.78396056834873"
"","canvas-keyboard-response","144","190803","0.0-6.0-5.19","580","","","","","make choice","384","3","","","catch","sw","sh","l","180","200","176","190","222","239","trueblood","null","null","null","null","null","null","null","null","null","null","null","","180","200","260","200","36000","52000","[1,3]","","",""
"","canvas-keyboard-response","145","190823","0.0-6.0-6.19","580","","","","","clear_screen","null","null","","","catch","sw","sh","l","180","200","176","190","222","239","trueblood","null","null","null","null","null","null","null","null","null","null","null","","180","200","260","200","36000","52000","[1,3]","","",""
"","canvas-keyboard-response","146","191024","0.0-6.0-0.20","580","","","","","pre trial waiting period","null","null","","","critical","t","c","d","240","164","164","240","220.0396","154.6796","trueblood","0.14","w","240","164","164","240","220.0396","154.6796","39360","39360","34035.6388","tc","null","null","null","null","null","null","[1,2]","517.9139203126612","422.85867906434953","481.7829262827712"
"","canvas-keyboard-response","147","191046","0.0-6.0-1.20","580","","","","","clear_screen","null","null","","","critical","t","c","d","240","164","164","240","220.0396","154.6796","trueblood","0.14","w","240","164","164","240","220.0396","154.6796","39360","39360","34035.6388","tc","null","null","null","null","null","null","[1,2]","517.9139203126612","422.85867906434953","481.7829262827712"
"","canvas-keyboard-response","148","191553","0.0-6.0-2.20","580","","","","","rectangles no change","null","null","","","critical","t","c","d","240","164","164","240","220.0396","154.6796","trueblood","0.14","w","240","164","164","240","220.0396","154.6796","39360","39360","34035.6388","tc","null","null","null","null","null","null","[1,2]","517.9139203126612","422.85867906434953","481.7829262827712"
"","canvas-keyboard-response","149","192891","0.0-6.0-3.20","580","","","","","rectangles with change","null","null","","","critical","t","c","d","240","164","164","240","220.0396","154.6796","trueblood","0.14","w","240","164","164","240","220.0396","154.6796","39360","39360","34035.6388","tc","null","null","null","null","null","null","[1,2]","517.9139203126612","422.85867906434953","481.7829262827712"
"","canvas-keyboard-response","150","192913","0.0-6.0-4.20","580","","","","","clear_screen","null","null","","","critical","t","c","d","240","164","164","240","220.0396","154.6796","trueblood","0.14","w","240","164","164","240","220.0396","154.6796","39360","39360","34035.6388","tc","null","null","null","null","null","null","[1,2]","517.9139203126612","422.85867906434953","481.7829262827712"
"","canvas-keyboard-response","151","193274","0.0-6.0-5.20","580","","","","","make choice","354","1","","","critical","t","c","d","240","164","164","240","220.0396","154.6796","trueblood","0.14","w","240","164","164","240","220.0396","154.6796","39360","39360","34035.6388","tc","null","null","null","null","null","null","[1,2]","","",""
"","canvas-keyboard-response","152","193288","0.0-6.0-6.20","580","","","","","clear_screen","null","null","","","critical","t","c","d","240","164","164","240","220.0396","154.6796","trueblood","0.14","w","240","164","164","240","220.0396","154.6796","39360","39360","34035.6388","tc","null","null","null","null","null","null","[1,2]","","",""
"","canvas-keyboard-response","153","193489","0.0-6.0-0.21","580","","","","","pre trial waiting period","null","null","","","critical","t","d","c","240","164","232.8713","160.6713","164","240","spektor","0.05","w","240","164","164","240","232.8713","160.6713","39360","39360","37415.7294","dc","null","null","null","null","null","null","[2,3]","502.9337845246857","207.51596318900133","483.17336365220416"
"","canvas-keyboard-response","154","193508","0.0-6.0-1.21","580","","","","","clear_screen","null","null","","","critical","t","d","c","240","164","232.8713","160.6713","164","240","spektor","0.05","w","240","164","164","240","232.8713","160.6713","39360","39360","37415.7294","dc","null","null","null","null","null","null","[2,3]","502.9337845246857","207.51596318900133","483.17336365220416"
"","canvas-keyboard-response","155","194018","0.0-6.0-2.21","580","","","","","rectangles no change","null","null","","","critical","t","d","c","240","164","232.8713","160.6713","164","240","spektor","0.05","w","240","164","164","240","232.8713","160.6713","39360","39360","37415.7294","dc","null","null","null","null","null","null","[2,3]","502.9337845246857","207.51596318900133","483.17336365220416"
"","canvas-keyboard-response","156","195352","0.0-6.0-3.21","580","","","","","rectangles with change","null","null","","","critical","t","d","c","240","164","232.8713","160.6713","164","240","spektor","0.05","w","240","164","164","240","232.8713","160.6713","39360","39360","37415.7294","dc","null","null","null","null","null","null","[2,3]","502.9337845246857","207.51596318900133","483.17336365220416"
"","canvas-keyboard-response","157","195370","0.0-6.0-4.21","580","","","","","clear_screen","null","null","","","critical","t","d","c","240","164","232.8713","160.6713","164","240","spektor","0.05","w","240","164","164","240","232.8713","160.6713","39360","39360","37415.7294","dc","null","null","null","null","null","null","[2,3]","502.9337845246857","207.51596318900133","483.17336365220416"
"","canvas-keyboard-response","158","198011","0.0-6.0-5.21","580","","","","","make choice","2637","3","","","critical","t","d","c","240","164","232.8713","160.6713","164","240","spektor","0.05","w","240","164","164","240","232.8713","160.6713","39360","39360","37415.7294","dc","null","null","null","null","null","null","[2,3]","","",""
"","canvas-keyboard-response","159","198029","0.0-6.0-6.21","580","","","","","clear_screen","null","null","","","critical","t","d","c","240","164","232.8713","160.6713","164","240","spektor","0.05","w","240","164","164","240","232.8713","160.6713","39360","39360","37415.7294","dc","null","null","null","null","null","null","[2,3]","","",""
"","canvas-keyboard-response","160","198230","0.0-6.0-0.22","580","","","","","pre trial waiting period","null","null","","","critical","d","t","c","164","240","164","240","240","164","spektor","0","h","164","240","240","164","164","240","39360","39360","39360","dc","null","null","null","null","null","null","[1,3]","467.00126952629205","132.80237462213236","526.8474455799893"
"","canvas-keyboard-response","161","198249","0.0-6.0-1.22","580","","","","","clear_screen","null","null","","","critical","d","t","c","164","240","164","240","240","164","spektor","0","h","164","240","240","164","164","240","39360","39360","39360","dc","null","null","null","null","null","null","[1,3]","467.00126952629205","132.80237462213236","526.8474455799893"
"","canvas-keyboard-response","162","198754","0.0-6.0-2.22","580","","","","","rectangles no change","null","null","","","critical","d","t","c","164","240","164","240","240","164","spektor","0","h","164","240","240","164","164","240","39360","39360","39360","dc","null","null","null","null","null","null","[1,3]","467.00126952629205","132.80237462213236","526.8474455799893"
"","canvas-keyboard-response","163","200095","0.0-6.0-3.22","580","","","","","rectangles with change","null","null","","","critical","d","t","c","164","240","164","240","240","164","spektor","0","h","164","240","240","164","164","240","39360","39360","39360","dc","null","null","null","null","null","null","[1,3]","467.00126952629205","132.80237462213236","526.8474455799893"
"","canvas-keyboard-response","164","200117","0.0-6.0-4.22","580","","","","","clear_screen","null","null","","","critical","d","t","c","164","240","164","240","240","164","spektor","0","h","164","240","240","164","164","240","39360","39360","39360","dc","null","null","null","null","null","null","[1,3]","467.00126952629205","132.80237462213236","526.8474455799893"
"","canvas-keyboard-response","165","200708","0.0-6.0-5.22","580","","","","","make choice","584","3","","","critical","d","t","c","164","240","164","240","240","164","spektor","0","h","164","240","240","164","164","240","39360","39360","39360","dc","null","null","null","null","null","null","[1,3]","","",""
"","canvas-keyboard-response","166","200726","0.0-6.0-6.22","580","","","","","clear_screen","null","null","","","critical","d","t","c","164","240","164","240","240","164","spektor","0","h","164","240","240","164","164","240","39360","39360","39360","dc","null","null","null","null","null","null","[1,3]","","",""
"","canvas-keyboard-response","167","200929","0.0-6.0-0.23","580","","","","","pre trial waiting period","null","null","","","critical","c","t","d","240","164","164","240","154.6796","220.0396","spektor","0.14","h","164","240","240","164","154.6796","220.0396","39360","39360","34035.6388","dc","null","null","null","null","null","null","[3,1]","526.7041585383744","130.82531622110457","507.1962751503324"
"","canvas-keyboard-response","168","200951","0.0-6.0-1.23","580","","","","","clear_screen","null","null","","","critical","c","t","d","240","164","164","240","154.6796","220.0396","spektor","0.14","h","164","240","240","164","154.6796","220.0396","39360","39360","34035.6388","dc","null","null","null","null","null","null","[3,1]","526.7041585383744","130.82531622110457","507.1962751503324"
"","canvas-keyboard-response","169","201458","0.0-6.0-2.23","580","","","","","rectangles no change","null","null","","","critical","c","t","d","240","164","164","240","154.6796","220.0396","spektor","0.14","h","164","240","240","164","154.6796","220.0396","39360","39360","34035.6388","dc","null","null","null","null","null","null","[3,1]","526.7041585383744","130.82531622110457","507.1962751503324"
"","canvas-keyboard-response","170","202795","0.0-6.0-3.23","580","","","","","rectangles with change","null","null","","","critical","c","t","d","240","164","164","240","154.6796","220.0396","spektor","0.14","h","164","240","240","164","154.6796","220.0396","39360","39360","34035.6388","dc","null","null","null","null","null","null","[3,1]","526.7041585383744","130.82531622110457","507.1962751503324"
"","canvas-keyboard-response","171","202819","0.0-6.0-4.23","580","","","","","clear_screen","null","null","","","critical","c","t","d","240","164","164","240","154.6796","220.0396","spektor","0.14","h","164","240","240","164","154.6796","220.0396","39360","39360","34035.6388","dc","null","null","null","null","null","null","[3,1]","526.7041585383744","130.82531622110457","507.1962751503324"
"","canvas-keyboard-response","172","203140","0.0-6.0-5.23","580","","","","","make choice","316","1","","","critical","c","t","d","240","164","164","240","154.6796","220.0396","spektor","0.14","h","164","240","240","164","154.6796","220.0396","39360","39360","34035.6388","dc","null","null","null","null","null","null","[3,1]","","",""
"","canvas-keyboard-response","173","203159","0.0-6.0-6.23","580","","","","","clear_screen","null","null","","","critical","c","t","d","240","164","164","240","154.6796","220.0396","spektor","0.14","h","164","240","240","164","154.6796","220.0396","39360","39360","34035.6388","dc","null","null","null","null","null","null","[3,1]","","",""
"","canvas-keyboard-response","174","203360","0.0-6.0-0.24","580","","","","","pre trial waiting period","null","null","","","critical","c","d","t","240","164","162.6685","237.1485","164","240","spektor","0.02","h","164","240","240","164","162.6685","237.1485","39360","39360","38576.5967","tc","null","null","null","null","null","null","[3,1]","522.7460157588525","123.91056346559247","472.32109603141095"
"","canvas-keyboard-response","175","203381","0.0-6.0-1.24","580","","","","","clear_screen","null","null","","","critical","c","d","t","240","164","162.6685","237.1485","164","240","spektor","0.02","h","164","240","240","164","162.6685","237.1485","39360","39360","38576.5967","tc","null","null","null","null","null","null","[3,1]","522.7460157588525","123.91056346559247","472.32109603141095"
"","canvas-keyboard-response","176","203889","0.0-6.0-2.24","580","","","","","rectangles no change","null","null","","","critical","c","d","t","240","164","162.6685","237.1485","164","240","spektor","0.02","h","164","240","240","164","162.6685","237.1485","39360","39360","38576.5967","tc","null","null","null","null","null","null","[3,1]","522.7460157588525","123.91056346559247","472.32109603141095"
"","canvas-keyboard-response","177","205231","0.0-6.0-3.24","580","","","","","rectangles with change","null","null","","","critical","c","d","t","240","164","162.6685","237.1485","164","240","spektor","0.02","h","164","240","240","164","162.6685","237.1485","39360","39360","38576.5967","tc","null","null","null","null","null","null","[3,1]","522.7460157588525","123.91056346559247","472.32109603141095"
"","canvas-keyboard-response","178","205247","0.0-6.0-4.24","580","","","","","clear_screen","null","null","","","critical","c","d","t","240","164","162.6685","237.1485","164","240","spektor","0.02","h","164","240","240","164","162.6685","237.1485","39360","39360","38576.5967","tc","null","null","null","null","null","null","[3,1]","522.7460157588525","123.91056346559247","472.32109603141095"
"","canvas-keyboard-response","179","206538","0.0-6.0-5.24","580","","","","","make choice","1284","1","","","critical","c","d","t","240","164","162.6685","237.1485","164","240","spektor","0.02","h","164","240","240","164","162.6685","237.1485","39360","39360","38576.5967","tc","null","null","null","null","null","null","[3,1]","","",""
"","canvas-keyboard-response","180","206552","0.0-6.0-6.24","580","","","","","clear_screen","null","null","","","critical","c","d","t","240","164","162.6685","237.1485","164","240","spektor","0.02","h","164","240","240","164","162.6685","237.1485","39360","39360","38576.5967","tc","null","null","null","null","null","null","[3,1]","","",""
"","canvas-keyboard-response","181","206754","0.0-6.0-0.25","580","","","","","pre trial waiting period","null","null","","","critical","c","d","t","164","240","232.8713","160.6713","240","164","spektor","0.05","w","240","164","164","240","232.8713","160.6713","39360","39360","37415.7294","td","null","null","null","null","null","null","[3,2]","461.0012617172609","197.8991563363158","518.4543710707377"
"","canvas-keyboard-response","182","206774","0.0-6.0-1.25","580","","","","","clear_screen","null","null","","","critical","c","d","t","164","240","232.8713","160.6713","240","164","spektor","0.05","w","240","164","164","240","232.8713","160.6713","39360","39360","37415.7294","td","null","null","null","null","null","null","[3,2]","461.0012617172609","197.8991563363158","518.4543710707377"
"","canvas-keyboard-response","183","207280","0.0-6.0-2.25","580","","","","","rectangles no change","null","null","","","critical","c","d","t","164","240","232.8713","160.6713","240","164","spektor","0.05","w","240","164","164","240","232.8713","160.6713","39360","39360","37415.7294","td","null","null","null","null","null","null","[3,2]","461.0012617172609","197.8991563363158","518.4543710707377"
"","canvas-keyboard-response","184","208619","0.0-6.0-3.25","580","","","","","rectangles with change","null","null","","","critical","c","d","t","164","240","232.8713","160.6713","240","164","spektor","0.05","w","240","164","164","240","232.8713","160.6713","39360","39360","37415.7294","td","null","null","null","null","null","null","[3,2]","461.0012617172609","197.8991563363158","518.4543710707377"
"","canvas-keyboard-response","185","208639","0.0-6.0-4.25","580","","","","","clear_screen","null","null","","","critical","c","d","t","164","240","232.8713","160.6713","240","164","spektor","0.05","w","240","164","164","240","232.8713","160.6713","39360","39360","37415.7294","td","null","null","null","null","null","null","[3,2]","461.0012617172609","197.8991563363158","518.4543710707377"
"","canvas-keyboard-response","186","208956","0.0-6.0-5.25","580","","","","","make choice","312","3","","","critical","c","d","t","164","240","232.8713","160.6713","240","164","spektor","0.05","w","240","164","164","240","232.8713","160.6713","39360","39360","37415.7294","td","null","null","null","null","null","null","[3,2]","","",""
"","canvas-keyboard-response","187","208978","0.0-6.0-6.25","580","","","","","clear_screen","null","null","","","critical","c","d","t","164","240","232.8713","160.6713","240","164","spektor","0.05","w","240","164","164","240","232.8713","160.6713","39360","39360","37415.7294","td","null","null","null","null","null","null","[3,2]","","",""
"","canvas-keyboard-response","188","209179","0.0-6.0-0.26","580","","","","","pre trial waiting period","null","null","","","critical","t","d","c","240","164","240","164","164","240","spektor","0","w","240","164","164","240","240","164","39360","39360","39360","td","null","null","null","null","null","null","[1,2]","512.0972512151026","202.0791423879433","471.2387320032447"
"","canvas-keyboard-response","189","209203","0.0-6.0-1.26","580","","","","","clear_screen","null","null","","","critical","t","d","c","240","164","240","164","164","240","spektor","0","w","240","164","164","240","240","164","39360","39360","39360","td","null","null","null","null","null","null","[1,2]","512.0972512151026","202.0791423879433","471.2387320032447"
"","canvas-keyboard-response","190","209714","0.0-6.0-2.26","580","","","","","rectangles no change","null","null","","","critical","t","d","c","240","164","240","164","164","240","spektor","0","w","240","164","164","240","240","164","39360","39360","39360","td","null","null","null","null","null","null","[1,2]","512.0972512151026","202.0791423879433","471.2387320032447"
"","canvas-keyboard-response","191","211052","0.0-6.0-3.26","580","","","","","rectangles with change","null","null","","","critical","t","d","c","240","164","240","164","164","240","spektor","0","w","240","164","164","240","240","164","39360","39360","39360","td","null","null","null","null","null","null","[1,2]","512.0972512151026","202.0791423879433","471.2387320032447"
"","canvas-keyboard-response","192","211074","0.0-6.0-4.26","580","","","","","clear_screen","null","null","","","critical","t","d","c","240","164","240","164","164","240","spektor","0","w","240","164","164","240","240","164","39360","39360","39360","td","null","null","null","null","null","null","[1,2]","512.0972512151026","202.0791423879433","471.2387320032447"
"","canvas-keyboard-response","193","211339","0.0-6.0-5.26","580","","","","","make choice","261","1","","","critical","t","d","c","240","164","240","164","164","240","spektor","0","w","240","164","164","240","240","164","39360","39360","39360","td","null","null","null","null","null","null","[1,2]","","",""
"","canvas-keyboard-response","194","211359","0.0-6.0-6.26","580","","","","","clear_screen","null","null","","","critical","t","d","c","240","164","240","164","164","240","spektor","0","w","240","164","164","240","240","164","39360","39360","39360","td","null","null","null","null","null","null","[1,2]","","",""
"","canvas-keyboard-response","195","211561","0.0-6.0-0.27","580","","","","","pre trial waiting period","null","null","","","catch","l","sw","sh","185","245","217","228","198","191","spektor","null","null","null","null","null","null","null","null","null","null","null","","180","200","260","200","36000","52000","[1,3]","493.5579143629236","121.18516249893608","523.6712975465622"
"","canvas-keyboard-response","196","211583","0.0-6.0-1.27","580","","","","","clear_screen","null","null","","","catch","l","sw","sh","185","245","217","228","198","191","spektor","null","null","null","null","null","null","null","null","null","null","null","","180","200","260","200","36000","52000","[1,3]","493.5579143629236","121.18516249893608","523.6712975465622"
"","canvas-keyboard-response","197","212090","0.0-6.0-2.27","580","","","","","rectangles no change","null","null","","","catch","l","sw","sh","185","245","217","228","198","191","spektor","null","null","null","null","null","null","null","null","null","null","null","","180","200","260","200","36000","52000","[1,3]","493.5579143629236","121.18516249893608","523.6712975465622"
"","canvas-keyboard-response","198","213428","0.0-6.0-3.27","580","","","","","rectangles with change","null","null","","","catch","l","sw","sh","185","245","217","228","198","191","spektor","null","null","null","null","null","null","null","null","null","null","null","","180","200","260","200","36000","52000","[1,3]","493.5579143629236","121.18516249893608","523.6712975465622"
"","canvas-keyboard-response","199","213448","0.0-6.0-4.27","580","","","","","clear_screen","null","null","","","catch","l","sw","sh","185","245","217","228","198","191","spektor","null","null","null","null","null","null","null","null","null","null","null","","180","200","260","200","36000","52000","[1,3]","493.5579143629236","121.18516249893608","523.6712975465622"
"","canvas-keyboard-response","200","213723","0.0-6.0-5.27","580","","","","","make choice","270","1","","","catch","l","sw","sh","185","245","217","228","198","191","spektor","null","null","null","null","null","null","null","null","null","null","null","","180","200","260","200","36000","52000","[1,3]","","",""
"","canvas-keyboard-response","201","213743","0.0-6.0-6.27","580","","","","","clear_screen","null","null","","","catch","l","sw","sh","185","245","217","228","198","191","spektor","null","null","null","null","null","null","null","null","null","null","null","","180","200","260","200","36000","52000","[1,3]","","",""
"","canvas-keyboard-response","202","213944","0.0-6.0-0.28","580","","","","","pre trial waiting period","null","null","","","critical","c","d","t","164","240","240","164","240","164","trueblood","0","w","240","164","164","240","240","164","39360","39360","39360","td","null","null","null","null","null","null","[3,2]","451.0399225125069","473.90061967605175","503.5271864861181"
"","canvas-keyboard-response","203","213964","0.0-6.0-1.28","580","","","","","clear_screen","null","null","","","critical","c","d","t","164","240","240","164","240","164","trueblood","0","w","240","164","164","240","240","164","39360","39360","39360","td","null","null","null","null","null","null","[3,2]","451.0399225125069","473.90061967605175","503.5271864861181"
"","canvas-keyboard-response","204","214473","0.0-6.0-2.28","580","","","","","rectangles no change","null","null","","","critical","c","d","t","164","240","240","164","240","164","trueblood","0","w","240","164","164","240","240","164","39360","39360","39360","td","null","null","null","null","null","null","[3,2]","451.0399225125069","473.90061967605175","503.5271864861181"
"","canvas-keyboard-response","205","215809","0.0-6.0-3.28","580","","","","","rectangles with change","null","null","","","critical","c","d","t","164","240","240","164","240","164","trueblood","0","w","240","164","164","240","240","164","39360","39360","39360","td","null","null","null","null","null","null","[3,2]","451.0399225125069","473.90061967605175","503.5271864861181"
"","canvas-keyboard-response","206","215830","0.0-6.0-4.28","580","","","","","clear_screen","null","null","","","critical","c","d","t","164","240","240","164","240","164","trueblood","0","w","240","164","164","240","240","164","39360","39360","39360","td","null","null","null","null","null","null","[3,2]","451.0399225125069","473.90061967605175","503.5271864861181"
"","canvas-keyboard-response","207","216116","0.0-6.0-5.28","580","","","","","make choice","280","3","","","critical","c","d","t","164","240","240","164","240","164","trueblood","0","w","240","164","164","240","240","164","39360","39360","39360","td","null","null","null","null","null","null","[3,2]","","",""
"","canvas-keyboard-response","208","216135","0.0-6.0-6.28","580","","","","","clear_screen","null","null","","","critical","c","d","t","164","240","240","164","240","164","trueblood","0","w","240","164","164","240","240","164","39360","39360","39360","td","null","null","null","null","null","null","[3,2]","","",""
"","canvas-keyboard-response","209","216336","0.0-6.0-0.29","580","","","","","pre trial waiting period","null","null","","","catch","l","sh","sw","203","274","194","186","189","222","trueblood","null","null","null","null","null","null","null","null","null","null","null","","180","200","260","200","36000","52000","[1,3]","431.7241184439687","476.189442120451","442.5167189398589"
"","canvas-keyboard-response","210","216351","0.0-6.0-1.29","580","","","","","clear_screen","null","null","","","catch","l","sh","sw","203","274","194","186","189","222","trueblood","null","null","null","null","null","null","null","null","null","null","null","","180","200","260","200","36000","52000","[1,3]","431.7241184439687","476.189442120451","442.5167189398589"
"","canvas-keyboard-response","211","216859","0.0-6.0-2.29","580","","","","","rectangles no change","null","null","","","catch","l","sh","sw","203","274","194","186","189","222","trueblood","null","null","null","null","null","null","null","null","null","null","null","","180","200","260","200","36000","52000","[1,3]","431.7241184439687","476.189442120451","442.5167189398589"
"","canvas-keyboard-response","212","218198","0.0-6.0-3.29","580","","","","","rectangles with change","null","null","","","catch","l","sh","sw","203","274","194","186","189","222","trueblood","null","null","null","null","null","null","null","null","null","null","null","","180","200","260","200","36000","52000","[1,3]","431.7241184439687","476.189442120451","442.5167189398589"
"","canvas-keyboard-response","213","218220","0.0-6.0-4.29","580","","","","","clear_screen","null","null","","","catch","l","sh","sw","203","274","194","186","189","222","trueblood","null","null","null","null","null","null","null","null","null","null","null","","180","200","260","200","36000","52000","[1,3]","431.7241184439687","476.189442120451","442.5167189398589"
"","canvas-keyboard-response","214","218450","0.0-6.0-5.29","580","","","","","make choice","223","1","","","catch","l","sh","sw","203","274","194","186","189","222","trueblood","null","null","null","null","null","null","null","null","null","null","null","","180","200","260","200","36000","52000","[1,3]","","",""
"","canvas-keyboard-response","215","218470","0.0-6.0-6.29","580","","","","","clear_screen","null","null","","","catch","l","sh","sw","203","274","194","186","189","222","trueblood","null","null","null","null","null","null","null","null","null","null","null","","180","200","260","200","36000","52000","[1,3]","","",""
"","canvas-keyboard-response","216","218671","0.0-6.0-0.30","580","","","","","pre trial waiting period","null","null","","","critical","d","c","t","237.1485","162.6685","164","240","240","164","trueblood","0.02","w","240","164","164","240","237.1485","162.6685","39360","39360","38576.5967","tc","null","null","null","null","null","null","[3,2]","512.2975979453704","422.6047501124578","483.00285251282446"
"","canvas-keyboard-response","217","218693","0.0-6.0-1.30","580","","","","","clear_screen","null","null","","","critical","d","c","t","237.1485","162.6685","164","240","240","164","trueblood","0.02","w","240","164","164","240","237.1485","162.6685","39360","39360","38576.5967","tc","null","null","null","null","null","null","[3,2]","512.2975979453704","422.6047501124578","483.00285251282446"
"","canvas-keyboard-response","218","219199","0.0-6.0-2.30","580","","","","","rectangles no change","null","null","","","critical","d","c","t","237.1485","162.6685","164","240","240","164","trueblood","0.02","w","240","164","164","240","237.1485","162.6685","39360","39360","38576.5967","tc","null","null","null","null","null","null","[3,2]","512.2975979453704","422.6047501124578","483.00285251282446"
"","canvas-keyboard-response","219","220538","0.0-6.0-3.30","580","","","","","rectangles with change","null","null","","","critical","d","c","t","237.1485","162.6685","164","240","240","164","trueblood","0.02","w","240","164","164","240","237.1485","162.6685","39360","39360","38576.5967","tc","null","null","null","null","null","null","[3,2]","512.2975979453704","422.6047501124578","483.00285251282446"
"","canvas-keyboard-response","220","220558","0.0-6.0-4.30","580","","","","","clear_screen","null","null","","","critical","d","c","t","237.1485","162.6685","164","240","240","164","trueblood","0.02","w","240","164","164","240","237.1485","162.6685","39360","39360","38576.5967","tc","null","null","null","null","null","null","[3,2]","512.2975979453704","422.6047501124578","483.00285251282446"
"","canvas-keyboard-response","221","220779","0.0-6.0-5.30","580","","","","","make choice","218","3","","","critical","d","c","t","237.1485","162.6685","164","240","240","164","trueblood","0.02","w","240","164","164","240","237.1485","162.6685","39360","39360","38576.5967","tc","null","null","null","null","null","null","[3,2]","","",""
"","canvas-keyboard-response","222","220799","0.0-6.0-6.30","580","","","","","clear_screen","null","null","","","critical","d","c","t","237.1485","162.6685","164","240","240","164","trueblood","0.02","w","240","164","164","240","237.1485","162.6685","39360","39360","38576.5967","tc","null","null","null","null","null","null","[3,2]","","",""
"","canvas-keyboard-response","223","221000","0.0-6.0-0.31","580","","","","","pre trial waiting period","null","null","","","critical","d","c","t","227.1683","158.0083","164","240","240","164","trueblood","0.09","w","240","164","164","240","227.1683","158.0083","39360","39360","35894.4834","tc","null","null","null","null","null","null","[3,2]","500.53105392495655","453.1915831014345","486.6909009958489"
"","canvas-keyboard-response","224","221020","0.0-6.0-1.31","580","","","","","clear_screen","null","null","","","critical","d","c","t","227.1683","158.0083","164","240","240","164","trueblood","0.09","w","240","164","164","240","227.1683","158.0083","39360","39360","35894.4834","tc","null","null","null","null","null","null","[3,2]","500.53105392495655","453.1915831014345","486.6909009958489"
"","canvas-keyboard-response","225","221527","0.0-6.0-2.31","580","","","","","rectangles no change","null","null","","","critical","d","c","t","227.1683","158.0083","164","240","240","164","trueblood","0.09","w","240","164","164","240","227.1683","158.0083","39360","39360","35894.4834","tc","null","null","null","null","null","null","[3,2]","500.53105392495655","453.1915831014345","486.6909009958489"
"","canvas-keyboard-response","226","222865","0.0-6.0-3.31","580","","","","","rectangles with change","null","null","","","critical","d","c","t","227.1683","158.0083","164","240","240","164","trueblood","0.09","w","240","164","164","240","227.1683","158.0083","39360","39360","35894.4834","tc","null","null","null","null","null","null","[3,2]","500.53105392495655","453.1915831014345","486.6909009958489"
"","canvas-keyboard-response","227","222885","0.0-6.0-4.31","580","","","","","clear_screen","null","null","","","critical","d","c","t","227.1683","158.0083","164","240","240","164","trueblood","0.09","w","240","164","164","240","227.1683","158.0083","39360","39360","35894.4834","tc","null","null","null","null","null","null","[3,2]","500.53105392495655","453.1915831014345","486.6909009958489"
"","canvas-keyboard-response","228","223236","0.0-6.0-5.31","580","","","","","make choice","345","3","","","critical","d","c","t","227.1683","158.0083","164","240","240","164","trueblood","0.09","w","240","164","164","240","227.1683","158.0083","39360","39360","35894.4834","tc","null","null","null","null","null","null","[3,2]","","",""
"","canvas-keyboard-response","229","223255","0.0-6.0-6.31","580","","","","","clear_screen","null","null","","","critical","d","c","t","227.1683","158.0083","164","240","240","164","trueblood","0.09","w","240","164","164","240","227.1683","158.0083","39360","39360","35894.4834","tc","null","null","null","null","null","null","[3,2]","","",""
"","canvas-keyboard-response","230","223456","0.0-6.0-0.32","580","","","","","pre trial waiting period","null","null","","","critical","c","d","t","164","240","232.8713","160.6713","240","164","trueblood","0.05","w","240","164","164","240","232.8713","160.6713","39360","39360","37415.7294","td","null","null","null","null","null","null","[3,2]","435.08209121091113","471.9232665990303","517.1982018890511"
"","canvas-keyboard-response","231","223471","0.0-6.0-1.32","580","","","","","clear_screen","null","null","","","critical","c","d","t","164","240","232.8713","160.6713","240","164","trueblood","0.05","w","240","164","164","240","232.8713","160.6713","39360","39360","37415.7294","td","null","null","null","null","null","null","[3,2]","435.08209121091113","471.9232665990303","517.1982018890511"
"","canvas-keyboard-response","232","223978","0.0-6.0-2.32","580","","","","","rectangles no change","null","null","","","critical","c","d","t","164","240","232.8713","160.6713","240","164","trueblood","0.05","w","240","164","164","240","232.8713","160.6713","39360","39360","37415.7294","td","null","null","null","null","null","null","[3,2]","435.08209121091113","471.9232665990303","517.1982018890511"
"","canvas-keyboard-response","233","225313","0.0-6.0-3.32","580","","","","","rectangles with change","null","null","","","critical","c","d","t","164","240","232.8713","160.6713","240","164","trueblood","0.05","w","240","164","164","240","232.8713","160.6713","39360","39360","37415.7294","td","null","null","null","null","null","null","[3,2]","435.08209121091113","471.9232665990303","517.1982018890511"
"","canvas-keyboard-response","234","225328","0.0-6.0-4.32","580","","","","","clear_screen","null","null","","","critical","c","d","t","164","240","232.8713","160.6713","240","164","trueblood","0.05","w","240","164","164","240","232.8713","160.6713","39360","39360","37415.7294","td","null","null","null","null","null","null","[3,2]","435.08209121091113","471.9232665990303","517.1982018890511"
"","canvas-keyboard-response","235","225595","0.0-6.0-5.32","580","","","","","make choice","260","3","","","critical","c","d","t","164","240","232.8713","160.6713","240","164","trueblood","0.05","w","240","164","164","240","232.8713","160.6713","39360","39360","37415.7294","td","null","null","null","null","null","null","[3,2]","","",""
"","canvas-keyboard-response","236","225612","0.0-6.0-6.32","580","","","","","clear_screen","null","null","","","critical","c","d","t","164","240","232.8713","160.6713","240","164","trueblood","0.05","w","240","164","164","240","232.8713","160.6713","39360","39360","37415.7294","td","null","null","null","null","null","null","[3,2]","","",""
"","canvas-keyboard-response","237","225813","0.0-6.0-0.33","580","","","","","pre trial waiting period","null","null","","","critical","c","t","d","164","240","240","164","240","164","spektor","0","w","240","164","164","240","240","164","39360","39360","39360","dc","null","null","null","null","null","null","[3,1]","481.779154055997","211.90908781842552","529.1608277059539"
"","canvas-keyboard-response","238","225833","0.0-6.0-1.33","580","","","","","clear_screen","null","null","","","critical","c","t","d","164","240","240","164","240","164","spektor","0","w","240","164","164","240","240","164","39360","39360","39360","dc","null","null","null","null","null","null","[3,1]","481.779154055997","211.90908781842552","529.1608277059539"
"","canvas-keyboard-response","239","226345","0.0-6.0-2.33","580","","","","","rectangles no change","null","null","","","critical","c","t","d","164","240","240","164","240","164","spektor","0","w","240","164","164","240","240","164","39360","39360","39360","dc","null","null","null","null","null","null","[3,1]","481.779154055997","211.90908781842552","529.1608277059539"
"","canvas-keyboard-response","240","227680","0.0-6.0-3.33","580","","","","","rectangles with change","null","null","","","critical","c","t","d","164","240","240","164","240","164","spektor","0","w","240","164","164","240","240","164","39360","39360","39360","dc","null","null","null","null","null","null","[3,1]","481.779154055997","211.90908781842552","529.1608277059539"
"","canvas-keyboard-response","241","227703","0.0-6.0-4.33","580","","","","","clear_screen","null","null","","","critical","c","t","d","164","240","240","164","240","164","spektor","0","w","240","164","164","240","240","164","39360","39360","39360","dc","null","null","null","null","null","null","[3,1]","481.779154055997","211.90908781842552","529.1608277059539"
"","canvas-keyboard-response","242","227939","0.0-6.0-5.33","580","","","","","make choice","230","3","","","critical","c","t","d","164","240","240","164","240","164","spektor","0","w","240","164","164","240","240","164","39360","39360","39360","dc","null","null","null","null","null","null","[3,1]","","",""
"","canvas-keyboard-response","243","227957","0.0-6.0-6.33","580","","","","","clear_screen","null","null","","","critical","c","t","d","164","240","240","164","240","164","spektor","0","w","240","164","164","240","240","164","39360","39360","39360","dc","null","null","null","null","null","null","[3,1]","","",""
"","canvas-keyboard-response","244","228159","0.0-6.0-0.34","580","","","","","pre trial waiting period","null","null","","","catch","sh","sw","l","228","176","209","171","236","223","spektor","null","null","null","null","null","null","null","null","null","null","null","","180","200","260","200","36000","52000","[2,3]","523.9135862309611","181.29645401915468","479.430723516744"
"","canvas-keyboard-response","245","228181","0.0-6.0-1.34","580","","","","","clear_screen","null","null","","","catch","sh","sw","l","228","176","209","171","236","223","spektor","null","null","null","null","null","null","null","null","null","null","null","","180","200","260","200","36000","52000","[2,3]","523.9135862309611","181.29645401915468","479.430723516744"
"","canvas-keyboard-response","246","228686","0.0-6.0-2.34","580","","","","","rectangles no change","null","null","","","catch","sh","sw","l","228","176","209","171","236","223","spektor","null","null","null","null","null","null","null","null","null","null","null","","180","200","260","200","36000","52000","[2,3]","523.9135862309611","181.29645401915468","479.430723516744"
"","canvas-keyboard-response","247","230017","0.0-6.0-3.34","580","","","","","rectangles with change","null","null","","","catch","sh","sw","l","228","176","209","171","236","223","spektor","null","null","null","null","null","null","null","null","null","null","null","","180","200","260","200","36000","52000","[2,3]","523.9135862309611","181.29645401915468","479.430723516744"
"","canvas-keyboard-response","248","230039","0.0-6.0-4.34","580","","","","","clear_screen","null","null","","","catch","sh","sw","l","228","176","209","171","236","223","spektor","null","null","null","null","null","null","null","null","null","null","null","","180","200","260","200","36000","52000","[2,3]","523.9135862309611","181.29645401915468","479.430723516744"
"","canvas-keyboard-response","249","230436","0.0-6.0-5.34","580","","","","","make choice","390","3","","","catch","sh","sw","l","228","176","209","171","236","223","spektor","null","null","null","null","null","null","null","null","null","null","null","","180","200","260","200","36000","52000","[2,3]","","",""
"","canvas-keyboard-response","250","230453","0.0-6.0-6.34","580","","","","","clear_screen","null","null","","","catch","sh","sw","l","228","176","209","171","236","223","spektor","null","null","null","null","null","null","null","null","null","null","null","","180","200","260","200","36000","52000","[2,3]","","",""
"","canvas-keyboard-response","251","230654","0.0-6.0-0.35","580","","","","","pre trial waiting period","null","null","","","critical","c","t","d","240","164","164","240","164","240","trueblood","0","h","164","240","240","164","164","240","39360","39360","39360","dc","null","null","null","null","null","null","[3,1]","493.10683307994134","432.7440717448833","448.70055603665963"
"","canvas-keyboard-response","252","230674","0.0-6.0-1.35","580","","","","","clear_screen","null","null","","","critical","c","t","d","240","164","164","240","164","240","trueblood","0","h","164","240","240","164","164","240","39360","39360","39360","dc","null","null","null","null","null","null","[3,1]","493.10683307994134","432.7440717448833","448.70055603665963"
"","canvas-keyboard-response","253","231181","0.0-6.0-2.35","580","","","","","rectangles no change","null","null","","","critical","c","t","d","240","164","164","240","164","240","trueblood","0","h","164","240","240","164","164","240","39360","39360","39360","dc","null","null","null","null","null","null","[3,1]","493.10683307994134","432.7440717448833","448.70055603665963"
"","canvas-keyboard-response","254","232516","0.0-6.0-3.35","580","","","","","rectangles with change","null","null","","","critical","c","t","d","240","164","164","240","164","240","trueblood","0","h","164","240","240","164","164","240","39360","39360","39360","dc","null","null","null","null","null","null","[3,1]","493.10683307994134","432.7440717448833","448.70055603665963"
"","canvas-keyboard-response","255","232532","0.0-6.0-4.35","580","","","","","clear_screen","null","null","","","critical","c","t","d","240","164","164","240","164","240","trueblood","0","h","164","240","240","164","164","240","39360","39360","39360","dc","null","null","null","null","null","null","[3,1]","493.10683307994134","432.7440717448833","448.70055603665963"
"","canvas-keyboard-response","256","232884","0.0-6.0-5.35","580","","","","","make choice","346","1","","","critical","c","t","d","240","164","164","240","164","240","trueblood","0","h","164","240","240","164","164","240","39360","39360","39360","dc","null","null","null","null","null","null","[3,1]","","",""
"","canvas-keyboard-response","257","232905","0.0-6.0-6.35","580","","","","","clear_screen","null","null","","","critical","c","t","d","240","164","164","240","164","240","trueblood","0","h","164","240","240","164","164","240","39360","39360","39360","dc","null","null","null","null","null","null","[3,1]","","",""
"","canvas-keyboard-response","258","233106","0.0-6.0-0.36","580","","","","","pre trial waiting period","null","null","","","critical","c","d","t","240","164","160.6713","232.8713","164","240","spektor","0.05","h","164","240","240","164","160.6713","232.8713","39360","39360","37415.7294","tc","null","null","null","null","null","null","[3,1]","495.7950019349882","131.32982463966093","458.3834353896839"
"","canvas-keyboard-response","259","233128","0.0-6.0-1.36","580","","","","","clear_screen","null","null","","","critical","c","d","t","240","164","160.6713","232.8713","164","240","spektor","0.05","h","164","240","240","164","160.6713","232.8713","39360","39360","37415.7294","tc","null","null","null","null","null","null","[3,1]","495.7950019349882","131.32982463966093","458.3834353896839"
"","canvas-keyboard-response","260","233634","0.0-6.0-2.36","580","","","","","rectangles no change","null","null","","","critical","c","d","t","240","164","160.6713","232.8713","164","240","spektor","0.05","h","164","240","240","164","160.6713","232.8713","39360","39360","37415.7294","tc","null","null","null","null","null","null","[3,1]","495.7950019349882","131.32982463966093","458.3834353896839"
"","canvas-keyboard-response","261","234973","0.0-6.0-3.36","580","","","","","rectangles with change","null","null","","","critical","c","d","t","240","164","160.6713","232.8713","164","240","spektor","0.05","h","164","240","240","164","160.6713","232.8713","39360","39360","37415.7294","tc","null","null","null","null","null","null","[3,1]","495.7950019349882","131.32982463966093","458.3834353896839"
"","canvas-keyboard-response","262","234994","0.0-6.0-4.36","580","","","","","clear_screen","null","null","","","critical","c","d","t","240","164","160.6713","232.8713","164","240","spektor","0.05","h","164","240","240","164","160.6713","232.8713","39360","39360","37415.7294","tc","null","null","null","null","null","null","[3,1]","495.7950019349882","131.32982463966093","458.3834353896839"
"","canvas-keyboard-response","263","235243","0.0-6.0-5.36","580","","","","","make choice","242","1","","","critical","c","d","t","240","164","160.6713","232.8713","164","240","spektor","0.05","h","164","240","240","164","160.6713","232.8713","39360","39360","37415.7294","tc","null","null","null","null","null","null","[3,1]","","",""
"","canvas-keyboard-response","264","235263","0.0-6.0-6.36","580","","","","","clear_screen","null","null","","","critical","c","d","t","240","164","160.6713","232.8713","164","240","spektor","0.05","h","164","240","240","164","160.6713","232.8713","39360","39360","37415.7294","tc","null","null","null","null","null","null","[3,1]","","",""
"","canvas-keyboard-response","265","235464","0.0-6.0-0.37","580","","","","","pre trial waiting period","null","null","","","critical","d","c","t","220.0396","154.6796","164","240","240","164","spektor","0.14","w","240","164","164","240","220.0396","154.6796","39360","39360","34035.6388","tc","null","null","null","null","null","null","[3,2]","530.1460366136198","117.39122568943218","514.331513858238"
"","canvas-keyboard-response","266","235483","0.0-6.0-1.37","580","","","","","clear_screen","null","null","","","critical","d","c","t","220.0396","154.6796","164","240","240","164","spektor","0.14","w","240","164","164","240","220.0396","154.6796","39360","39360","34035.6388","tc","null","null","null","null","null","null","[3,2]","530.1460366136198","117.39122568943218","514.331513858238"
"","canvas-keyboard-response","267","235991","0.0-6.0-2.37","580","","","","","rectangles no change","null","null","","","critical","d","c","t","220.0396","154.6796","164","240","240","164","spektor","0.14","w","240","164","164","240","220.0396","154.6796","39360","39360","34035.6388","tc","null","null","null","null","null","null","[3,2]","530.1460366136198","117.39122568943218","514.331513858238"
"","canvas-keyboard-response","268","237331","0.0-6.0-3.37","580","","","","","rectangles with change","null","null","","","critical","d","c","t","220.0396","154.6796","164","240","240","164","spektor","0.14","w","240","164","164","240","220.0396","154.6796","39360","39360","34035.6388","tc","null","null","null","null","null","null","[3,2]","530.1460366136198","117.39122568943218","514.331513858238"
