"success","trial_type","trial_index","time_elapsed","internal_node_id","sub_n","timeout","failed_images","failed_audio","failed_video","screen_id","rt","response","stimulus","view_history","trial","r1","r2","r3","w1","h1","w2","h2","w3","h3","display","tdd","tdo","tw","th","cw","ch","dw","dh","ta","ca","da","probe","csls","csss","clls","clss","sa","la","probe_rects","r1yloc","r2yloc","r3yloc"
"true","fullscreen","0","2932","0.0-0.0","540","","","","","","","","","","","","","","","","","","","","","","","","","","","","","","","","","","","","","","","","","",""
"true","preload","1","2946","0.0-1.0","540","false","[]","[]","[]","img preload","","","","","","","","","","","","","","","","","","","","","","","","","","","","","","","","","","","","",""
"","survey-html-form","2","9270","0.0-2.0","540","","","","","enter-sub-number","6316","{""response"":""540""}","","","","","","","","","","","","","","","","","","","","","","","","","","","","","","","","","","",""
"","image-button-response","3","25293","0.0-3.0","540","","","","","","15956","0","consent.png","","","","","","","","","","","","","","","","","","","","","","","","","","","","","","","","","",""
"","html-button-response","4","40140","0.0-4.0","540","","","","","intro mssg","14841","0","<div style= ""font-size:25px;"" <p> <strong> Welcome! </strong><br> <p style=""color:#8B0000; font-size:25px;""><strong> Please do NOT exit full screen until you are done with the experiment. </strong> </p><p style=""font-size:25px;color:#8B0000;""> <strong> Your data will be lost <br> if you try to go back or refresh the page after the experiment starts. Feel free to click ""previous"" during the instructions, however.</strong> </p><br><p> <strong> Thanks in advance for your contribution to our research! </strong></p>","","","","","","","","","","","","","","","","","","","","","","","","","","","","","","","","","",""
"","instructions","5","131323","0.0-5.0","540","","","","","instructions","91178","","","[{""page_index"":0,""viewing_time"":42586},{""page_index"":1,""viewing_time"":13640},{""page_index"":2,""viewing_time"":2898},{""page_index"":3,""viewing_time"":14742},{""page_index"":4,""viewing_time"":5240},{""page_index"":5,""viewing_time"":3744},{""page_index"":6,""viewing_time"":5832},{""page_index"":7,""viewing_time"":2496}]","","","","","","","","","","","","","","","","","","","","","","","","","","","","","","","","",""
"","canvas-keyboard-response","6","131529","0.0-6.0-0.0","540","","","","","pre trial waiting period","null","null","","","critical","d","c","t","164","240","240","164","164","240","trueblood","0","h","164","240","240","164","164","240","39360","39360","39360","tc","null","null","null","null","null","null","[3,2]","444.04837912548135","482.5807727137203","419.78062808285955"
"","canvas-keyboard-response","7","131552","0.0-6.0-1.0","540","","","","","clear_screen","null","null","","","critical","d","c","t","164","240","240","164","164","240","trueblood","0","h","164","240","240","164","164","240","39360","39360","39360","tc","null","null","null","null","null","null","[3,2]","444.04837912548135","482.5807727137203","419.78062808285955"
"","canvas-keyboard-response","8","132066","0.0-6.0-2.0","540","","","","","rectangles no change","null","null","","","critical","d","c","t","164","240","240","164","164","240","trueblood","0","h","164","240","240","164","164","240","39360","39360","39360","tc","null","null","null","null","null","null","[3,2]","444.04837912548135","482.5807727137203","419.78062808285955"
"","canvas-keyboard-response","9","133402","0.0-6.0-3.0","540","","","","","rectangles with change","null","null","","","critical","d","c","t","164","240","240","164","164","240","trueblood","0","h","164","240","240","164","164","240","39360","39360","39360","tc","null","null","null","null","null","null","[3,2]","444.04837912548135","482.5807727137203","419.78062808285955"
"","canvas-keyboard-response","10","133420","0.0-6.0-4.0","540","","","","","clear_screen","null","null","","","critical","d","c","t","164","240","240","164","164","240","trueblood","0","h","164","240","240","164","164","240","39360","39360","39360","tc","null","null","null","null","null","null","[3,2]","444.04837912548135","482.5807727137203","419.78062808285955"
"","canvas-keyboard-response","11","136208","0.0-6.0-5.0","540","","","","","make choice","2780","2","","","critical","d","c","t","164","240","240","164","164","240","trueblood","0","h","164","240","240","164","164","240","39360","39360","39360","tc","null","null","null","null","null","null","[3,2]","","",""
"","canvas-keyboard-response","12","136228","0.0-6.0-6.0","540","","","","","clear_screen","null","null","","","critical","d","c","t","164","240","240","164","164","240","trueblood","0","h","164","240","240","164","164","240","39360","39360","39360","tc","null","null","null","null","null","null","[3,2]","","",""
"","canvas-keyboard-response","13","136430","0.0-6.0-0.1","540","","","","","pre trial waiting period","null","null","","","catch","sw","sh","l","180","200","207","195","233","197","trueblood","null","null","null","null","null","null","null","null","null","null","null","","180","200","260","200","36000","52000","[1,3]","458.04604970498076","490.08458278801925","477.1971962878023"
"","canvas-keyboard-response","14","136452","0.0-6.0-1.1","540","","","","","clear_screen","null","null","","","catch","sw","sh","l","180","200","207","195","233","197","trueblood","null","null","null","null","null","null","null","null","null","null","null","","180","200","260","200","36000","52000","[1,3]","458.04604970498076","490.08458278801925","477.1971962878023"
"","canvas-keyboard-response","15","136957","0.0-6.0-2.1","540","","","","","rectangles no change","null","null","","","catch","sw","sh","l","180","200","207","195","233","197","trueblood","null","null","null","null","null","null","null","null","null","null","null","","180","200","260","200","36000","52000","[1,3]","458.04604970498076","490.08458278801925","477.1971962878023"
"","canvas-keyboard-response","16","138293","0.0-6.0-3.1","540","","","","","rectangles with change","null","null","","","catch","sw","sh","l","180","200","207","195","233","197","trueblood","null","null","null","null","null","null","null","null","null","null","null","","180","200","260","200","36000","52000","[1,3]","458.04604970498076","490.08458278801925","477.1971962878023"
"","canvas-keyboard-response","17","138309","0.0-6.0-4.1","540","","","","","clear_screen","null","null","","","catch","sw","sh","l","180","200","207","195","233","197","trueblood","null","null","null","null","null","null","null","null","null","null","null","","180","200","260","200","36000","52000","[1,3]","458.04604970498076","490.08458278801925","477.1971962878023"
"","canvas-keyboard-response","18","139711","0.0-6.0-5.1","540","","","","","make choice","1390","3","","","catch","sw","sh","l","180","200","207","195","233","197","trueblood","null","null","null","null","null","null","null","null","null","null","null","","180","200","260","200","36000","52000","[1,3]","","",""
"","canvas-keyboard-response","19","139731","0.0-6.0-6.1","540","","","","","clear_screen","null","null","","","catch","sw","sh","l","180","200","207","195","233","197","trueblood","null","null","null","null","null","null","null","null","null","null","null","","180","200","260","200","36000","52000","[1,3]","","",""
"","canvas-keyboard-response","20","139932","0.0-6.0-0.2","540","","","","","pre trial waiting period","null","null","","","catch","sw","sh","l","180","200","230","213","253","185","spektor","null","null","null","null","null","null","null","null","null","null","null","","180","200","260","200","36000","52000","[1,3]","515.0655928729467","162.52940685165368","514.6647336327669"
"","canvas-keyboard-response","21","139950","0.0-6.0-1.2","540","","","","","clear_screen","null","null","","","catch","sw","sh","l","180","200","230","213","253","185","spektor","null","null","null","null","null","null","null","null","null","null","null","","180","200","260","200","36000","52000","[1,3]","515.0655928729467","162.52940685165368","514.6647336327669"
"","canvas-keyboard-response","22","140456","0.0-6.0-2.2","540","","","","","rectangles no change","null","null","","","catch","sw","sh","l","180","200","230","213","253","185","spektor","null","null","null","null","null","null","null","null","null","null","null","","180","200","260","200","36000","52000","[1,3]","515.0655928729467","162.52940685165368","514.6647336327669"
"","canvas-keyboard-response","23","141795","0.0-6.0-3.2","540","","","","","rectangles with change","null","null","","","catch","sw","sh","l","180","200","230","213","253","185","spektor","null","null","null","null","null","null","null","null","null","null","null","","180","200","260","200","36000","52000","[1,3]","515.0655928729467","162.52940685165368","514.6647336327669"
"","canvas-keyboard-response","24","141817","0.0-6.0-4.2","540","","","","","clear_screen","null","null","","","catch","sw","sh","l","180","200","230","213","253","185","spektor","null","null","null","null","null","null","null","null","null","null","null","","180","200","260","200","36000","52000","[1,3]","515.0655928729467","162.52940685165368","514.6647336327669"
"","canvas-keyboard-response","25","142935","0.0-6.0-5.2","540","","","","","make choice","1115","3","","","catch","sw","sh","l","180","200","230","213","253","185","spektor","null","null","null","null","null","null","null","null","null","null","null","","180","200","260","200","36000","52000","[1,3]","","",""
"","canvas-keyboard-response","26","142953","0.0-6.0-6.2","540","","","","","clear_screen","null","null","","","catch","sw","sh","l","180","200","230","213","253","185","spektor","null","null","null","null","null","null","null","null","null","null","null","","180","200","260","200","36000","52000","[1,3]","","",""
"","canvas-keyboard-response","27","143154","0.0-6.0-0.3","540","","","","","pre trial waiting period","null","null","","","critical","d","t","c","237.1485","162.6685","240","164","164","240","spektor","0.02","w","240","164","164","240","237.1485","162.6685","39360","39360","38576.5967","td","null","null","null","null","null","null","[2,1]","539.7505723613552","172.97707243681563","496.6037868341729"
"","canvas-keyboard-response","28","143177","0.0-6.0-1.3","540","","","","","clear_screen","null","null","","","critical","d","t","c","237.1485","162.6685","240","164","164","240","spektor","0.02","w","240","164","164","240","237.1485","162.6685","39360","39360","38576.5967","td","null","null","null","null","null","null","[2,1]","539.7505723613552","172.97707243681563","496.6037868341729"
"","canvas-keyboard-response","29","143684","0.0-6.0-2.3","540","","","","","rectangles no change","null","null","","","critical","d","t","c","237.1485","162.6685","240","164","164","240","spektor","0.02","w","240","164","164","240","237.1485","162.6685","39360","39360","38576.5967","td","null","null","null","null","null","null","[2,1]","539.7505723613552","172.97707243681563","496.6037868341729"
"","canvas-keyboard-response","30","145020","0.0-6.0-3.3","540","","","","","rectangles with change","null","null","","","critical","d","t","c","237.1485","162.6685","240","164","164","240","spektor","0.02","w","240","164","164","240","237.1485","162.6685","39360","39360","38576.5967","td","null","null","null","null","null","null","[2,1]","539.7505723613552","172.97707243681563","496.6037868341729"
"","canvas-keyboard-response","31","145039","0.0-6.0-4.3","540","","","","","clear_screen","null","null","","","critical","d","t","c","237.1485","162.6685","240","164","164","240","spektor","0.02","w","240","164","164","240","237.1485","162.6685","39360","39360","38576.5967","td","null","null","null","null","null","null","[2,1]","539.7505723613552","172.97707243681563","496.6037868341729"
"","canvas-keyboard-response","32","146215","0.0-6.0-5.3","540","","","","","make choice","1171","2","","","critical","d","t","c","237.1485","162.6685","240","164","164","240","spektor","0.02","w","240","164","164","240","237.1485","162.6685","39360","39360","38576.5967","td","null","null","null","null","null","null","[2,1]","","",""
"","canvas-keyboard-response","33","146236","0.0-6.0-6.3","540","","","","","clear_screen","null","null","","","critical","d","t","c","237.1485","162.6685","240","164","164","240","spektor","0.02","w","240","164","164","240","237.1485","162.6685","39360","39360","38576.5967","td","null","null","null","null","null","null","[2,1]","","",""
"","canvas-keyboard-response","34","146437","0.0-6.0-0.4","540","","","","","pre trial waiting period","null","null","","","critical","c","t","d","164","240","240","164","240","164","spektor","0","w","240","164","164","240","240","164","39360","39360","39360","tc","null","null","null","null","null","null","[2,1]","464.03799084267814","210.0627969721376","510.29821270645937"
"","canvas-keyboard-response","35","146460","0.0-6.0-1.4","540","","","","","clear_screen","null","null","","","critical","c","t","d","164","240","240","164","240","164","spektor","0","w","240","164","164","240","240","164","39360","39360","39360","tc","null","null","null","null","null","null","[2,1]","464.03799084267814","210.0627969721376","510.29821270645937"
"","canvas-keyboard-response","36","146968","0.0-6.0-2.4","540","","","","","rectangles no change","null","null","","","critical","c","t","d","164","240","240","164","240","164","spektor","0","w","240","164","164","240","240","164","39360","39360","39360","tc","null","null","null","null","null","null","[2,1]","464.03799084267814","210.0627969721376","510.29821270645937"
"","canvas-keyboard-response","37","148304","0.0-6.0-3.4","540","","","","","rectangles with change","null","null","","","critical","c","t","d","164","240","240","164","240","164","spektor","0","w","240","164","164","240","240","164","39360","39360","39360","tc","null","null","null","null","null","null","[2,1]","464.03799084267814","210.0627969721376","510.29821270645937"
"","canvas-keyboard-response","38","148327","0.0-6.0-4.4","540","","","","","clear_screen","null","null","","","critical","c","t","d","164","240","240","164","240","164","spektor","0","w","240","164","164","240","240","164","39360","39360","39360","tc","null","null","null","null","null","null","[2,1]","464.03799084267814","210.0627969721376","510.29821270645937"
"","canvas-keyboard-response","39","149552","0.0-6.0-5.4","540","","","","","make choice","1218","1","","","critical","c","t","d","164","240","240","164","240","164","spektor","0","w","240","164","164","240","240","164","39360","39360","39360","tc","null","null","null","null","null","null","[2,1]","","",""
"","canvas-keyboard-response","40","149569","0.0-6.0-6.4","540","","","","","clear_screen","null","null","","","critical","c","t","d","164","240","240","164","240","164","spektor","0","w","240","164","164","240","240","164","39360","39360","39360","tc","null","null","null","null","null","null","[2,1]","","",""
"","canvas-keyboard-response","41","149771","0.0-6.0-0.5","540","","","","","pre trial waiting period","null","null","","","catch","sw","l","sh","180","200","294","203","209","208","trueblood","null","null","null","null","null","null","null","null","null","null","null","","180","200","260","200","36000","52000","[2,3]","481.0020943543243","490.9894111663113","455.36934352379313"
"","canvas-keyboard-response","42","149790","0.0-6.0-1.5","540","","","","","clear_screen","null","null","","","catch","sw","l","sh","180","200","294","203","209","208","trueblood","null","null","null","null","null","null","null","null","null","null","null","","180","200","260","200","36000","52000","[2,3]","481.0020943543243","490.9894111663113","455.36934352379313"
"","canvas-keyboard-response","43","150300","0.0-6.0-2.5","540","","","","","rectangles no change","null","null","","","catch","sw","l","sh","180","200","294","203","209","208","trueblood","null","null","null","null","null","null","null","null","null","null","null","","180","200","260","200","36000","52000","[2,3]","481.0020943543243","490.9894111663113","455.36934352379313"
"","canvas-keyboard-response","44","151634","0.0-6.0-3.5","540","","","","","rectangles with change","null","null","","","catch","sw","l","sh","180","200","294","203","209","208","trueblood","null","null","null","null","null","null","null","null","null","null","null","","180","200","260","200","36000","52000","[2,3]","481.0020943543243","490.9894111663113","455.36934352379313"
"","canvas-keyboard-response","45","151652","0.0-6.0-4.5","540","","","","","clear_screen","null","null","","","catch","sw","l","sh","180","200","294","203","209","208","trueblood","null","null","null","null","null","null","null","null","null","null","null","","180","200","260","200","36000","52000","[2,3]","481.0020943543243","490.9894111663113","455.36934352379313"
"","canvas-keyboard-response","46","152415","0.0-6.0-5.5","540","","","","","make choice","758","2","","","catch","sw","l","sh","180","200","294","203","209","208","trueblood","null","null","null","null","null","null","null","null","null","null","null","","180","200","260","200","36000","52000","[2,3]","","",""
"","canvas-keyboard-response","47","152435","0.0-6.0-6.5","540","","","","","clear_screen","null","null","","","catch","sw","l","sh","180","200","294","203","209","208","trueblood","null","null","null","null","null","null","null","null","null","null","null","","180","200","260","200","36000","52000","[2,3]","","",""
"","canvas-keyboard-response","48","152636","0.0-6.0-0.6","540","","","","","pre trial waiting period","null","null","","","critical","t","c","d","240","164","164","240","237.1485","162.6685","trueblood","0.02","w","240","164","164","240","237.1485","162.6685","39360","39360","38576.5967","td","null","null","null","null","null","null","[1,3]","511.2322568946649","423.7006335361947","500.63445295383536"
"","canvas-keyboard-response","49","152659","0.0-6.0-1.6","540","","","","","clear_screen","null","null","","","critical","t","c","d","240","164","164","240","237.1485","162.6685","trueblood","0.02","w","240","164","164","240","237.1485","162.6685","39360","39360","38576.5967","td","null","null","null","null","null","null","[1,3]","511.2322568946649","423.7006335361947","500.63445295383536"
"","canvas-keyboard-response","50","153167","0.0-6.0-2.6","540","","","","","rectangles no change","null","null","","","critical","t","c","d","240","164","164","240","237.1485","162.6685","trueblood","0.02","w","240","164","164","240","237.1485","162.6685","39360","39360","38576.5967","td","null","null","null","null","null","null","[1,3]","511.2322568946649","423.7006335361947","500.63445295383536"
"","canvas-keyboard-response","51","154502","0.0-6.0-3.6","540","","","","","rectangles with change","null","null","","","critical","t","c","d","240","164","164","240","237.1485","162.6685","trueblood","0.02","w","240","164","164","240","237.1485","162.6685","39360","39360","38576.5967","td","null","null","null","null","null","null","[1,3]","511.2322568946649","423.7006335361947","500.63445295383536"
"","canvas-keyboard-response","52","154522","0.0-6.0-4.6","540","","","","","clear_screen","null","null","","","critical","t","c","d","240","164","164","240","237.1485","162.6685","trueblood","0.02","w","240","164","164","240","237.1485","162.6685","39360","39360","38576.5967","td","null","null","null","null","null","null","[1,3]","511.2322568946649","423.7006335361947","500.63445295383536"
"","canvas-keyboard-response","53","155999","0.0-6.0-5.6","540","","","","","make choice","1472","1","","","critical","t","c","d","240","164","164","240","237.1485","162.6685","trueblood","0.02","w","240","164","164","240","237.1485","162.6685","39360","39360","38576.5967","td","null","null","null","null","null","null","[1,3]","","",""
"","canvas-keyboard-response","54","156020","0.0-6.0-6.6","540","","","","","clear_screen","null","null","","","critical","t","c","d","240","164","164","240","237.1485","162.6685","trueblood","0.02","w","240","164","164","240","237.1485","162.6685","39360","39360","38576.5967","td","null","null","null","null","null","null","[1,3]","","",""
"","canvas-keyboard-response","55","156220","0.0-6.0-0.7","540","","","","","pre trial waiting period","null","null","","","catch","sh","l","sw","180","200","185","221","162","219","spektor","null","null","null","null","null","null","null","null","null","null","null","","180","200","260","200","36000","52000","[1,2]","480.9925618000794","142.5125434671784","465.8708432142204"
"","canvas-keyboard-response","56","156243","0.0-6.0-1.7","540","","","","","clear_screen","null","null","","","catch","sh","l","sw","180","200","185","221","162","219","spektor","null","null","null","null","null","null","null","null","null","null","null","","180","200","260","200","36000","52000","[1,2]","480.9925618000794","142.5125434671784","465.8708432142204"
"","canvas-keyboard-response","57","156750","0.0-6.0-2.7","540","","","","","rectangles no change","null","null","","","catch","sh","l","sw","180","200","185","221","162","219","spektor","null","null","null","null","null","null","null","null","null","null","null","","180","200","260","200","36000","52000","[1,2]","480.9925618000794","142.5125434671784","465.8708432142204"
"","canvas-keyboard-response","58","158088","0.0-6.0-3.7","540","","","","","rectangles with change","null","null","","","catch","sh","l","sw","180","200","185","221","162","219","spektor","null","null","null","null","null","null","null","null","null","null","null","","180","200","260","200","36000","52000","[1,2]","480.9925618000794","142.5125434671784","465.8708432142204"
"","canvas-keyboard-response","59","158109","0.0-6.0-4.7","540","","","","","clear_screen","null","null","","","catch","sh","l","sw","180","200","185","221","162","219","spektor","null","null","null","null","null","null","null","null","null","null","null","","180","200","260","200","36000","52000","[1,2]","480.9925618000794","142.5125434671784","465.8708432142204"
"","canvas-keyboard-response","60","158904","0.0-6.0-5.7","540","","","","","make choice","791","2","","","catch","sh","l","sw","180","200","185","221","162","219","spektor","null","null","null","null","null","null","null","null","null","null","null","","180","200","260","200","36000","52000","[1,2]","","",""
"","canvas-keyboard-response","61","158921","0.0-6.0-6.7","540","","","","","clear_screen","null","null","","","catch","sh","l","sw","180","200","185","221","162","219","spektor","null","null","null","null","null","null","null","null","null","null","null","","180","200","260","200","36000","52000","[1,2]","","",""
"","canvas-keyboard-response","62","159122","0.0-6.0-0.8","540","","","","","pre trial waiting period","null","null","","","critical","t","d","c","164","240","158.0083","227.1683","240","164","trueblood","0.09","h","164","240","240","164","158.0083","227.1683","39360","39360","35894.4834","tc","null","null","null","null","null","null","[1,3]","462.43705453058186","460.3661489245918","515.4320684934914"
"","canvas-keyboard-response","63","159142","0.0-6.0-1.8","540","","","","","clear_screen","null","null","","","critical","t","d","c","164","240","158.0083","227.1683","240","164","trueblood","0.09","h","164","240","240","164","158.0083","227.1683","39360","39360","35894.4834","tc","null","null","null","null","null","null","[1,3]","462.43705453058186","460.3661489245918","515.4320684934914"
"","canvas-keyboard-response","64","159648","0.0-6.0-2.8","540","","","","","rectangles no change","null","null","","","critical","t","d","c","164","240","158.0083","227.1683","240","164","trueblood","0.09","h","164","240","240","164","158.0083","227.1683","39360","39360","35894.4834","tc","null","null","null","null","null","null","[1,3]","462.43705453058186","460.3661489245918","515.4320684934914"
"","canvas-keyboard-response","65","160987","0.0-6.0-3.8","540","","","","","rectangles with change","null","null","","","critical","t","d","c","164","240","158.0083","227.1683","240","164","trueblood","0.09","h","164","240","240","164","158.0083","227.1683","39360","39360","35894.4834","tc","null","null","null","null","null","null","[1,3]","462.43705453058186","460.3661489245918","515.4320684934914"
"","canvas-keyboard-response","66","161006","0.0-6.0-4.8","540","","","","","clear_screen","null","null","","","critical","t","d","c","164","240","158.0083","227.1683","240","164","trueblood","0.09","h","164","240","240","164","158.0083","227.1683","39360","39360","35894.4834","tc","null","null","null","null","null","null","[1,3]","462.43705453058186","460.3661489245918","515.4320684934914"
"","canvas-keyboard-response","67","162047","0.0-6.0-5.8","540","","","","","make choice","1036","3","","","critical","t","d","c","164","240","158.0083","227.1683","240","164","trueblood","0.09","h","164","240","240","164","158.0083","227.1683","39360","39360","35894.4834","tc","null","null","null","null","null","null","[1,3]","","",""
"","canvas-keyboard-response","68","162067","0.0-6.0-6.8","540","","","","","clear_screen","null","null","","","critical","t","d","c","164","240","158.0083","227.1683","240","164","trueblood","0.09","h","164","240","240","164","158.0083","227.1683","39360","39360","35894.4834","tc","null","null","null","null","null","null","[1,3]","","",""
"","canvas-keyboard-response","69","162268","0.0-6.0-0.9","540","","","","","pre trial waiting period","null","null","","","critical","t","d","c","164","240","160.6713","232.8713","240","164","spektor","0.05","h","164","240","240","164","160.6713","232.8713","39360","39360","37415.7294","dc","null","null","null","null","null","null","[2,3]","503.1438915245008","108.45391285264901","522.591728369777"
"","canvas-keyboard-response","70","162288","0.0-6.0-1.9","540","","","","","clear_screen","null","null","","","critical","t","d","c","164","240","160.6713","232.8713","240","164","spektor","0.05","h","164","240","240","164","160.6713","232.8713","39360","39360","37415.7294","dc","null","null","null","null","null","null","[2,3]","503.1438915245008","108.45391285264901","522.591728369777"
"","canvas-keyboard-response","71","162795","0.0-6.0-2.9","540","","","","","rectangles no change","null","null","","","critical","t","d","c","164","240","160.6713","232.8713","240","164","spektor","0.05","h","164","240","240","164","160.6713","232.8713","39360","39360","37415.7294","dc","null","null","null","null","null","null","[2,3]","503.1438915245008","108.45391285264901","522.591728369777"
"","canvas-keyboard-response","72","164129","0.0-6.0-3.9","540","","","","","rectangles with change","null","null","","","critical","t","d","c","164","240","160.6713","232.8713","240","164","spektor","0.05","h","164","240","240","164","160.6713","232.8713","39360","39360","37415.7294","dc","null","null","null","null","null","null","[2,3]","503.1438915245008","108.45391285264901","522.591728369777"
"","canvas-keyboard-response","73","164150","0.0-6.0-4.9","540","","","","","clear_screen","null","null","","","critical","t","d","c","164","240","160.6713","232.8713","240","164","spektor","0.05","h","164","240","240","164","160.6713","232.8713","39360","39360","37415.7294","dc","null","null","null","null","null","null","[2,3]","503.1438915245008","108.45391285264901","522.591728369777"
"","canvas-keyboard-response","74","165711","0.0-6.0-5.9","540","","","","","make choice","1555","3","","","critical","t","d","c","164","240","160.6713","232.8713","240","164","spektor","0.05","h","164","240","240","164","160.6713","232.8713","39360","39360","37415.7294","dc","null","null","null","null","null","null","[2,3]","","",""
"","canvas-keyboard-response","75","165732","0.0-6.0-6.9","540","","","","","clear_screen","null","null","","","critical","t","d","c","164","240","160.6713","232.8713","240","164","spektor","0.05","h","164","240","240","164","160.6713","232.8713","39360","39360","37415.7294","dc","null","null","null","null","null","null","[2,3]","","",""
"","canvas-keyboard-response","76","165934","0.0-6.0-0.10","540","","","","","pre trial waiting period","null","null","","","catch","sh","l","sw","234","150","237","219","206","163","spektor","null","null","null","null","null","null","null","null","null","null","null","","180","200","260","200","36000","52000","[2,3]","509.45358585448594","172.2762063266931","519.6009245995116"
"","canvas-keyboard-response","77","165953","0.0-6.0-1.10","540","","","","","clear_screen","null","null","","","catch","sh","l","sw","234","150","237","219","206","163","spektor","null","null","null","null","null","null","null","null","null","null","null","","180","200","260","200","36000","52000","[2,3]","509.45358585448594","172.2762063266931","519.6009245995116"
"","canvas-keyboard-response","78","166460","0.0-6.0-2.10","540","","","","","rectangles no change","null","null","","","catch","sh","l","sw","234","150","237","219","206","163","spektor","null","null","null","null","null","null","null","null","null","null","null","","180","200","260","200","36000","52000","[2,3]","509.45358585448594","172.2762063266931","519.6009245995116"
"","canvas-keyboard-response","79","167799","0.0-6.0-3.10","540","","","","","rectangles with change","null","null","","","catch","sh","l","sw","234","150","237","219","206","163","spektor","null","null","null","null","null","null","null","null","null","null","null","","180","200","260","200","36000","52000","[2,3]","509.45358585448594","172.2762063266931","519.6009245995116"
"","canvas-keyboard-response","80","167816","0.0-6.0-4.10","540","","","","","clear_screen","null","null","","","catch","sh","l","sw","234","150","237","219","206","163","spektor","null","null","null","null","null","null","null","null","null","null","null","","180","200","260","200","36000","52000","[2,3]","509.45358585448594","172.2762063266931","519.6009245995116"
"","canvas-keyboard-response","81","168520","0.0-6.0-5.10","540","","","","","make choice","696","2","","","catch","sh","l","sw","234","150","237","219","206","163","spektor","null","null","null","null","null","null","null","null","null","null","null","","180","200","260","200","36000","52000","[2,3]","","",""
"","canvas-keyboard-response","82","168539","0.0-6.0-6.10","540","","","","","clear_screen","null","null","","","catch","sh","l","sw","234","150","237","219","206","163","spektor","null","null","null","null","null","null","null","null","null","null","null","","180","200","260","200","36000","52000","[2,3]","","",""
"","canvas-keyboard-response","83","168739","0.0-6.0-0.11","540","","","","","pre trial waiting period","null","null","","","critical","d","c","t","154.6796","220.0396","240","164","164","240","trueblood","0.14","h","164","240","240","164","154.6796","220.0396","39360","39360","34035.6388","td","null","null","null","null","null","null","[3,1]","472.2691193896863","486.2147476004997","439.62263198405753"
"","canvas-keyboard-response","84","168758","0.0-6.0-1.11","540","","","","","clear_screen","null","null","","","critical","d","c","t","154.6796","220.0396","240","164","164","240","trueblood","0.14","h","164","240","240","164","154.6796","220.0396","39360","39360","34035.6388","td","null","null","null","null","null","null","[3,1]","472.2691193896863","486.2147476004997","439.62263198405753"
"","canvas-keyboard-response","85","169264","0.0-6.0-2.11","540","","","","","rectangles no change","null","null","","","critical","d","c","t","154.6796","220.0396","240","164","164","240","trueblood","0.14","h","164","240","240","164","154.6796","220.0396","39360","39360","34035.6388","td","null","null","null","null","null","null","[3,1]","472.2691193896863","486.2147476004997","439.62263198405753"
"","canvas-keyboard-response","86","170598","0.0-6.0-3.11","540","","","","","rectangles with change","null","null","","","critical","d","c","t","154.6796","220.0396","240","164","164","240","trueblood","0.14","h","164","240","240","164","154.6796","220.0396","39360","39360","34035.6388","td","null","null","null","null","null","null","[3,1]","472.2691193896863","486.2147476004997","439.62263198405753"
"","canvas-keyboard-response","87","170620","0.0-6.0-4.11","540","","","","","clear_screen","null","null","","","critical","d","c","t","154.6796","220.0396","240","164","164","240","trueblood","0.14","h","164","240","240","164","154.6796","220.0396","39360","39360","34035.6388","td","null","null","null","null","null","null","[3,1]","472.2691193896863","486.2147476004997","439.62263198405753"
"","canvas-keyboard-response","88","171926","0.0-6.0-5.11","540","","","","","make choice","1303","1","","","critical","d","c","t","154.6796","220.0396","240","164","164","240","trueblood","0.14","h","164","240","240","164","154.6796","220.0396","39360","39360","34035.6388","td","null","null","null","null","null","null","[3,1]","","",""
"","canvas-keyboard-response","89","171948","0.0-6.0-6.11","540","","","","","clear_screen","null","null","","","critical","d","c","t","154.6796","220.0396","240","164","164","240","trueblood","0.14","h","164","240","240","164","154.6796","220.0396","39360","39360","34035.6388","td","null","null","null","null","null","null","[3,1]","","",""
"","canvas-keyboard-response","90","172149","0.0-6.0-0.12","540","","","","","pre trial waiting period","null","null","","","catch","sh","l","sw","206","179","221","284","209","170","trueblood","null","null","null","null","null","null","null","null","null","null","null","","180","200","260","200","36000","52000","[2,3]","459.266254535222","417.0263599804606","476.28298500369493"
"","canvas-keyboard-response","91","172167","0.0-6.0-1.12","540","","","","","clear_screen","null","null","","","catch","sh","l","sw","206","179","221","284","209","170","trueblood","null","null","null","null","null","null","null","null","null","null","null","","180","200","260","200","36000","52000","[2,3]","459.266254535222","417.0263599804606","476.28298500369493"
"","canvas-keyboard-response","92","172679","0.0-6.0-2.12","540","","","","","rectangles no change","null","null","","","catch","sh","l","sw","206","179","221","284","209","170","trueblood","null","null","null","null","null","null","null","null","null","null","null","","180","200","260","200","36000","52000","[2,3]","459.266254535222","417.0263599804606","476.28298500369493"
"","canvas-keyboard-response","93","174014","0.0-6.0-3.12","540","","","","","rectangles with change","null","null","","","catch","sh","l","sw","206","179","221","284","209","170","trueblood","null","null","null","null","null","null","null","null","null","null","null","","180","200","260","200","36000","52000","[2,3]","459.266254535222","417.0263599804606","476.28298500369493"
"","canvas-keyboard-response","94","174033","0.0-6.0-4.12","540","","","","","clear_screen","null","null","","","catch","sh","l","sw","206","179","221","284","209","170","trueblood","null","null","null","null","null","null","null","null","null","null","null","","180","200","260","200","36000","52000","[2,3]","459.266254535222","417.0263599804606","476.28298500369493"
"","canvas-keyboard-response","95","174719","0.0-6.0-5.12","540","","","","","make choice","681","2","","","catch","sh","l","sw","206","179","221","284","209","170","trueblood","null","null","null","null","null","null","null","null","null","null","null","","180","200","260","200","36000","52000","[2,3]","","",""
"","canvas-keyboard-response","96","174737","0.0-6.0-6.12","540","","","","","clear_screen","null","null","","","catch","sh","l","sw","206","179","221","284","209","170","trueblood","null","null","null","null","null","null","null","null","null","null","null","","180","200","260","200","36000","52000","[2,3]","","",""
"","canvas-keyboard-response","97","174939","0.0-6.0-0.13","540","","","","","pre trial waiting period","null","null","","","critical","d","t","c","154.6796","220.0396","164","240","240","164","spektor","0.14","h","164","240","240","164","154.6796","220.0396","39360","39360","34035.6388","td","null","null","null","null","null","null","[2,1]","472.8871623778661","132.30876171803098","540.2449442020942"
"","canvas-keyboard-response","98","174960","0.0-6.0-1.13","540","","","","","clear_screen","null","null","","","critical","d","t","c","154.6796","220.0396","164","240","240","164","spektor","0.14","h","164","240","240","164","154.6796","220.0396","39360","39360","34035.6388","td","null","null","null","null","null","null","[2,1]","472.8871623778661","132.30876171803098","540.2449442020942"
"","canvas-keyboard-response","99","175465","0.0-6.0-2.13","540","","","","","rectangles no change","null","null","","","critical","d","t","c","154.6796","220.0396","164","240","240","164","spektor","0.14","h","164","240","240","164","154.6796","220.0396","39360","39360","34035.6388","td","null","null","null","null","null","null","[2,1]","472.8871623778661","132.30876171803098","540.2449442020942"
"","canvas-keyboard-response","100","176799","0.0-6.0-3.13","540","","","","","rectangles with change","null","null","","","critical","d","t","c","154.6796","220.0396","164","240","240","164","spektor","0.14","h","164","240","240","164","154.6796","220.0396","39360","39360","34035.6388","td","null","null","null","null","null","null","[2,1]","472.8871623778661","132.30876171803098","540.2449442020942"
"","canvas-keyboard-response","101","176821","0.0-6.0-4.13","540","","","","","clear_screen","null","null","","","critical","d","t","c","154.6796","220.0396","164","240","240","164","spektor","0.14","h","164","240","240","164","154.6796","220.0396","39360","39360","34035.6388","td","null","null","null","null","null","null","[2,1]","472.8871623778661","132.30876171803098","540.2449442020942"
"","canvas-keyboard-response","102","177895","0.0-6.0-5.13","540","","","","","make choice","1068","1","","","critical","d","t","c","154.6796","220.0396","164","240","240","164","spektor","0.14","h","164","240","240","164","154.6796","220.0396","39360","39360","34035.6388","td","null","null","null","null","null","null","[2,1]","","",""
"","canvas-keyboard-response","103","177914","0.0-6.0-6.13","540","","","","","clear_screen","null","null","","","critical","d","t","c","154.6796","220.0396","164","240","240","164","spektor","0.14","h","164","240","240","164","154.6796","220.0396","39360","39360","34035.6388","td","null","null","null","null","null","null","[2,1]","","",""
"","canvas-keyboard-response","104","178115","0.0-6.0-0.14","540","","","","","pre trial waiting period","null","null","","","catch","sw","sh","l","180","200","205","175","251","195","trueblood","null","null","null","null","null","null","null","null","null","null","null","","180","200","260","200","36000","52000","[2,3]","484.9069184386802","487.65929595955333","476.36163951932417"
"","canvas-keyboard-response","105","178136","0.0-6.0-1.14","540","","","","","clear_screen","null","null","","","catch","sw","sh","l","180","200","205","175","251","195","trueblood","null","null","null","null","null","null","null","null","null","null","null","","180","200","260","200","36000","52000","[2,3]","484.9069184386802","487.65929595955333","476.36163951932417"
"","canvas-keyboard-response","106","178645","0.0-6.0-2.14","540","","","","","rectangles no change","null","null","","","catch","sw","sh","l","180","200","205","175","251","195","trueblood","null","null","null","null","null","null","null","null","null","null","null","","180","200","260","200","36000","52000","[2,3]","484.9069184386802","487.65929595955333","476.36163951932417"
"","canvas-keyboard-response","107","179983","0.0-6.0-3.14","540","","","","","rectangles with change","null","null","","","catch","sw","sh","l","180","200","205","175","251","195","trueblood","null","null","null","null","null","null","null","null","null","null","null","","180","200","260","200","36000","52000","[2,3]","484.9069184386802","487.65929595955333","476.36163951932417"
"","canvas-keyboard-response","108","180000","0.0-6.0-4.14","540","","","","","clear_screen","null","null","","","catch","sw","sh","l","180","200","205","175","251","195","trueblood","null","null","null","null","null","null","null","null","null","null","null","","180","200","260","200","36000","52000","[2,3]","484.9069184386802","487.65929595955333","476.36163951932417"
"","canvas-keyboard-response","109","180687","0.0-6.0-5.14","540","","","","","make choice","680","3","","","catch","sw","sh","l","180","200","205","175","251","195","trueblood","null","null","null","null","null","null","null","null","null","null","null","","180","200","260","200","36000","52000","[2,3]","","",""
"","canvas-keyboard-response","110","180705","0.0-6.0-6.14","540","","","","","clear_screen","null","null","","","catch","sw","sh","l","180","200","205","175","251","195","trueblood","null","null","null","null","null","null","null","null","null","null","null","","180","200","260","200","36000","52000","[2,3]","","",""
"","canvas-keyboard-response","111","180906","0.0-6.0-0.15","540","","","","","pre trial waiting period","null","null","","","critical","d","t","c","162.6685","237.1485","164","240","240","164","trueblood","0.02","h","164","240","240","164","162.6685","237.1485","39360","39360","38576.5967","tc","null","null","null","null","null","null","[2,3]","462.12478175429885","438.31502306497606","485.09358803571024"
"","canvas-keyboard-response","112","180928","0.0-6.0-1.15","540","","","","","clear_screen","null","null","","","critical","d","t","c","162.6685","237.1485","164","240","240","164","trueblood","0.02","h","164","240","240","164","162.6685","237.1485","39360","39360","38576.5967","tc","null","null","null","null","null","null","[2,3]","462.12478175429885","438.31502306497606","485.09358803571024"
"","canvas-keyboard-response","113","181433","0.0-6.0-2.15","540","","","","","rectangles no change","null","null","","","critical","d","t","c","162.6685","237.1485","164","240","240","164","trueblood","0.02","h","164","240","240","164","162.6685","237.1485","39360","39360","38576.5967","tc","null","null","null","null","null","null","[2,3]","462.12478175429885","438.31502306497606","485.09358803571024"
"","canvas-keyboard-response","114","182769","0.0-6.0-3.15","540","","","","","rectangles with change","null","null","","","critical","d","t","c","162.6685","237.1485","164","240","240","164","trueblood","0.02","h","164","240","240","164","162.6685","237.1485","39360","39360","38576.5967","tc","null","null","null","null","null","null","[2,3]","462.12478175429885","438.31502306497606","485.09358803571024"
"","canvas-keyboard-response","115","182792","0.0-6.0-4.15","540","","","","","clear_screen","null","null","","","critical","d","t","c","162.6685","237.1485","164","240","240","164","trueblood","0.02","h","164","240","240","164","162.6685","237.1485","39360","39360","38576.5967","tc","null","null","null","null","null","null","[2,3]","462.12478175429885","438.31502306497606","485.09358803571024"
"","canvas-keyboard-response","116","183991","0.0-6.0-5.15","540","","","","","make choice","1192","2","","","critical","d","t","c","162.6685","237.1485","164","240","240","164","trueblood","0.02","h","164","240","240","164","162.6685","237.1485","39360","39360","38576.5967","tc","null","null","null","null","null","null","[2,3]","","",""
"","canvas-keyboard-response","117","184008","0.0-6.0-6.15","540","","","","","clear_screen","null","null","","","critical","d","t","c","162.6685","237.1485","164","240","240","164","trueblood","0.02","h","164","240","240","164","162.6685","237.1485","39360","39360","38576.5967","tc","null","null","null","null","null","null","[2,3]","","",""
"","canvas-keyboard-response","118","184209","0.0-6.0-0.16","540","","","","","pre trial waiting period","null","null","","","critical","d","t","c","232.8713","160.6713","240","164","164","240","spektor","0.05","w","240","164","164","240","232.8713","160.6713","39360","39360","37415.7294","dc","null","null","null","null","null","null","[1,3]","497.03670983270456","168.81707139812937","476.5058768810544"
"","canvas-keyboard-response","119","184232","0.0-6.0-1.16","540","","","","","clear_screen","null","null","","","critical","d","t","c","232.8713","160.6713","240","164","164","240","spektor","0.05","w","240","164","164","240","232.8713","160.6713","39360","39360","37415.7294","dc","null","null","null","null","null","null","[1,3]","497.03670983270456","168.81707139812937","476.5058768810544"
"","canvas-keyboard-response","120","184737","0.0-6.0-2.16","540","","","","","rectangles no change","null","null","","","critical","d","t","c","232.8713","160.6713","240","164","164","240","spektor","0.05","w","240","164","164","240","232.8713","160.6713","39360","39360","37415.7294","dc","null","null","null","null","null","null","[1,3]","497.03670983270456","168.81707139812937","476.5058768810544"
"","canvas-keyboard-response","121","186072","0.0-6.0-3.16","540","","","","","rectangles with change","null","null","","","critical","d","t","c","232.8713","160.6713","240","164","164","240","spektor","0.05","w","240","164","164","240","232.8713","160.6713","39360","39360","37415.7294","dc","null","null","null","null","null","null","[1,3]","497.03670983270456","168.81707139812937","476.5058768810544"
"","canvas-keyboard-response","122","186094","0.0-6.0-4.16","540","","","","","clear_screen","null","null","","","critical","d","t","c","232.8713","160.6713","240","164","164","240","spektor","0.05","w","240","164","164","240","232.8713","160.6713","39360","39360","37415.7294","dc","null","null","null","null","null","null","[1,3]","497.03670983270456","168.81707139812937","476.5058768810544"
"","canvas-keyboard-response","123","186879","0.0-6.0-5.16","540","","","","","make choice","783","1","","","critical","d","t","c","232.8713","160.6713","240","164","164","240","spektor","0.05","w","240","164","164","240","232.8713","160.6713","39360","39360","37415.7294","dc","null","null","null","null","null","null","[1,3]","","",""
"","canvas-keyboard-response","124","186897","0.0-6.0-6.16","540","","","","","clear_screen","null","null","","","critical","d","t","c","232.8713","160.6713","240","164","164","240","spektor","0.05","w","240","164","164","240","232.8713","160.6713","39360","39360","37415.7294","dc","null","null","null","null","null","null","[1,3]","","",""
"","canvas-keyboard-response","125","187098","0.0-6.0-0.17","540","","","","","pre trial waiting period","null","null","","","critical","t","c","d","164","240","240","164","154.6796","220.0396","spektor","0.14","h","164","240","240","164","154.6796","220.0396","39360","39360","34035.6388","dc","null","null","null","null","null","null","[3,2]","463.76243833557","194.83599739121541","505.7860385887711"
"","canvas-keyboard-response","126","187118","0.0-6.0-1.17","540","","","","","clear_screen","null","null","","","critical","t","c","d","164","240","240","164","154.6796","220.0396","spektor","0.14","h","164","240","240","164","154.6796","220.0396","39360","39360","34035.6388","dc","null","null","null","null","null","null","[3,2]","463.76243833557","194.83599739121541","505.7860385887711"
"","canvas-keyboard-response","127","187622","0.0-6.0-2.17","540","","","","","rectangles no change","null","null","","","critical","t","c","d","164","240","240","164","154.6796","220.0396","spektor","0.14","h","164","240","240","164","154.6796","220.0396","39360","39360","34035.6388","dc","null","null","null","null","null","null","[3,2]","463.76243833557","194.83599739121541","505.7860385887711"
"","canvas-keyboard-response","128","188956","0.0-6.0-3.17","540","","","","","rectangles with change","null","null","","","critical","t","c","d","164","240","240","164","154.6796","220.0396","spektor","0.14","h","164","240","240","164","154.6796","220.0396","39360","39360","34035.6388","dc","null","null","null","null","null","null","[3,2]","463.76243833557","194.83599739121541","505.7860385887711"
"","canvas-keyboard-response","129","188976","0.0-6.0-4.17","540","","","","","clear_screen","null","null","","","critical","t","c","d","164","240","240","164","154.6796","220.0396","spektor","0.14","h","164","240","240","164","154.6796","220.0396","39360","39360","34035.6388","dc","null","null","null","null","null","null","[3,2]","463.76243833557","194.83599739121541","505.7860385887711"
"","canvas-keyboard-response","130","189679","0.0-6.0-5.17","540","","","","","make choice","699","2","","","critical","t","c","d","164","240","240","164","154.6796","220.0396","spektor","0.14","h","164","240","240","164","154.6796","220.0396","39360","39360","34035.6388","dc","null","null","null","null","null","null","[3,2]","","",""
"","canvas-keyboard-response","131","189697","0.0-6.0-6.17","540","","","","","clear_screen","null","null","","","critical","t","c","d","164","240","240","164","154.6796","220.0396","spektor","0.14","h","164","240","240","164","154.6796","220.0396","39360","39360","34035.6388","dc","null","null","null","null","null","null","[3,2]","","",""
"","canvas-keyboard-response","132","189898","0.0-6.0-0.18","540","","","","","pre trial waiting period","null","null","","","catch","sw","sh","l","180","200","177","159","213","290","spektor","null","null","null","null","null","null","null","null","null","null","null","","180","200","260","200","36000","52000","[1,3]","522.270386303786","193.54315638689815","433.5595635227689"
"","canvas-keyboard-response","133","189922","0.0-6.0-1.18","540","","","","","clear_screen","null","null","","","catch","sw","sh","l","180","200","177","159","213","290","spektor","null","null","null","null","null","null","null","null","null","null","null","","180","200","260","200","36000","52000","[1,3]","522.270386303786","193.54315638689815","433.5595635227689"
"","canvas-keyboard-response","134","190430","0.0-6.0-2.18","540","","","","","rectangles no change","null","null","","","catch","sw","sh","l","180","200","177","159","213","290","spektor","null","null","null","null","null","null","null","null","null","null","null","","180","200","260","200","36000","52000","[1,3]","522.270386303786","193.54315638689815","433.5595635227689"
"","canvas-keyboard-response","135","191766","0.0-6.0-3.18","540","","","","","rectangles with change","null","null","","","catch","sw","sh","l","180","200","177","159","213","290","spektor","null","null","null","null","null","null","null","null","null","null","null","","180","200","260","200","36000","52000","[1,3]","522.270386303786","193.54315638689815","433.5595635227689"
"","canvas-keyboard-response","136","191784","0.0-6.0-4.18","540","","","","","clear_screen","null","null","","","catch","sw","sh","l","180","200","177","159","213","290","spektor","null","null","null","null","null","null","null","null","null","null","null","","180","200","260","200","36000","52000","[1,3]","522.270386303786","193.54315638689815","433.5595635227689"
"","canvas-keyboard-response","137","192318","0.0-6.0-5.18","540","","","","","make choice","528","3","","","catch","sw","sh","l","180","200","177","159","213","290","spektor","null","null","null","null","null","null","null","null","null","null","null","","180","200","260","200","36000","52000","[1,3]","","",""
"","canvas-keyboard-response","138","192336","0.0-6.0-6.18","540","","","","","clear_screen","null","null","","","catch","sw","sh","l","180","200","177","159","213","290","spektor","null","null","null","null","null","null","null","null","null","null","null","","180","200","260","200","36000","52000","[1,3]","","",""
"","canvas-keyboard-response","139","192537","0.0-6.0-0.19","540","","","","","pre trial waiting period","null","null","","","catch","sw","sh","l","180","200","178","216","217","230","spektor","null","null","null","null","null","null","null","null","null","null","null","","180","200","260","200","36000","52000","[1,3]","482.61962393097036","144.54347800031144","471.2757432865546"
"","canvas-keyboard-response","140","192554","0.0-6.0-1.19","540","","","","","clear_screen","null","null","","","catch","sw","sh","l","180","200","178","216","217","230","spektor","null","null","null","null","null","null","null","null","null","null","null","","180","200","260","200","36000","52000","[1,3]","482.61962393097036","144.54347800031144","471.2757432865546"
"","canvas-keyboard-response","141","193064","0.0-6.0-2.19","540","","","","","rectangles no change","null","null","","","catch","sw","sh","l","180","200","178","216","217","230","spektor","null","null","null","null","null","null","null","null","null","null","null","","180","200","260","200","36000","52000","[1,3]","482.61962393097036","144.54347800031144","471.2757432865546"
"","canvas-keyboard-response","142","194404","0.0-6.0-3.19","540","","","","","rectangles with change","null","null","","","catch","sw","sh","l","180","200","178","216","217","230","spektor","null","null","null","null","null","null","null","null","null","null","null","","180","200","260","200","36000","52000","[1,3]","482.61962393097036","144.54347800031144","471.2757432865546"
"","canvas-keyboard-response","143","194424","0.0-6.0-4.19","540","","","","","clear_screen","null","null","","","catch","sw","sh","l","180","200","178","216","217","230","spektor","null","null","null","null","null","null","null","null","null","null","null","","180","200","260","200","36000","52000","[1,3]","482.61962393097036","144.54347800031144","471.2757432865546"
"","canvas-keyboard-response","144","194872","0.0-6.0-5.19","540","","","","","make choice","442","3","","","catch","sw","sh","l","180","200","178","216","217","230","spektor","null","null","null","null","null","null","null","null","null","null","null","","180","200","260","200","36000","52000","[1,3]","","",""
"","canvas-keyboard-response","145","194891","0.0-6.0-6.19","540","","","","","clear_screen","null","null","","","catch","sw","sh","l","180","200","178","216","217","230","spektor","null","null","null","null","null","null","null","null","null","null","null","","180","200","260","200","36000","52000","[1,3]","","",""
"","canvas-keyboard-response","146","195092","0.0-6.0-0.20","540","","","","","pre trial waiting period","null","null","","","catch","sw","sh","l","180","200","215","209","250","174","spektor","null","null","null","null","null","null","null","null","null","null","null","","180","200","260","200","36000","52000","[1,3]","508.26647882301023","160.21545578025743","503.5144388347531"
"","canvas-keyboard-response","147","195114","0.0-6.0-1.20","540","","","","","clear_screen","null","null","","","catch","sw","sh","l","180","200","215","209","250","174","spektor","null","null","null","null","null","null","null","null","null","null","null","","180","200","260","200","36000","52000","[1,3]","508.26647882301023","160.21545578025743","503.5144388347531"
"","canvas-keyboard-response","148","195619","0.0-6.0-2.20","540","","","","","rectangles no change","null","null","","","catch","sw","sh","l","180","200","215","209","250","174","spektor","null","null","null","null","null","null","null","null","null","null","null","","180","200","260","200","36000","52000","[1,3]","508.26647882301023","160.21545578025743","503.5144388347531"
"","canvas-keyboard-response","149","196954","0.0-6.0-3.20","540","","","","","rectangles with change","null","null","","","catch","sw","sh","l","180","200","215","209","250","174","spektor","null","null","null","null","null","null","null","null","null","null","null","","180","200","260","200","36000","52000","[1,3]","508.26647882301023","160.21545578025743","503.5144388347531"
"","canvas-keyboard-response","150","196973","0.0-6.0-4.20","540","","","","","clear_screen","null","null","","","catch","sw","sh","l","180","200","215","209","250","174","spektor","null","null","null","null","null","null","null","null","null","null","null","","180","200","260","200","36000","52000","[1,3]","508.26647882301023","160.21545578025743","503.5144388347531"
"","canvas-keyboard-response","151","197447","0.0-6.0-5.20","540","","","","","make choice","469","1","","","catch","sw","sh","l","180","200","215","209","250","174","spektor","null","null","null","null","null","null","null","null","null","null","null","","180","200","260","200","36000","52000","[1,3]","","",""
"","canvas-keyboard-response","152","197467","0.0-6.0-6.20","540","","","","","clear_screen","null","null","","","catch","sw","sh","l","180","200","215","209","250","174","spektor","null","null","null","null","null","null","null","null","null","null","null","","180","200","260","200","36000","52000","[1,3]","","",""
"","canvas-keyboard-response","153","197668","0.0-6.0-0.21","540","","","","","pre trial waiting period","null","null","","","critical","d","c","t","158.0083","227.1683","240","164","164","240","spektor","0.09","h","164","240","240","164","158.0083","227.1683","39360","39360","35894.4834","tc","null","null","null","null","null","null","[3,2]","466.59214743759185","171.9584511667936","492.2068876021323"
"","canvas-keyboard-response","154","197691","0.0-6.0-1.21","540","","","","","clear_screen","null","null","","","critical","d","c","t","158.0083","227.1683","240","164","164","240","spektor","0.09","h","164","240","240","164","158.0083","227.1683","39360","39360","35894.4834","tc","null","null","null","null","null","null","[3,2]","466.59214743759185","171.9584511667936","492.2068876021323"
"","canvas-keyboard-response","155","198198","0.0-6.0-2.21","540","","","","","rectangles no change","null","null","","","critical","d","c","t","158.0083","227.1683","240","164","164","240","spektor","0.09","h","164","240","240","164","158.0083","227.1683","39360","39360","35894.4834","tc","null","null","null","null","null","null","[3,2]","466.59214743759185","171.9584511667936","492.2068876021323"
"","canvas-keyboard-response","156","199534","0.0-6.0-3.21","540","","","","","rectangles with change","null","null","","","critical","d","c","t","158.0083","227.1683","240","164","164","240","spektor","0.09","h","164","240","240","164","158.0083","227.1683","39360","39360","35894.4834","tc","null","null","null","null","null","null","[3,2]","466.59214743759185","171.9584511667936","492.2068876021323"
"","canvas-keyboard-response","157","199554","0.0-6.0-4.21","540","","","","","clear_screen","null","null","","","critical","d","c","t","158.0083","227.1683","240","164","164","240","spektor","0.09","h","164","240","240","164","158.0083","227.1683","39360","39360","35894.4834","tc","null","null","null","null","null","null","[3,2]","466.59214743759185","171.9584511667936","492.2068876021323"
"","canvas-keyboard-response","158","201720","0.0-6.0-5.21","540","","","","","make choice","2160","2","","","critical","d","c","t","158.0083","227.1683","240","164","164","240","spektor","0.09","h","164","240","240","164","158.0083","227.1683","39360","39360","35894.4834","tc","null","null","null","null","null","null","[3,2]","","",""
"","canvas-keyboard-response","159","201739","0.0-6.0-6.21","540","","","","","clear_screen","null","null","","","critical","d","c","t","158.0083","227.1683","240","164","164","240","spektor","0.09","h","164","240","240","164","158.0083","227.1683","39360","39360","35894.4834","tc","null","null","null","null","null","null","[3,2]","","",""
"","canvas-keyboard-response","160","201941","0.0-6.0-0.22","540","","","","","pre trial waiting period","null","null","","","catch","sh","l","sw","193","146","276","180","200","237","spektor","null","null","null","null","null","null","null","null","null","null","null","","180","200","260","200","36000","52000","[1,2]","528.6932859335433","174.07485232016467","495.302584100742"
"","canvas-keyboard-response","161","201961","0.0-6.0-1.22","540","","","","","clear_screen","null","null","","","catch","sh","l","sw","193","146","276","180","200","237","spektor","null","null","null","null","null","null","null","null","null","null","null","","180","200","260","200","36000","52000","[1,2]","528.6932859335433","174.07485232016467","495.302584100742"
"","canvas-keyboard-response","162","202470","0.0-6.0-2.22","540","","","","","rectangles no change","null","null","","","catch","sh","l","sw","193","146","276","180","200","237","spektor","null","null","null","null","null","null","null","null","null","null","null","","180","200","260","200","36000","52000","[1,2]","528.6932859335433","174.07485232016467","495.302584100742"
"","canvas-keyboard-response","163","203805","0.0-6.0-3.22","540","","","","","rectangles with change","null","null","","","catch","sh","l","sw","193","146","276","180","200","237","spektor","null","null","null","null","null","null","null","null","null","null","null","","180","200","260","200","36000","52000","[1,2]","528.6932859335433","174.07485232016467","495.302584100742"
"","canvas-keyboard-response","164","203825","0.0-6.0-4.22","540","","","","","clear_screen","null","null","","","catch","sh","l","sw","193","146","276","180","200","237","spektor","null","null","null","null","null","null","null","null","null","null","null","","180","200","260","200","36000","52000","[1,2]","528.6932859335433","174.07485232016467","495.302584100742"
"","canvas-keyboard-response","165","204425","0.0-6.0-5.22","540","","","","","make choice","595","2","","","catch","sh","l","sw","193","146","276","180","200","237","spektor","null","null","null","null","null","null","null","null","null","null","null","","180","200","260","200","36000","52000","[1,2]","","",""
"","canvas-keyboard-response","166","204442","0.0-6.0-6.22","540","","","","","clear_screen","null","null","","","catch","sh","l","sw","193","146","276","180","200","237","spektor","null","null","null","null","null","null","null","null","null","null","null","","180","200","260","200","36000","52000","[1,2]","","",""
"","canvas-keyboard-response","167","204642","0.0-6.0-0.23","540","","","","","pre trial waiting period","null","null","","","critical","t","c","d","240","164","164","240","220.0396","154.6796","trueblood","0.14","w","240","164","164","240","220.0396","154.6796","39360","39360","34035.6388","tc","null","null","null","null","null","null","[1,2]","491.8567580375307","455.1123251230724","517.3772786057739"
"","canvas-keyboard-response","168","204666","0.0-6.0-1.23","540","","","","","clear_screen","null","null","","","critical","t","c","d","240","164","164","240","220.0396","154.6796","trueblood","0.14","w","240","164","164","240","220.0396","154.6796","39360","39360","34035.6388","tc","null","null","null","null","null","null","[1,2]","491.8567580375307","455.1123251230724","517.3772786057739"
"","canvas-keyboard-response","169","205172","0.0-6.0-2.23","540","","","","","rectangles no change","null","null","","","critical","t","c","d","240","164","164","240","220.0396","154.6796","trueblood","0.14","w","240","164","164","240","220.0396","154.6796","39360","39360","34035.6388","tc","null","null","null","null","null","null","[1,2]","491.8567580375307","455.1123251230724","517.3772786057739"
"","canvas-keyboard-response","170","206511","0.0-6.0-3.23","540","","","","","rectangles with change","null","null","","","critical","t","c","d","240","164","164","240","220.0396","154.6796","trueblood","0.14","w","240","164","164","240","220.0396","154.6796","39360","39360","34035.6388","tc","null","null","null","null","null","null","[1,2]","491.8567580375307","455.1123251230724","517.3772786057739"
"","canvas-keyboard-response","171","206533","0.0-6.0-4.23","540","","","","","clear_screen","null","null","","","critical","t","c","d","240","164","164","240","220.0396","154.6796","trueblood","0.14","w","240","164","164","240","220.0396","154.6796","39360","39360","34035.6388","tc","null","null","null","null","null","null","[1,2]","491.8567580375307","455.1123251230724","517.3772786057739"
"","canvas-keyboard-response","172","206983","0.0-6.0-5.23","540","","","","","make choice","447","1","","","critical","t","c","d","240","164","164","240","220.0396","154.6796","trueblood","0.14","w","240","164","164","240","220.0396","154.6796","39360","39360","34035.6388","tc","null","null","null","null","null","null","[1,2]","","",""
"","canvas-keyboard-response","173","207001","0.0-6.0-6.23","540","","","","","clear_screen","null","null","","","critical","t","c","d","240","164","164","240","220.0396","154.6796","trueblood","0.14","w","240","164","164","240","220.0396","154.6796","39360","39360","34035.6388","tc","null","null","null","null","null","null","[1,2]","","",""
"","canvas-keyboard-response","174","207203","0.0-6.0-0.24","540","","","","","pre trial waiting period","null","null","","","critical","c","d","t","164","240","227.1683","158.0083","240","164","trueblood","0.09","w","240","164","164","240","227.1683","158.0083","39360","39360","35894.4834","td","null","null","null","null","null","null","[3,2]","467.40978452678246","507.8137994985115","517.5693804465158"
"","canvas-keyboard-response","175","207226","0.0-6.0-1.24","540","","","","","clear_screen","null","null","","","critical","c","d","t","164","240","227.1683","158.0083","240","164","trueblood","0.09","w","240","164","164","240","227.1683","158.0083","39360","39360","35894.4834","td","null","null","null","null","null","null","[3,2]","467.40978452678246","507.8137994985115","517.5693804465158"
"","canvas-keyboard-response","176","207733","0.0-6.0-2.24","540","","","","","rectangles no change","null","null","","","critical","c","d","t","164","240","227.1683","158.0083","240","164","trueblood","0.09","w","240","164","164","240","227.1683","158.0083","39360","39360","35894.4834","td","null","null","null","null","null","null","[3,2]","467.40978452678246","507.8137994985115","517.5693804465158"
"","canvas-keyboard-response","177","209068","0.0-6.0-3.24","540","","","","","rectangles with change","null","null","","","critical","c","d","t","164","240","227.1683","158.0083","240","164","trueblood","0.09","w","240","164","164","240","227.1683","158.0083","39360","39360","35894.4834","td","null","null","null","null","null","null","[3,2]","467.40978452678246","507.8137994985115","517.5693804465158"
"","canvas-keyboard-response","178","209091","0.0-6.0-4.24","540","","","","","clear_screen","null","null","","","critical","c","d","t","164","240","227.1683","158.0083","240","164","trueblood","0.09","w","240","164","164","240","227.1683","158.0083","39360","39360","35894.4834","td","null","null","null","null","null","null","[3,2]","467.40978452678246","507.8137994985115","517.5693804465158"
"","canvas-keyboard-response","179","209728","0.0-6.0-5.24","540","","","","","make choice","633","3","","","critical","c","d","t","164","240","227.1683","158.0083","240","164","trueblood","0.09","w","240","164","164","240","227.1683","158.0083","39360","39360","35894.4834","td","null","null","null","null","null","null","[3,2]","","",""
"","canvas-keyboard-response","180","209747","0.0-6.0-6.24","540","","","","","clear_screen","null","null","","","critical","c","d","t","164","240","227.1683","158.0083","240","164","trueblood","0.09","w","240","164","164","240","227.1683","158.0083","39360","39360","35894.4834","td","null","null","null","null","null","null","[3,2]","","",""
"","canvas-keyboard-response","181","209948","0.0-6.0-0.25","540","","","","","pre trial waiting period","null","null","","","catch","sh","l","sw","228","152","237","202","187","185","trueblood","null","null","null","null","null","null","null","null","null","null","null","","180","200","260","200","36000","52000","[2,3]","485.1204611341492","481.3354015190701","483.5340557000962"
"","canvas-keyboard-response","182","209969","0.0-6.0-1.25","540","","","","","clear_screen","null","null","","","catch","sh","l","sw","228","152","237","202","187","185","trueblood","null","null","null","null","null","null","null","null","null","null","null","","180","200","260","200","36000","52000","[2,3]","485.1204611341492","481.3354015190701","483.5340557000962"
"","canvas-keyboard-response","183","210483","0.0-6.0-2.25","540","","","","","rectangles no change","null","null","","","catch","sh","l","sw","228","152","237","202","187","185","trueblood","null","null","null","null","null","null","null","null","null","null","null","","180","200","260","200","36000","52000","[2,3]","485.1204611341492","481.3354015190701","483.5340557000962"
"","canvas-keyboard-response","184","211818","0.0-6.0-3.25","540","","","","","rectangles with change","null","null","","","catch","sh","l","sw","228","152","237","202","187","185","trueblood","null","null","null","null","null","null","null","null","null","null","null","","180","200","260","200","36000","52000","[2,3]","485.1204611341492","481.3354015190701","483.5340557000962"
"","canvas-keyboard-response","185","211837","0.0-6.0-4.25","540","","","","","clear_screen","null","null","","","catch","sh","l","sw","228","152","237","202","187","185","trueblood","null","null","null","null","null","null","null","null","null","null","null","","180","200","260","200","36000","52000","[2,3]","485.1204611341492","481.3354015190701","483.5340557000962"
"","canvas-keyboard-response","186","212519","0.0-6.0-5.25","540","","","","","make choice","678","2","","","catch","sh","l","sw","228","152","237","202","187","185","trueblood","null","null","null","null","null","null","null","null","null","null","null","","180","200","260","200","36000","52000","[2,3]","","",""
"","canvas-keyboard-response","187","212540","0.0-6.0-6.25","540","","","","","clear_screen","null","null","","","catch","sh","l","sw","228","152","237","202","187","185","trueblood","null","null","null","null","null","null","null","null","null","null","null","","180","200","260","200","36000","52000","[2,3]","","",""
"","canvas-keyboard-response","188","212741","0.0-6.0-0.26","540","","","","","pre trial waiting period","null","null","","","critical","d","c","t","232.8713","160.6713","164","240","240","164","spektor","0.05","w","240","164","164","240","232.8713","160.6713","39360","39360","37415.7294","tc","null","null","null","null","null","null","[3,2]","521.9093721222769","133.66309950765793","510.14670886300485"
"","canvas-keyboard-response","189","212764","0.0-6.0-1.26","540","","","","","clear_screen","null","null","","","critical","d","c","t","232.8713","160.6713","164","240","240","164","spektor","0.05","w","240","164","164","240","232.8713","160.6713","39360","39360","37415.7294","tc","null","null","null","null","null","null","[3,2]","521.9093721222769","133.66309950765793","510.14670886300485"
"","canvas-keyboard-response","190","213273","0.0-6.0-2.26","540","","","","","rectangles no change","null","null","","","critical","d","c","t","232.8713","160.6713","164","240","240","164","spektor","0.05","w","240","164","164","240","232.8713","160.6713","39360","39360","37415.7294","tc","null","null","null","null","null","null","[3,2]","521.9093721222769","133.66309950765793","510.14670886300485"
"","canvas-keyboard-response","191","214607","0.0-6.0-3.26","540","","","","","rectangles with change","null","null","","","critical","d","c","t","232.8713","160.6713","164","240","240","164","spektor","0.05","w","240","164","164","240","232.8713","160.6713","39360","39360","37415.7294","tc","null","null","null","null","null","null","[3,2]","521.9093721222769","133.66309950765793","510.14670886300485"
"","canvas-keyboard-response","192","214622","0.0-6.0-4.26","540","","","","","clear_screen","null","null","","","critical","d","c","t","232.8713","160.6713","164","240","240","164","spektor","0.05","w","240","164","164","240","232.8713","160.6713","39360","39360","37415.7294","tc","null","null","null","null","null","null","[3,2]","521.9093721222769","133.66309950765793","510.14670886300485"
"","canvas-keyboard-response","193","215247","0.0-6.0-5.26","540","","","","","make choice","620","3","","","critical","d","c","t","232.8713","160.6713","164","240","240","164","spektor","0.05","w","240","164","164","240","232.8713","160.6713","39360","39360","37415.7294","tc","null","null","null","null","null","null","[3,2]","","",""
"","canvas-keyboard-response","194","215264","0.0-6.0-6.26","540","","","","","clear_screen","null","null","","","critical","d","c","t","232.8713","160.6713","164","240","240","164","spektor","0.05","w","240","164","164","240","232.8713","160.6713","39360","39360","37415.7294","tc","null","null","null","null","null","null","[3,2]","","",""
"","canvas-keyboard-response","195","215466","0.0-6.0-0.27","540","","","","","pre trial waiting period","null","null","","","catch","sw","sh","l","180","200","227","180","232","259","spektor","null","null","null","null","null","null","null","null","null","null","null","","180","200","260","200","36000","52000","[1,3]","498.7831062958847","136.8091325891162","488.15016700472734"
"","canvas-keyboard-response","196","215488","0.0-6.0-1.27","540","","","","","clear_screen","null","null","","","catch","sw","sh","l","180","200","227","180","232","259","spektor","null","null","null","null","null","null","null","null","null","null","null","","180","200","260","200","36000","52000","[1,3]","498.7831062958847","136.8091325891162","488.15016700472734"
"","canvas-keyboard-response","197","215993","0.0-6.0-2.27","540","","","","","rectangles no change","null","null","","","catch","sw","sh","l","180","200","227","180","232","259","spektor","null","null","null","null","null","null","null","null","null","null","null","","180","200","260","200","36000","52000","[1,3]","498.7831062958847","136.8091325891162","488.15016700472734"
"","canvas-keyboard-response","198","217327","0.0-6.0-3.27","540","","","","","rectangles with change","null","null","","","catch","sw","sh","l","180","200","227","180","232","259","spektor","null","null","null","null","null","null","null","null","null","null","null","","180","200","260","200","36000","52000","[1,3]","498.7831062958847","136.8091325891162","488.15016700472734"
"","canvas-keyboard-response","199","217348","0.0-6.0-4.27","540","","","","","clear_screen","null","null","","","catch","sw","sh","l","180","200","227","180","232","259","spektor","null","null","null","null","null","null","null","null","null","null","null","","180","200","260","200","36000","52000","[1,3]","498.7831062958847","136.8091325891162","488.15016700472734"
"","canvas-keyboard-response","200","218223","0.0-6.0-5.27","540","","","","","make choice","869","3","","","catch","sw","sh","l","180","200","227","180","232","259","spektor","null","null","null","null","null","null","null","null","null","null","null","","180","200","260","200","36000","52000","[1,3]","","",""
"","canvas-keyboard-response","201","218240","0.0-6.0-6.27","540","","","","","clear_screen","null","null","","","catch","sw","sh","l","180","200","227","180","232","259","spektor","null","null","null","null","null","null","null","null","null","null","null","","180","200","260","200","36000","52000","[1,3]","","",""
"","canvas-keyboard-response","202","218442","0.0-6.0-0.28","540","","","","","pre trial waiting period","null","null","","","critical","t","d","c","164","240","164","240","240","164","spektor","0","h","164","240","240","164","164","240","39360","39360","39360","td","null","null","null","null","null","null","[1,2]","488.74827559704","135.84951622765345","504.21493656325833"
"","canvas-keyboard-response","203","218462","0.0-6.0-1.28","540","","","","","clear_screen","null","null","","","critical","t","d","c","164","240","164","240","240","164","spektor","0","h","164","240","240","164","164","240","39360","39360","39360","td","null","null","null","null","null","null","[1,2]","488.74827559704","135.84951622765345","504.21493656325833"
"","canvas-keyboard-response","204","218967","0.0-6.0-2.28","540","","","","","rectangles no change","null","null","","","critical","t","d","c","164","240","164","240","240","164","spektor","0","h","164","240","240","164","164","240","39360","39360","39360","td","null","null","null","null","null","null","[1,2]","488.74827559704","135.84951622765345","504.21493656325833"
"","canvas-keyboard-response","205","220306","0.0-6.0-3.28","540","","","","","rectangles with change","null","null","","","critical","t","d","c","164","240","164","240","240","164","spektor","0","h","164","240","240","164","164","240","39360","39360","39360","td","null","null","null","null","null","null","[1,2]","488.74827559704","135.84951622765345","504.21493656325833"
"","canvas-keyboard-response","206","220324","0.0-6.0-4.28","540","","","","","clear_screen","null","null","","","critical","t","d","c","164","240","164","240","240","164","spektor","0","h","164","240","240","164","164","240","39360","39360","39360","td","null","null","null","null","null","null","[1,2]","488.74827559704","135.84951622765345","504.21493656325833"
"","canvas-keyboard-response","207","221543","0.0-6.0-5.28","540","","","","","make choice","1213","1","","","critical","t","d","c","164","240","164","240","240","164","spektor","0","h","164","240","240","164","164","240","39360","39360","39360","td","null","null","null","null","null","null","[1,2]","","",""
"","canvas-keyboard-response","208","221561","0.0-6.0-6.28","540","","","","","clear_screen","null","null","","","critical","t","d","c","164","240","164","240","240","164","spektor","0","h","164","240","240","164","164","240","39360","39360","39360","td","null","null","null","null","null","null","[1,2]","","",""
"","canvas-keyboard-response","209","221762","0.0-6.0-0.29","540","","","","","pre trial waiting period","null","null","","","critical","t","d","c","240","164","220.0396","154.6796","164","240","spektor","0.14","w","240","164","164","240","220.0396","154.6796","39360","39360","34035.6388","td","null","null","null","null","null","null","[1,2]","517.288720700227","220.29816644913808","496.94688135490145"
"","canvas-keyboard-response","210","221781","0.0-6.0-1.29","540","","","","","clear_screen","null","null","","","critical","t","d","c","240","164","220.0396","154.6796","164","240","spektor","0.14","w","240","164","164","240","220.0396","154.6796","39360","39360","34035.6388","td","null","null","null","null","null","null","[1,2]","517.288720700227","220.29816644913808","496.94688135490145"
"","canvas-keyboard-response","211","222291","0.0-6.0-2.29","540","","","","","rectangles no change","null","null","","","critical","t","d","c","240","164","220.0396","154.6796","164","240","spektor","0.14","w","240","164","164","240","220.0396","154.6796","39360","39360","34035.6388","td","null","null","null","null","null","null","[1,2]","517.288720700227","220.29816644913808","496.94688135490145"
"","canvas-keyboard-response","212","223630","0.0-6.0-3.29","540","","","","","rectangles with change","null","null","","","critical","t","d","c","240","164","220.0396","154.6796","164","240","spektor","0.14","w","240","164","164","240","220.0396","154.6796","39360","39360","34035.6388","td","null","null","null","null","null","null","[1,2]","517.288720700227","220.29816644913808","496.94688135490145"
"","canvas-keyboard-response","213","223650","0.0-6.0-4.29","540","","","","","clear_screen","null","null","","","critical","t","d","c","240","164","220.0396","154.6796","164","240","spektor","0.14","w","240","164","164","240","220.0396","154.6796","39360","39360","34035.6388","td","null","null","null","null","null","null","[1,2]","517.288720700227","220.29816644913808","496.94688135490145"
"","canvas-keyboard-response","214","224808","0.0-6.0-5.29","540","","","","","make choice","1149","1","","","critical","t","d","c","240","164","220.0396","154.6796","164","240","spektor","0.14","w","240","164","164","240","220.0396","154.6796","39360","39360","34035.6388","td","null","null","null","null","null","null","[1,2]","","",""
"","canvas-keyboard-response","215","224824","0.0-6.0-6.29","540","","","","","clear_screen","null","null","","","critical","t","d","c","240","164","220.0396","154.6796","164","240","spektor","0.14","w","240","164","164","240","220.0396","154.6796","39360","39360","34035.6388","td","null","null","null","null","null","null","[1,2]","","",""
"","canvas-keyboard-response","216","225026","0.0-6.0-0.30","540","","","","","pre trial waiting period","null","null","","","critical","d","c","t","162.6685","237.1485","240","164","164","240","spektor","0.02","h","164","240","240","164","162.6685","237.1485","39360","39360","38576.5967","tc","null","null","null","null","null","null","[3,2]","474.5948613024074","150.7564476357265","470.0175440887528"
"","canvas-keyboard-response","217","225045","0.0-6.0-1.30","540","","","","","clear_screen","null","null","","","critical","d","c","t","162.6685","237.1485","240","164","164","240","spektor","0.02","h","164","240","240","164","162.6685","237.1485","39360","39360","38576.5967","tc","null","null","null","null","null","null","[3,2]","474.5948613024074","150.7564476357265","470.0175440887528"
"","canvas-keyboard-response","218","225551","0.0-6.0-2.30","540","","","","","rectangles no change","null","null","","","critical","d","c","t","162.6685","237.1485","240","164","164","240","spektor","0.02","h","164","240","240","164","162.6685","237.1485","39360","39360","38576.5967","tc","null","null","null","null","null","null","[3,2]","474.5948613024074","150.7564476357265","470.0175440887528"
"","canvas-keyboard-response","219","226891","0.0-6.0-3.30","540","","","","","rectangles with change","null","null","","","critical","d","c","t","162.6685","237.1485","240","164","164","240","spektor","0.02","h","164","240","240","164","162.6685","237.1485","39360","39360","38576.5967","tc","null","null","null","null","null","null","[3,2]","474.5948613024074","150.7564476357265","470.0175440887528"
"","canvas-keyboard-response","220","226912","0.0-6.0-4.30","540","","","","","clear_screen","null","null","","","critical","d","c","t","162.6685","237.1485","240","164","164","240","spektor","0.02","h","164","240","240","164","162.6685","237.1485","39360","39360","38576.5967","tc","null","null","null","null","null","null","[3,2]","474.5948613024074","150.7564476357265","470.0175440887528"
"","canvas-keyboard-response","221","227678","0.0-6.0-5.30","540","","","","","make choice","763","2","","","critical","d","c","t","162.6685","237.1485","240","164","164","240","spektor","0.02","h","164","240","240","164","162.6685","237.1485","39360","39360","38576.5967","tc","null","null","null","null","null","null","[3,2]","","",""
"","canvas-keyboard-response","222","227694","0.0-6.0-6.30","540","","","","","clear_screen","null","null","","","critical","d","c","t","162.6685","237.1485","240","164","164","240","spektor","0.02","h","164","240","240","164","162.6685","237.1485","39360","39360","38576.5967","tc","null","null","null","null","null","null","[3,2]","","",""
"","canvas-keyboard-response","223","227894","0.0-6.0-0.31","540","","","","","pre trial waiting period","null","null","","","critical","d","t","c","162.6685","237.1485","164","240","240","164","trueblood","0.02","h","164","240","240","164","162.6685","237.1485","39360","39360","38576.5967","td","null","null","null","null","null","null","[2,1]","449.94775188412575","432.74712047524673","477.71592086993786"
"","canvas-keyboard-response","224","227918","0.0-6.0-1.31","540","","","","","clear_screen","null","null","","","critical","d","t","c","162.6685","237.1485","164","240","240","164","trueblood","0.02","h","164","240","240","164","162.6685","237.1485","39360","39360","38576.5967","td","null","null","null","null","null","null","[2,1]","449.94775188412575","432.74712047524673","477.71592086993786"
"","canvas-keyboard-response","225","228425","0.0-6.0-2.31","540","","","","","rectangles no change","null","null","","","critical","d","t","c","162.6685","237.1485","164","240","240","164","trueblood","0.02","h","164","240","240","164","162.6685","237.1485","39360","39360","38576.5967","td","null","null","null","null","null","null","[2,1]","449.94775188412575","432.74712047524673","477.71592086993786"
"","canvas-keyboard-response","226","229761","0.0-6.0-3.31","540","","","","","rectangles with change","null","null","","","critical","d","t","c","162.6685","237.1485","164","240","240","164","trueblood","0.02","h","164","240","240","164","162.6685","237.1485","39360","39360","38576.5967","td","null","null","null","null","null","null","[2,1]","449.94775188412575","432.74712047524673","477.71592086993786"
"","canvas-keyboard-response","227","229778","0.0-6.0-4.31","540","","","","","clear_screen","null","null","","","critical","d","t","c","162.6685","237.1485","164","240","240","164","trueblood","0.02","h","164","240","240","164","162.6685","237.1485","39360","39360","38576.5967","td","null","null","null","null","null","null","[2,1]","449.94775188412575","432.74712047524673","477.71592086993786"
"","canvas-keyboard-response","228","230040","0.0-6.0-5.31","540","","","","","make choice","253","2","","","critical","d","t","c","162.6685","237.1485","164","240","240","164","trueblood","0.02","h","164","240","240","164","162.6685","237.1485","39360","39360","38576.5967","td","null","null","null","null","null","null","[2,1]","","",""
"","canvas-keyboard-response","229","230059","0.0-6.0-6.31","540","","","","","clear_screen","null","null","","","critical","d","t","c","162.6685","237.1485","164","240","240","164","trueblood","0.02","h","164","240","240","164","162.6685","237.1485","39360","39360","38576.5967","td","null","null","null","null","null","null","[2,1]","","",""
"","canvas-keyboard-response","230","230260","0.0-6.0-0.32","540","","","","","pre trial waiting period","null","null","","","catch","sh","sw","l","221","213","196","228","279","214","trueblood","null","null","null","null","null","null","null","null","null","null","null","","180","200","260","200","36000","52000","[2,3]","466.0092958816583","429.395724835701","451.4270793283602"
"","canvas-keyboard-response","231","230283","0.0-6.0-1.32","540","","","","","clear_screen","null","null","","","catch","sh","sw","l","221","213","196","228","279","214","trueblood","null","null","null","null","null","null","null","null","null","null","null","","180","200","260","200","36000","52000","[2,3]","466.0092958816583","429.395724835701","451.4270793283602"
"","canvas-keyboard-response","232","230795","0.0-6.0-2.32","540","","","","","rectangles no change","null","null","","","catch","sh","sw","l","221","213","196","228","279","214","trueblood","null","null","null","null","null","null","null","null","null","null","null","","180","200","260","200","36000","52000","[2,3]","466.0092958816583","429.395724835701","451.4270793283602"
"","canvas-keyboard-response","233","232134","0.0-6.0-3.32","540","","","","","rectangles with change","null","null","","","catch","sh","sw","l","221","213","196","228","279","214","trueblood","null","null","null","null","null","null","null","null","null","null","null","","180","200","260","200","36000","52000","[2,3]","466.0092958816583","429.395724835701","451.4270793283602"
"","canvas-keyboard-response","234","232154","0.0-6.0-4.32","540","","","","","clear_screen","null","null","","","catch","sh","sw","l","221","213","196","228","279","214","trueblood","null","null","null","null","null","null","null","null","null","null","null","","180","200","260","200","36000","52000","[2,3]","466.0092958816583","429.395724835701","451.4270793283602"
"","canvas-keyboard-response","235","234159","0.0-6.0-5.32","540","","","","","make choice","1998","2","","","catch","sh","sw","l","221","213","196","228","279","214","trueblood","null","null","null","null","null","null","null","null","null","null","null","","180","200","260","200","36000","52000","[2,3]","","",""
"","canvas-keyboard-response","236","234176","0.0-6.0-6.32","540","","","","","clear_screen","null","null","","","catch","sh","sw","l","221","213","196","228","279","214","trueblood","null","null","null","null","null","null","null","null","null","null","null","","180","200","260","200","36000","52000","[2,3]","","",""
"","canvas-keyboard-response","237","234377","0.0-6.0-0.33","540","","","","","pre trial waiting period","null","null","","","catch","l","sh","sw","200","229","207","212","215","236","spektor","null","null","null","null","null","null","null","null","null","null","null","","180","200","260","200","36000","52000","[1,2]","495.3129245565609","133.88260329708336","457.4112310960064"
"","canvas-keyboard-response","238","234396","0.0-6.0-1.33","540","","","","","clear_screen","null","null","","","catch","l","sh","sw","200","229","207","212","215","236","spektor","null","null","null","null","null","null","null","null","null","null","null","","180","200","260","200","36000","52000","[1,2]","495.3129245565609","133.88260329708336","457.4112310960064"
"","canvas-keyboard-response","239","234903","0.0-6.0-2.33","540","","","","","rectangles no change","null","null","","","catch","l","sh","sw","200","229","207","212","215","236","spektor","null","null","null","null","null","null","null","null","null","null","null","","180","200","260","200","36000","52000","[1,2]","495.3129245565609","133.88260329708336","457.4112310960064"
"","canvas-keyboard-response","240","236237","0.0-6.0-3.33","540","","","","","rectangles with change","null","null","","","catch","l","sh","sw","200","229","207","212","215","236","spektor","null","null","null","null","null","null","null","null","null","null","null","","180","200","260","200","36000","52000","[1,2]","495.3129245565609","133.88260329708336","457.4112310960064"
"","canvas-keyboard-response","241","236257","0.0-6.0-4.33","540","","","","","clear_screen","null","null","","","catch","l","sh","sw","200","229","207","212","215","236","spektor","null","null","null","null","null","null","null","null","null","null","null","","180","200","260","200","36000","52000","[1,2]","495.3129245565609","133.88260329708336","457.4112310960064"
"","canvas-keyboard-response","242","237191","0.0-6.0-5.33","540","","","","","make choice","929","1","","","catch","l","sh","sw","200","229","207","212","215","236","spektor","null","null","null","null","null","null","null","null","null","null","null","","180","200","260","200","36000","52000","[1,2]","","",""
"","canvas-keyboard-response","243","237213","0.0-6.0-6.33","540","","","","","clear_screen","null","null","","","catch","l","sh","sw","200","229","207","212","215","236","spektor","null","null","null","null","null","null","null","null","null","null","null","","180","200","260","200","36000","52000","[1,2]","","",""
"","canvas-keyboard-response","244","237413","0.0-6.0-0.34","540","","","","","pre trial waiting period","null","null","","","catch","sw","sh","l","180","200","210","166","231","184","trueblood","null","null","null","null","null","null","null","null","null","null","null","","180","200","260","200","36000","52000","[2,3]","461.7162344093577","481.2072785289558","476.6263934572638"
"","canvas-keyboard-response","245","237433","0.0-6.0-1.34","540","","","","","clear_screen","null","null","","","catch","sw","sh","l","180","200","210","166","231","184","trueblood","null","null","null","null","null","null","null","null","null","null","null","","180","200","260","200","36000","52000","[2,3]","461.7162344093577","481.2072785289558","476.6263934572638"
"","canvas-keyboard-response","246","237942","0.0-6.0-2.34","540","","","","","rectangles no change","null","null","","","catch","sw","sh","l","180","200","210","166","231","184","trueblood","null","null","null","null","null","null","null","null","null","null","null","","180","200","260","200","36000","52000","[2,3]","461.7162344093577","481.2072785289558","476.6263934572638"
"","canvas-keyboard-response","247","239276","0.0-6.0-3.34","540","","","","","rectangles with change","null","null","","","catch","sw","sh","l","180","200","210","166","231","184","trueblood","null","null","null","null","null","null","null","null","null","null","null","","180","200","260","200","36000","52000","[2,3]","461.7162344093577","481.2072785289558","476.6263934572638"
"","canvas-keyboard-response","248","239297","0.0-6.0-4.34","540","","","","","clear_screen","null","null","","","catch","sw","sh","l","180","200","210","166","231","184","trueblood","null","null","null","null","null","null","null","null","null","null","null","","180","200","260","200","36000","52000","[2,3]","461.7162344093577","481.2072785289558","476.6263934572638"
"","canvas-keyboard-response","249","240191","0.0-6.0-5.34","540","","","","","make choice","891","3","","","catch","sw","sh","l","180","200","210","166","231","184","trueblood","null","null","null","null","null","null","null","null","null","null","null","","180","200","260","200","36000","52000","[2,3]","","",""
"","canvas-keyboard-response","250","240209","0.0-6.0-6.34","540","","","","","clear_screen","null","null","","","catch","sw","sh","l","180","200","210","166","231","184","trueblood","null","null","null","null","null","null","null","null","null","null","null","","180","200","260","200","36000","52000","[2,3]","","",""
"","canvas-keyboard-response","251","240410","0.0-6.0-0.35","540","","","","","pre trial waiting period","null","null","","","critical","t","c","d","240","164","164","240","227.1683","158.0083","trueblood","0.09","w","240","164","164","240","227.1683","158.0083","39360","39360","35894.4834","dc","null","null","null","null","null","null","[3,2]","473.625854559264","428.4670836383124","486.55693131441075"
"","canvas-keyboard-response","252","240432","0.0-6.0-1.35","540","","","","","clear_screen","null","null","","","critical","t","c","d","240","164","164","240","227.1683","158.0083","trueblood","0.09","w","240","164","164","240","227.1683","158.0083","39360","39360","35894.4834","dc","null","null","null","null","null","null","[3,2]","473.625854559264","428.4670836383124","486.55693131441075"
"","canvas-keyboard-response","253","240938","0.0-6.0-2.35","540","","","","","rectangles no change","null","null","","","critical","t","c","d","240","164","164","240","227.1683","158.0083","trueblood","0.09","w","240","164","164","240","227.1683","158.0083","39360","39360","35894.4834","dc","null","null","null","null","null","null","[3,2]","473.625854559264","428.4670836383124","486.55693131441075"
"","canvas-keyboard-response","254","242273","0.0-6.0-3.35","540","","","","","rectangles with change","null","null","","","critical","t","c","d","240","164","164","240","227.1683","158.0083","trueblood","0.09","w","240","164","164","240","227.1683","158.0083","39360","39360","35894.4834","dc","null","null","null","null","null","null","[3,2]","473.625854559264","428.4670836383124","486.55693131441075"
"","canvas-keyboard-response","255","242292","0.0-6.0-4.35","540","","","","","clear_screen","null","null","","","critical","t","c","d","240","164","164","240","227.1683","158.0083","trueblood","0.09","w","240","164","164","240","227.1683","158.0083","39360","39360","35894.4834","dc","null","null","null","null","null","null","[3,2]","473.625854559264","428.4670836383124","486.55693131441075"
"","canvas-keyboard-response","256","244392","0.0-6.0-5.35","540","","","","","make choice","2091","2","","","critical","t","c","d","240","164","164","240","227.1683","158.0083","trueblood","0.09","w","240","164","164","240","227.1683","158.0083","39360","39360","35894.4834","dc","null","null","null","null","null","null","[3,2]","","",""
"","canvas-keyboard-response","257","244412","0.0-6.0-6.35","540","","","","","clear_screen","null","null","","","critical","t","c","d","240","164","164","240","227.1683","158.0083","trueblood","0.09","w","240","164","164","240","227.1683","158.0083","39360","39360","35894.4834","dc","null","null","null","null","null","null","[3,2]","","",""
"","canvas-keyboard-response","258","244613","0.0-6.0-0.36","540","","","","","pre trial waiting period","null","null","","","critical","c","t","d","240","164","164","240","158.0083","227.1683","spektor","0.09","h","164","240","240","164","158.0083","227.1683","39360","39360","35894.4834","dc","null","null","null","null","null","null","[3,1]","519.053594785742","122.61837970180049","502.5372135569751"
"","canvas-keyboard-response","259","244632","0.0-6.0-1.36","540","","","","","clear_screen","null","null","","","critical","c","t","d","240","164","164","240","158.0083","227.1683","spektor","0.09","h","164","240","240","164","158.0083","227.1683","39360","39360","35894.4834","dc","null","null","null","null","null","null","[3,1]","519.053594785742","122.61837970180049","502.5372135569751"
"","canvas-keyboard-response","260","245138","0.0-6.0-2.36","540","","","","","rectangles no change","null","null","","","critical","c","t","d","240","164","164","240","158.0083","227.1683","spektor","0.09","h","164","240","240","164","158.0083","227.1683","39360","39360","35894.4834","dc","null","null","null","null","null","null","[3,1]","519.053594785742","122.61837970180049","502.5372135569751"
"","canvas-keyboard-response","261","246474","0.0-6.0-3.36","540","","","","","rectangles with change","null","null","","","critical","c","t","d","240","164","164","240","158.0083","227.1683","spektor","0.09","h","164","240","240","164","158.0083","227.1683","39360","39360","35894.4834","dc","null","null","null","null","null","null","[3,1]","519.053594785742","122.61837970180049","502.5372135569751"
"","canvas-keyboard-response","262","246494","0.0-6.0-4.36","540","","","","","clear_screen","null","null","","","critical","c","t","d","240","164","164","240","158.0083","227.1683","spektor","0.09","h","164","240","240","164","158.0083","227.1683","39360","39360","35894.4834","dc","null","null","null","null","null","null","[3,1]","519.053594785742","122.61837970180049","502.5372135569751"
"","canvas-keyboard-response","263","246831","0.0-6.0-5.36","540","","","","","make choice","332","1","","","critical","c","t","d","240","164","164","240","158.0083","227.1683","spektor","0.09","h","164","240","240","164","158.0083","227.1683","39360","39360","35894.4834","dc","null","null","null","null","null","null","[3,1]","","",""
"","canvas-keyboard-response","264","246848","0.0-6.0-6.36","540","","","","","clear_screen","null","null","","","critical","c","t","d","240","164","164","240","158.0083","227.1683","spektor","0.09","h","164","240","240","164","158.0083","227.1683","39360","39360","35894.4834","dc","null","null","null","null","null","null","[3,1]","","",""
"","canvas-keyboard-response","265","247049","0.0-6.0-0.37","540","","","","","pre trial waiting period","null","null","","","catch","sw","sh","l","180","200","175","186","295","202","spektor","null","null","null","null","null","null","null","null","null","null","null","","180","200","260","200","36000","52000","[1,3]","499.65687722493857","166.377756839126","487.3556768909631"
"","canvas-keyboard-response","266","247068","0.0-6.0-1.37","540","","","","","clear_screen","null","null","","","catch","sw","sh","l","180","200","175","186","295","202","spektor","null","null","null","null","null","null","null","null","null","null","null","","180","200","260","200","36000","52000","[1,3]","499.65687722493857","166.377756839126","487.3556768909631"
"","canvas-keyboard-response","267","247574","0.0-6.0-2.37","540","","","","","rectangles no change","null","null","","","catch","sw","sh","l","180","200","175","186","295","202","spektor","null","null","null","null","null","null","null","null","null","null","null","","180","200","260","200","36000","52000","[1,3]","499.65687722493857","166.377756839126","487.3556768909631"
