"success","trial_type","trial_index","time_elapsed","internal_node_id","sub_n","timeout","failed_images","failed_audio","failed_video","screen_id","rt","response","stimulus","view_history","trial","r1","r2","r3","w1","h1","w2","h2","w3","h3","display","tdd","tdo","tw","th","cw","ch","dw","dh","ta","ca","da","probe","csls","csss","clls","clss","sa","la","probe_rects","r1yloc","r2yloc","r3yloc"
"true","fullscreen","0","3850","0.0-0.0","511","","","","","","","","","","","","","","","","","","","","","","","","","","","","","","","","","","","","","","","","","",""
"true","preload","1","3898","0.0-1.0","511","false","[]","[]","[]","img preload","","","","","","","","","","","","","","","","","","","","","","","","","","","","","","","","","","","","",""
"","survey-html-form","2","8636","0.0-2.0","511","","","","","enter-sub-number","4728","{""response"":""511""}","","","","","","","","","","","","","","","","","","","","","","","","","","","","","","","","","","",""
"","image-button-response","3","56009","0.0-3.0","511","","","","","","47308","0","consent.png","","","","","","","","","","","","","","","","","","","","","","","","","","","","","","","","","",""
"","html-button-response","4","61280","0.0-4.0","511","","","","","intro mssg","5267","0","<div style= ""font-size:25px;"" <p> <strong> Welcome! </strong><br> <p style=""color:#8B0000; font-size:25px;""><strong> Please do NOT exit full screen until you are done with the experiment. </strong> </p><p style=""font-size:25px;color:#8B0000;""> <strong> Your data will be lost <br> if you try to go back or refresh the page after the experiment starts. Feel free to click ""previous"" during the instructions, however.</strong> </p><br><p> <strong> Thanks in advance for your contribution to our research! </strong></p>","","","","","","","","","","","","","","","","","","","","","","","","","","","","","","","","","",""
"","instructions","5","112609","0.0-5.0","511","","","","","instructions","51323","","","[{""page_index"":0,""viewing_time"":4482},{""page_index"":1,""viewing_time"":9117},{""page_index"":2,""viewing_time"":2084},{""page_index"":3,""viewing_time"":27127},{""page_index"":4,""viewing_time"":4361},{""page_index"":5,""viewing_time"":1409},{""page_index"":6,""viewing_time"":1566},{""page_index"":7,""viewing_time"":1177}]","","","","","","","","","","","","","","","","","","","","","","","","","","","","","","","","",""
"","canvas-keyboard-response","6","112815","0.0-6.0-0.0","511","","","","","pre trial waiting period","null","null","","","critical","c","t","d","240","164","164","240","158.0083","227.1683","spektor","0.09","h","164","240","240","164","158.0083","227.1683","39360","39360","35894.4834","td","null","null","null","null","null","null","[2,3]","512.9071259887387","108.4261071282705","463.4221687594566"
"","canvas-keyboard-response","7","112842","0.0-6.0-1.0","511","","","","","clear_screen","null","null","","","critical","c","t","d","240","164","164","240","158.0083","227.1683","spektor","0.09","h","164","240","240","164","158.0083","227.1683","39360","39360","35894.4834","td","null","null","null","null","null","null","[2,3]","512.9071259887387","108.4261071282705","463.4221687594566"
"","canvas-keyboard-response","8","113351","0.0-6.0-2.0","511","","","","","rectangles no change","null","null","","","critical","c","t","d","240","164","164","240","158.0083","227.1683","spektor","0.09","h","164","240","240","164","158.0083","227.1683","39360","39360","35894.4834","td","null","null","null","null","null","null","[2,3]","512.9071259887387","108.4261071282705","463.4221687594566"
"","canvas-keyboard-response","9","114688","0.0-6.0-3.0","511","","","","","rectangles with change","null","null","","","critical","c","t","d","240","164","164","240","158.0083","227.1683","spektor","0.09","h","164","240","240","164","158.0083","227.1683","39360","39360","35894.4834","td","null","null","null","null","null","null","[2,3]","512.9071259887387","108.4261071282705","463.4221687594566"
"","canvas-keyboard-response","10","114706","0.0-6.0-4.0","511","","","","","clear_screen","null","null","","","critical","c","t","d","240","164","164","240","158.0083","227.1683","spektor","0.09","h","164","240","240","164","158.0083","227.1683","39360","39360","35894.4834","td","null","null","null","null","null","null","[2,3]","512.9071259887387","108.4261071282705","463.4221687594566"
"","canvas-keyboard-response","11","117588","0.0-6.0-5.0","511","","","","","make choice","2875","2","","","critical","c","t","d","240","164","164","240","158.0083","227.1683","spektor","0.09","h","164","240","240","164","158.0083","227.1683","39360","39360","35894.4834","td","null","null","null","null","null","null","[2,3]","","",""
"","canvas-keyboard-response","12","117606","0.0-6.0-6.0","511","","","","","clear_screen","null","null","","","critical","c","t","d","240","164","164","240","158.0083","227.1683","spektor","0.09","h","164","240","240","164","158.0083","227.1683","39360","39360","35894.4834","td","null","null","null","null","null","null","[2,3]","","",""
"","canvas-keyboard-response","13","117808","0.0-6.0-0.1","511","","","","","pre trial waiting period","null","null","","","catch","l","sw","sh","298","183","156","201","234","145","trueblood","null","null","null","null","null","null","null","null","null","null","null","","180","200","260","200","36000","52000","[1,3]","478.11357605623255","466.96153807792126","502.01919052337286"
"","canvas-keyboard-response","14","117828","0.0-6.0-1.1","511","","","","","clear_screen","null","null","","","catch","l","sw","sh","298","183","156","201","234","145","trueblood","null","null","null","null","null","null","null","null","null","null","null","","180","200","260","200","36000","52000","[1,3]","478.11357605623255","466.96153807792126","502.01919052337286"
"","canvas-keyboard-response","15","118336","0.0-6.0-2.1","511","","","","","rectangles no change","null","null","","","catch","l","sw","sh","298","183","156","201","234","145","trueblood","null","null","null","null","null","null","null","null","null","null","null","","180","200","260","200","36000","52000","[1,3]","478.11357605623255","466.96153807792126","502.01919052337286"
"","canvas-keyboard-response","16","119666","0.0-6.0-3.1","511","","","","","rectangles with change","null","null","","","catch","l","sw","sh","298","183","156","201","234","145","trueblood","null","null","null","null","null","null","null","null","null","null","null","","180","200","260","200","36000","52000","[1,3]","478.11357605623255","466.96153807792126","502.01919052337286"
"","canvas-keyboard-response","17","119689","0.0-6.0-4.1","511","","","","","clear_screen","null","null","","","catch","l","sw","sh","298","183","156","201","234","145","trueblood","null","null","null","null","null","null","null","null","null","null","null","","180","200","260","200","36000","52000","[1,3]","478.11357605623255","466.96153807792126","502.01919052337286"
"","canvas-keyboard-response","18","120676","0.0-6.0-5.1","511","","","","","make choice","978","1","","","catch","l","sw","sh","298","183","156","201","234","145","trueblood","null","null","null","null","null","null","null","null","null","null","null","","180","200","260","200","36000","52000","[1,3]","","",""
"","canvas-keyboard-response","19","120694","0.0-6.0-6.1","511","","","","","clear_screen","null","null","","","catch","l","sw","sh","298","183","156","201","234","145","trueblood","null","null","null","null","null","null","null","null","null","null","null","","180","200","260","200","36000","52000","[1,3]","","",""
"","canvas-keyboard-response","20","120895","0.0-6.0-0.2","511","","","","","pre trial waiting period","null","null","","","catch","sh","l","sw","163","140","225","195","183","199","spektor","null","null","null","null","null","null","null","null","null","null","null","","180","200","260","200","36000","52000","[1,2]","521.4845260255696","178.0695055291521","510.0581985706848"
"","canvas-keyboard-response","21","120916","0.0-6.0-1.2","511","","","","","clear_screen","null","null","","","catch","sh","l","sw","163","140","225","195","183","199","spektor","null","null","null","null","null","null","null","null","null","null","null","","180","200","260","200","36000","52000","[1,2]","521.4845260255696","178.0695055291521","510.0581985706848"
"","canvas-keyboard-response","22","121425","0.0-6.0-2.2","511","","","","","rectangles no change","null","null","","","catch","sh","l","sw","163","140","225","195","183","199","spektor","null","null","null","null","null","null","null","null","null","null","null","","180","200","260","200","36000","52000","[1,2]","521.4845260255696","178.0695055291521","510.0581985706848"
"","canvas-keyboard-response","23","122764","0.0-6.0-3.2","511","","","","","rectangles with change","null","null","","","catch","sh","l","sw","163","140","225","195","183","199","spektor","null","null","null","null","null","null","null","null","null","null","null","","180","200","260","200","36000","52000","[1,2]","521.4845260255696","178.0695055291521","510.0581985706848"
"","canvas-keyboard-response","24","122779","0.0-6.0-4.2","511","","","","","clear_screen","null","null","","","catch","sh","l","sw","163","140","225","195","183","199","spektor","null","null","null","null","null","null","null","null","null","null","null","","180","200","260","200","36000","52000","[1,2]","521.4845260255696","178.0695055291521","510.0581985706848"
"","canvas-keyboard-response","25","123475","0.0-6.0-5.2","511","","","","","make choice","690","2","","","catch","sh","l","sw","163","140","225","195","183","199","spektor","null","null","null","null","null","null","null","null","null","null","null","","180","200","260","200","36000","52000","[1,2]","","",""
"","canvas-keyboard-response","26","123494","0.0-6.0-6.2","511","","","","","clear_screen","null","null","","","catch","sh","l","sw","163","140","225","195","183","199","spektor","null","null","null","null","null","null","null","null","null","null","null","","180","200","260","200","36000","52000","[1,2]","","",""
"","canvas-keyboard-response","27","123695","0.0-6.0-0.3","511","","","","","pre trial waiting period","null","null","","","critical","t","c","d","164","240","240","164","154.6796","220.0396","spektor","0.14","h","164","240","240","164","154.6796","220.0396","39360","39360","34035.6388","dc","null","null","null","null","null","null","[3,2]","484.67275156100874","173.37097831749549","498.94653100245137"
"","canvas-keyboard-response","28","123714","0.0-6.0-1.3","511","","","","","clear_screen","null","null","","","critical","t","c","d","164","240","240","164","154.6796","220.0396","spektor","0.14","h","164","240","240","164","154.6796","220.0396","39360","39360","34035.6388","dc","null","null","null","null","null","null","[3,2]","484.67275156100874","173.37097831749549","498.94653100245137"
"","canvas-keyboard-response","29","124222","0.0-6.0-2.3","511","","","","","rectangles no change","null","null","","","critical","t","c","d","164","240","240","164","154.6796","220.0396","spektor","0.14","h","164","240","240","164","154.6796","220.0396","39360","39360","34035.6388","dc","null","null","null","null","null","null","[3,2]","484.67275156100874","173.37097831749549","498.94653100245137"
"","canvas-keyboard-response","30","125558","0.0-6.0-3.3","511","","","","","rectangles with change","null","null","","","critical","t","c","d","164","240","240","164","154.6796","220.0396","spektor","0.14","h","164","240","240","164","154.6796","220.0396","39360","39360","34035.6388","dc","null","null","null","null","null","null","[3,2]","484.67275156100874","173.37097831749549","498.94653100245137"
"","canvas-keyboard-response","31","125580","0.0-6.0-4.3","511","","","","","clear_screen","null","null","","","critical","t","c","d","164","240","240","164","154.6796","220.0396","spektor","0.14","h","164","240","240","164","154.6796","220.0396","39360","39360","34035.6388","dc","null","null","null","null","null","null","[3,2]","484.67275156100874","173.37097831749549","498.94653100245137"
"","canvas-keyboard-response","32","126451","0.0-6.0-5.3","511","","","","","make choice","866","2","","","critical","t","c","d","164","240","240","164","154.6796","220.0396","spektor","0.14","h","164","240","240","164","154.6796","220.0396","39360","39360","34035.6388","dc","null","null","null","null","null","null","[3,2]","","",""
"","canvas-keyboard-response","33","126472","0.0-6.0-6.3","511","","","","","clear_screen","null","null","","","critical","t","c","d","164","240","240","164","154.6796","220.0396","spektor","0.14","h","164","240","240","164","154.6796","220.0396","39360","39360","34035.6388","dc","null","null","null","null","null","null","[3,2]","","",""
"","canvas-keyboard-response","34","126673","0.0-6.0-0.4","511","","","","","pre trial waiting period","null","null","","","critical","t","d","c","240","164","220.0396","154.6796","164","240","trueblood","0.14","w","240","164","164","240","220.0396","154.6796","39360","39360","34035.6388","dc","null","null","null","null","null","null","[2,3]","476.1705816801436","519.1063086831589","426.93499289418946"
"","canvas-keyboard-response","35","126695","0.0-6.0-1.4","511","","","","","clear_screen","null","null","","","critical","t","d","c","240","164","220.0396","154.6796","164","240","trueblood","0.14","w","240","164","164","240","220.0396","154.6796","39360","39360","34035.6388","dc","null","null","null","null","null","null","[2,3]","476.1705816801436","519.1063086831589","426.93499289418946"
"","canvas-keyboard-response","36","127201","0.0-6.0-2.4","511","","","","","rectangles no change","null","null","","","critical","t","d","c","240","164","220.0396","154.6796","164","240","trueblood","0.14","w","240","164","164","240","220.0396","154.6796","39360","39360","34035.6388","dc","null","null","null","null","null","null","[2,3]","476.1705816801436","519.1063086831589","426.93499289418946"
"","canvas-keyboard-response","37","128535","0.0-6.0-3.4","511","","","","","rectangles with change","null","null","","","critical","t","d","c","240","164","220.0396","154.6796","164","240","trueblood","0.14","w","240","164","164","240","220.0396","154.6796","39360","39360","34035.6388","dc","null","null","null","null","null","null","[2,3]","476.1705816801436","519.1063086831589","426.93499289418946"
"","canvas-keyboard-response","38","128558","0.0-6.0-4.4","511","","","","","clear_screen","null","null","","","critical","t","d","c","240","164","220.0396","154.6796","164","240","trueblood","0.14","w","240","164","164","240","220.0396","154.6796","39360","39360","34035.6388","dc","null","null","null","null","null","null","[2,3]","476.1705816801436","519.1063086831589","426.93499289418946"
"","canvas-keyboard-response","39","129818","0.0-6.0-5.4","511","","","","","make choice","1257","3","","","critical","t","d","c","240","164","220.0396","154.6796","164","240","trueblood","0.14","w","240","164","164","240","220.0396","154.6796","39360","39360","34035.6388","dc","null","null","null","null","null","null","[2,3]","","",""
"","canvas-keyboard-response","40","129838","0.0-6.0-6.4","511","","","","","clear_screen","null","null","","","critical","t","d","c","240","164","220.0396","154.6796","164","240","trueblood","0.14","w","240","164","164","240","220.0396","154.6796","39360","39360","34035.6388","dc","null","null","null","null","null","null","[2,3]","","",""
"","canvas-keyboard-response","41","130041","0.0-6.0-0.5","511","","","","","pre trial waiting period","null","null","","","catch","sw","sh","l","180","200","201","212","293","222","trueblood","null","null","null","null","null","null","null","null","null","null","null","","180","200","260","200","36000","52000","[1,3]","447.98352483381865","450.2092145405457","467.1945845352881"
"","canvas-keyboard-response","42","130064","0.0-6.0-1.5","511","","","","","clear_screen","null","null","","","catch","sw","sh","l","180","200","201","212","293","222","trueblood","null","null","null","null","null","null","null","null","null","null","null","","180","200","260","200","36000","52000","[1,3]","447.98352483381865","450.2092145405457","467.1945845352881"
"","canvas-keyboard-response","43","130575","0.0-6.0-2.5","511","","","","","rectangles no change","null","null","","","catch","sw","sh","l","180","200","201","212","293","222","trueblood","null","null","null","null","null","null","null","null","null","null","null","","180","200","260","200","36000","52000","[1,3]","447.98352483381865","450.2092145405457","467.1945845352881"
"","canvas-keyboard-response","44","131909","0.0-6.0-3.5","511","","","","","rectangles with change","null","null","","","catch","sw","sh","l","180","200","201","212","293","222","trueblood","null","null","null","null","null","null","null","null","null","null","null","","180","200","260","200","36000","52000","[1,3]","447.98352483381865","450.2092145405457","467.1945845352881"
"","canvas-keyboard-response","45","131929","0.0-6.0-4.5","511","","","","","clear_screen","null","null","","","catch","sw","sh","l","180","200","201","212","293","222","trueblood","null","null","null","null","null","null","null","null","null","null","null","","180","200","260","200","36000","52000","[1,3]","447.98352483381865","450.2092145405457","467.1945845352881"
"","canvas-keyboard-response","46","132531","0.0-6.0-5.5","511","","","","","make choice","599","3","","","catch","sw","sh","l","180","200","201","212","293","222","trueblood","null","null","null","null","null","null","null","null","null","null","null","","180","200","260","200","36000","52000","[1,3]","","",""
"","canvas-keyboard-response","47","132550","0.0-6.0-6.5","511","","","","","clear_screen","null","null","","","catch","sw","sh","l","180","200","201","212","293","222","trueblood","null","null","null","null","null","null","null","null","null","null","null","","180","200","260","200","36000","52000","[1,3]","","",""
"","canvas-keyboard-response","48","132751","0.0-6.0-0.6","511","","","","","pre trial waiting period","null","null","","","critical","c","t","d","240","164","164","240","162.6685","237.1485","trueblood","0.02","h","164","240","240","164","162.6685","237.1485","39360","39360","38576.5967","td","null","null","null","null","null","null","[2,3]","475.2087230093044","467.8426443530322","422.68975849293975"
"","canvas-keyboard-response","49","132773","0.0-6.0-1.6","511","","","","","clear_screen","null","null","","","critical","c","t","d","240","164","164","240","162.6685","237.1485","trueblood","0.02","h","164","240","240","164","162.6685","237.1485","39360","39360","38576.5967","td","null","null","null","null","null","null","[2,3]","475.2087230093044","467.8426443530322","422.68975849293975"
"","canvas-keyboard-response","50","133280","0.0-6.0-2.6","511","","","","","rectangles no change","null","null","","","critical","c","t","d","240","164","164","240","162.6685","237.1485","trueblood","0.02","h","164","240","240","164","162.6685","237.1485","39360","39360","38576.5967","td","null","null","null","null","null","null","[2,3]","475.2087230093044","467.8426443530322","422.68975849293975"
"","canvas-keyboard-response","51","134614","0.0-6.0-3.6","511","","","","","rectangles with change","null","null","","","critical","c","t","d","240","164","164","240","162.6685","237.1485","trueblood","0.02","h","164","240","240","164","162.6685","237.1485","39360","39360","38576.5967","td","null","null","null","null","null","null","[2,3]","475.2087230093044","467.8426443530322","422.68975849293975"
"","canvas-keyboard-response","52","134633","0.0-6.0-4.6","511","","","","","clear_screen","null","null","","","critical","c","t","d","240","164","164","240","162.6685","237.1485","trueblood","0.02","h","164","240","240","164","162.6685","237.1485","39360","39360","38576.5967","td","null","null","null","null","null","null","[2,3]","475.2087230093044","467.8426443530322","422.68975849293975"
"","canvas-keyboard-response","53","135091","0.0-6.0-5.6","511","","","","","make choice","453","3","","","critical","c","t","d","240","164","164","240","162.6685","237.1485","trueblood","0.02","h","164","240","240","164","162.6685","237.1485","39360","39360","38576.5967","td","null","null","null","null","null","null","[2,3]","","",""
"","canvas-keyboard-response","54","135110","0.0-6.0-6.6","511","","","","","clear_screen","null","null","","","critical","c","t","d","240","164","164","240","162.6685","237.1485","trueblood","0.02","h","164","240","240","164","162.6685","237.1485","39360","39360","38576.5967","td","null","null","null","null","null","null","[2,3]","","",""
"","canvas-keyboard-response","55","135312","0.0-6.0-0.7","511","","","","","pre trial waiting period","null","null","","","critical","t","d","c","240","164","232.8713","160.6713","164","240","trueblood","0.05","w","240","164","164","240","232.8713","160.6713","39360","39360","37415.7294","td","null","null","null","null","null","null","[1,2]","475.9572918572515","500.817800405918","458.55017128677594"
"","canvas-keyboard-response","56","135334","0.0-6.0-1.7","511","","","","","clear_screen","null","null","","","critical","t","d","c","240","164","232.8713","160.6713","164","240","trueblood","0.05","w","240","164","164","240","232.8713","160.6713","39360","39360","37415.7294","td","null","null","null","null","null","null","[1,2]","475.9572918572515","500.817800405918","458.55017128677594"
"","canvas-keyboard-response","57","135843","0.0-6.0-2.7","511","","","","","rectangles no change","null","null","","","critical","t","d","c","240","164","232.8713","160.6713","164","240","trueblood","0.05","w","240","164","164","240","232.8713","160.6713","39360","39360","37415.7294","td","null","null","null","null","null","null","[1,2]","475.9572918572515","500.817800405918","458.55017128677594"
"","canvas-keyboard-response","58","137179","0.0-6.0-3.7","511","","","","","rectangles with change","null","null","","","critical","t","d","c","240","164","232.8713","160.6713","164","240","trueblood","0.05","w","240","164","164","240","232.8713","160.6713","39360","39360","37415.7294","td","null","null","null","null","null","null","[1,2]","475.9572918572515","500.817800405918","458.55017128677594"
"","canvas-keyboard-response","59","137200","0.0-6.0-4.7","511","","","","","clear_screen","null","null","","","critical","t","d","c","240","164","232.8713","160.6713","164","240","trueblood","0.05","w","240","164","164","240","232.8713","160.6713","39360","39360","37415.7294","td","null","null","null","null","null","null","[1,2]","475.9572918572515","500.817800405918","458.55017128677594"
"","canvas-keyboard-response","60","138148","0.0-6.0-5.7","511","","","","","make choice","942","1","","","critical","t","d","c","240","164","232.8713","160.6713","164","240","trueblood","0.05","w","240","164","164","240","232.8713","160.6713","39360","39360","37415.7294","td","null","null","null","null","null","null","[1,2]","","",""
"","canvas-keyboard-response","61","138169","0.0-6.0-6.7","511","","","","","clear_screen","null","null","","","critical","t","d","c","240","164","232.8713","160.6713","164","240","trueblood","0.05","w","240","164","164","240","232.8713","160.6713","39360","39360","37415.7294","td","null","null","null","null","null","null","[1,2]","","",""
"","canvas-keyboard-response","62","138370","0.0-6.0-0.8","511","","","","","pre trial waiting period","null","null","","","critical","t","c","d","164","240","240","164","162.6685","237.1485","spektor","0.02","h","164","240","240","164","162.6685","237.1485","39360","39360","38576.5967","td","null","null","null","null","null","null","[1,3]","469.13417876236565","165.76366385793827","489.16520105452724"
"","canvas-keyboard-response","63","138388","0.0-6.0-1.8","511","","","","","clear_screen","null","null","","","critical","t","c","d","164","240","240","164","162.6685","237.1485","spektor","0.02","h","164","240","240","164","162.6685","237.1485","39360","39360","38576.5967","td","null","null","null","null","null","null","[1,3]","469.13417876236565","165.76366385793827","489.16520105452724"
"","canvas-keyboard-response","64","138897","0.0-6.0-2.8","511","","","","","rectangles no change","null","null","","","critical","t","c","d","164","240","240","164","162.6685","237.1485","spektor","0.02","h","164","240","240","164","162.6685","237.1485","39360","39360","38576.5967","td","null","null","null","null","null","null","[1,3]","469.13417876236565","165.76366385793827","489.16520105452724"
"","canvas-keyboard-response","65","140231","0.0-6.0-3.8","511","","","","","rectangles with change","null","null","","","critical","t","c","d","164","240","240","164","162.6685","237.1485","spektor","0.02","h","164","240","240","164","162.6685","237.1485","39360","39360","38576.5967","td","null","null","null","null","null","null","[1,3]","469.13417876236565","165.76366385793827","489.16520105452724"
"","canvas-keyboard-response","66","140253","0.0-6.0-4.8","511","","","","","clear_screen","null","null","","","critical","t","c","d","164","240","240","164","162.6685","237.1485","spektor","0.02","h","164","240","240","164","162.6685","237.1485","39360","39360","38576.5967","td","null","null","null","null","null","null","[1,3]","469.13417876236565","165.76366385793827","489.16520105452724"
"","canvas-keyboard-response","67","140756","0.0-6.0-5.8","511","","","","","make choice","494","1","","","critical","t","c","d","164","240","240","164","162.6685","237.1485","spektor","0.02","h","164","240","240","164","162.6685","237.1485","39360","39360","38576.5967","td","null","null","null","null","null","null","[1,3]","","",""
"","canvas-keyboard-response","68","140777","0.0-6.0-6.8","511","","","","","clear_screen","null","null","","","critical","t","c","d","164","240","240","164","162.6685","237.1485","spektor","0.02","h","164","240","240","164","162.6685","237.1485","39360","39360","38576.5967","td","null","null","null","null","null","null","[1,3]","","",""
"","canvas-keyboard-response","69","140978","0.0-6.0-0.9","511","","","","","pre trial waiting period","null","null","","","critical","c","d","t","240","164","162.6685","237.1485","164","240","trueblood","0.02","h","164","240","240","164","162.6685","237.1485","39360","39360","38576.5967","dc","null","null","null","null","null","null","[2,1]","509.0131261905544","463.41192703941545","458.91910230196004"
"","canvas-keyboard-response","70","140999","0.0-6.0-1.9","511","","","","","clear_screen","null","null","","","critical","c","d","t","240","164","162.6685","237.1485","164","240","trueblood","0.02","h","164","240","240","164","162.6685","237.1485","39360","39360","38576.5967","dc","null","null","null","null","null","null","[2,1]","509.0131261905544","463.41192703941545","458.91910230196004"
"","canvas-keyboard-response","71","141504","0.0-6.0-2.9","511","","","","","rectangles no change","null","null","","","critical","c","d","t","240","164","162.6685","237.1485","164","240","trueblood","0.02","h","164","240","240","164","162.6685","237.1485","39360","39360","38576.5967","dc","null","null","null","null","null","null","[2,1]","509.0131261905544","463.41192703941545","458.91910230196004"
"","canvas-keyboard-response","72","142839","0.0-6.0-3.9","511","","","","","rectangles with change","null","null","","","critical","c","d","t","240","164","162.6685","237.1485","164","240","trueblood","0.02","h","164","240","240","164","162.6685","237.1485","39360","39360","38576.5967","dc","null","null","null","null","null","null","[2,1]","509.0131261905544","463.41192703941545","458.91910230196004"
"","canvas-keyboard-response","73","142859","0.0-6.0-4.9","511","","","","","clear_screen","null","null","","","critical","c","d","t","240","164","162.6685","237.1485","164","240","trueblood","0.02","h","164","240","240","164","162.6685","237.1485","39360","39360","38576.5967","dc","null","null","null","null","null","null","[2,1]","509.0131261905544","463.41192703941545","458.91910230196004"
"","canvas-keyboard-response","74","143459","0.0-6.0-5.9","511","","","","","make choice","597","1","","","critical","c","d","t","240","164","162.6685","237.1485","164","240","trueblood","0.02","h","164","240","240","164","162.6685","237.1485","39360","39360","38576.5967","dc","null","null","null","null","null","null","[2,1]","","",""
"","canvas-keyboard-response","75","143481","0.0-6.0-6.9","511","","","","","clear_screen","null","null","","","critical","c","d","t","240","164","162.6685","237.1485","164","240","trueblood","0.02","h","164","240","240","164","162.6685","237.1485","39360","39360","38576.5967","dc","null","null","null","null","null","null","[2,1]","","",""
"","canvas-keyboard-response","76","143681","0.0-6.0-0.10","511","","","","","pre trial waiting period","null","null","","","critical","c","t","d","164","240","240","164","220.0396","154.6796","spektor","0.14","w","240","164","164","240","220.0396","154.6796","39360","39360","34035.6388","dc","null","null","null","null","null","null","[3,1]","469.72604644171","200.17707490597002","537.4706732301432"
"","canvas-keyboard-response","77","143705","0.0-6.0-1.10","511","","","","","clear_screen","null","null","","","critical","c","t","d","164","240","240","164","220.0396","154.6796","spektor","0.14","w","240","164","164","240","220.0396","154.6796","39360","39360","34035.6388","dc","null","null","null","null","null","null","[3,1]","469.72604644171","200.17707490597002","537.4706732301432"
"","canvas-keyboard-response","78","144214","0.0-6.0-2.10","511","","","","","rectangles no change","null","null","","","critical","c","t","d","164","240","240","164","220.0396","154.6796","spektor","0.14","w","240","164","164","240","220.0396","154.6796","39360","39360","34035.6388","dc","null","null","null","null","null","null","[3,1]","469.72604644171","200.17707490597002","537.4706732301432"
"","canvas-keyboard-response","79","145548","0.0-6.0-3.10","511","","","","","rectangles with change","null","null","","","critical","c","t","d","164","240","240","164","220.0396","154.6796","spektor","0.14","w","240","164","164","240","220.0396","154.6796","39360","39360","34035.6388","dc","null","null","null","null","null","null","[3,1]","469.72604644171","200.17707490597002","537.4706732301432"
"","canvas-keyboard-response","80","145563","0.0-6.0-4.10","511","","","","","clear_screen","null","null","","","critical","c","t","d","164","240","240","164","220.0396","154.6796","spektor","0.14","w","240","164","164","240","220.0396","154.6796","39360","39360","34035.6388","dc","null","null","null","null","null","null","[3,1]","469.72604644171","200.17707490597002","537.4706732301432"
"","canvas-keyboard-response","81","147196","0.0-6.0-5.10","511","","","","","make choice","1626","1","","","critical","c","t","d","164","240","240","164","220.0396","154.6796","spektor","0.14","w","240","164","164","240","220.0396","154.6796","39360","39360","34035.6388","dc","null","null","null","null","null","null","[3,1]","","",""
"","canvas-keyboard-response","82","147216","0.0-6.0-6.10","511","","","","","clear_screen","null","null","","","critical","c","t","d","164","240","240","164","220.0396","154.6796","spektor","0.14","w","240","164","164","240","220.0396","154.6796","39360","39360","34035.6388","dc","null","null","null","null","null","null","[3,1]","","",""
"","canvas-keyboard-response","83","147418","0.0-6.0-0.11","511","","","","","pre trial waiting period","null","null","","","critical","c","d","t","240","164","160.6713","232.8713","164","240","spektor","0.05","h","164","240","240","164","160.6713","232.8713","39360","39360","37415.7294","td","null","null","null","null","null","null","[3,2]","514.5704259617457","134.71554494979884","501.81549623143025"
"","canvas-keyboard-response","84","147437","0.0-6.0-1.11","511","","","","","clear_screen","null","null","","","critical","c","d","t","240","164","160.6713","232.8713","164","240","spektor","0.05","h","164","240","240","164","160.6713","232.8713","39360","39360","37415.7294","td","null","null","null","null","null","null","[3,2]","514.5704259617457","134.71554494979884","501.81549623143025"
"","canvas-keyboard-response","85","147946","0.0-6.0-2.11","511","","","","","rectangles no change","null","null","","","critical","c","d","t","240","164","160.6713","232.8713","164","240","spektor","0.05","h","164","240","240","164","160.6713","232.8713","39360","39360","37415.7294","td","null","null","null","null","null","null","[3,2]","514.5704259617457","134.71554494979884","501.81549623143025"
"","canvas-keyboard-response","86","149281","0.0-6.0-3.11","511","","","","","rectangles with change","null","null","","","critical","c","d","t","240","164","160.6713","232.8713","164","240","spektor","0.05","h","164","240","240","164","160.6713","232.8713","39360","39360","37415.7294","td","null","null","null","null","null","null","[3,2]","514.5704259617457","134.71554494979884","501.81549623143025"
"","canvas-keyboard-response","87","149299","0.0-6.0-4.11","511","","","","","clear_screen","null","null","","","critical","c","d","t","240","164","160.6713","232.8713","164","240","spektor","0.05","h","164","240","240","164","160.6713","232.8713","39360","39360","37415.7294","td","null","null","null","null","null","null","[3,2]","514.5704259617457","134.71554494979884","501.81549623143025"
"","canvas-keyboard-response","88","149876","0.0-6.0-5.11","511","","","","","make choice","570","2","","","critical","c","d","t","240","164","160.6713","232.8713","164","240","spektor","0.05","h","164","240","240","164","160.6713","232.8713","39360","39360","37415.7294","td","null","null","null","null","null","null","[3,2]","","",""
"","canvas-keyboard-response","89","149891","0.0-6.0-6.11","511","","","","","clear_screen","null","null","","","critical","c","d","t","240","164","160.6713","232.8713","164","240","spektor","0.05","h","164","240","240","164","160.6713","232.8713","39360","39360","37415.7294","td","null","null","null","null","null","null","[3,2]","","",""
"","canvas-keyboard-response","90","150092","0.0-6.0-0.12","511","","","","","pre trial waiting period","null","null","","","catch","sh","sw","l","170","168","215","175","233","224","trueblood","null","null","null","null","null","null","null","null","null","null","null","","180","200","260","200","36000","52000","[1,3]","482.8019236549883","468.2707774116359","467.69198451421556"
"","canvas-keyboard-response","91","150113","0.0-6.0-1.12","511","","","","","clear_screen","null","null","","","catch","sh","sw","l","170","168","215","175","233","224","trueblood","null","null","null","null","null","null","null","null","null","null","null","","180","200","260","200","36000","52000","[1,3]","482.8019236549883","468.2707774116359","467.69198451421556"
"","canvas-keyboard-response","92","150620","0.0-6.0-2.12","511","","","","","rectangles no change","null","null","","","catch","sh","sw","l","170","168","215","175","233","224","trueblood","null","null","null","null","null","null","null","null","null","null","null","","180","200","260","200","36000","52000","[1,3]","482.8019236549883","468.2707774116359","467.69198451421556"
"","canvas-keyboard-response","93","151956","0.0-6.0-3.12","511","","","","","rectangles with change","null","null","","","catch","sh","sw","l","170","168","215","175","233","224","trueblood","null","null","null","null","null","null","null","null","null","null","null","","180","200","260","200","36000","52000","[1,3]","482.8019236549883","468.2707774116359","467.69198451421556"
"","canvas-keyboard-response","94","151979","0.0-6.0-4.12","511","","","","","clear_screen","null","null","","","catch","sh","sw","l","170","168","215","175","233","224","trueblood","null","null","null","null","null","null","null","null","null","null","null","","180","200","260","200","36000","52000","[1,3]","482.8019236549883","468.2707774116359","467.69198451421556"
"","canvas-keyboard-response","95","154876","0.0-6.0-5.12","511","","","","","make choice","2891","3","","","catch","sh","sw","l","170","168","215","175","233","224","trueblood","null","null","null","null","null","null","null","null","null","null","null","","180","200","260","200","36000","52000","[1,3]","","",""
"","canvas-keyboard-response","96","154895","0.0-6.0-6.12","511","","","","","clear_screen","null","null","","","catch","sh","sw","l","170","168","215","175","233","224","trueblood","null","null","null","null","null","null","null","null","null","null","null","","180","200","260","200","36000","52000","[1,3]","","",""
"","canvas-keyboard-response","97","155096","0.0-6.0-0.13","511","","","","","pre trial waiting period","null","null","","","critical","t","d","c","164","240","154.6796","220.0396","240","164","spektor","0.14","h","164","240","240","164","154.6796","220.0396","39360","39360","34035.6388","td","null","null","null","null","null","null","[1,2]","477.8760363326708","110.57833175761053","499.0166871773995"
"","canvas-keyboard-response","98","155114","0.0-6.0-1.13","511","","","","","clear_screen","null","null","","","critical","t","d","c","164","240","154.6796","220.0396","240","164","spektor","0.14","h","164","240","240","164","154.6796","220.0396","39360","39360","34035.6388","td","null","null","null","null","null","null","[1,2]","477.8760363326708","110.57833175761053","499.0166871773995"
"","canvas-keyboard-response","99","155621","0.0-6.0-2.13","511","","","","","rectangles no change","null","null","","","critical","t","d","c","164","240","154.6796","220.0396","240","164","spektor","0.14","h","164","240","240","164","154.6796","220.0396","39360","39360","34035.6388","td","null","null","null","null","null","null","[1,2]","477.8760363326708","110.57833175761053","499.0166871773995"
"","canvas-keyboard-response","100","156957","0.0-6.0-3.13","511","","","","","rectangles with change","null","null","","","critical","t","d","c","164","240","154.6796","220.0396","240","164","spektor","0.14","h","164","240","240","164","154.6796","220.0396","39360","39360","34035.6388","td","null","null","null","null","null","null","[1,2]","477.8760363326708","110.57833175761053","499.0166871773995"
"","canvas-keyboard-response","101","156977","0.0-6.0-4.13","511","","","","","clear_screen","null","null","","","critical","t","d","c","164","240","154.6796","220.0396","240","164","spektor","0.14","h","164","240","240","164","154.6796","220.0396","39360","39360","34035.6388","td","null","null","null","null","null","null","[1,2]","477.8760363326708","110.57833175761053","499.0166871773995"
"","canvas-keyboard-response","102","157780","0.0-6.0-5.13","511","","","","","make choice","796","1","","","critical","t","d","c","164","240","154.6796","220.0396","240","164","spektor","0.14","h","164","240","240","164","154.6796","220.0396","39360","39360","34035.6388","td","null","null","null","null","null","null","[1,2]","","",""
"","canvas-keyboard-response","103","157798","0.0-6.0-6.13","511","","","","","clear_screen","null","null","","","critical","t","d","c","164","240","154.6796","220.0396","240","164","spektor","0.14","h","164","240","240","164","154.6796","220.0396","39360","39360","34035.6388","td","null","null","null","null","null","null","[1,2]","","",""
"","canvas-keyboard-response","104","157999","0.0-6.0-0.14","511","","","","","pre trial waiting period","null","null","","","catch","sw","l","sh","180","200","235","234","207","156","trueblood","null","null","null","null","null","null","null","null","null","null","null","","180","200","260","200","36000","52000","[1,2]","480.47769968177585","456.6041170667326","499.44131193129664"
"","canvas-keyboard-response","105","158021","0.0-6.0-1.14","511","","","","","clear_screen","null","null","","","catch","sw","l","sh","180","200","235","234","207","156","trueblood","null","null","null","null","null","null","null","null","null","null","null","","180","200","260","200","36000","52000","[1,2]","480.47769968177585","456.6041170667326","499.44131193129664"
"","canvas-keyboard-response","106","158526","0.0-6.0-2.14","511","","","","","rectangles no change","null","null","","","catch","sw","l","sh","180","200","235","234","207","156","trueblood","null","null","null","null","null","null","null","null","null","null","null","","180","200","260","200","36000","52000","[1,2]","480.47769968177585","456.6041170667326","499.44131193129664"
"","canvas-keyboard-response","107","159860","0.0-6.0-3.14","511","","","","","rectangles with change","null","null","","","catch","sw","l","sh","180","200","235","234","207","156","trueblood","null","null","null","null","null","null","null","null","null","null","null","","180","200","260","200","36000","52000","[1,2]","480.47769968177585","456.6041170667326","499.44131193129664"
"","canvas-keyboard-response","108","159879","0.0-6.0-4.14","511","","","","","clear_screen","null","null","","","catch","sw","l","sh","180","200","235","234","207","156","trueblood","null","null","null","null","null","null","null","null","null","null","null","","180","200","260","200","36000","52000","[1,2]","480.47769968177585","456.6041170667326","499.44131193129664"
"","canvas-keyboard-response","109","161059","0.0-6.0-5.14","511","","","","","make choice","1175","2","","","catch","sw","l","sh","180","200","235","234","207","156","trueblood","null","null","null","null","null","null","null","null","null","null","null","","180","200","260","200","36000","52000","[1,2]","","",""
"","canvas-keyboard-response","110","161080","0.0-6.0-6.14","511","","","","","clear_screen","null","null","","","catch","sw","l","sh","180","200","235","234","207","156","trueblood","null","null","null","null","null","null","null","null","null","null","null","","180","200","260","200","36000","52000","[1,2]","","",""
"","canvas-keyboard-response","111","161281","0.0-6.0-0.15","511","","","","","pre trial waiting period","null","null","","","critical","d","t","c","220.0396","154.6796","240","164","164","240","spektor","0.14","w","240","164","164","240","220.0396","154.6796","39360","39360","34035.6388","td","null","null","null","null","null","null","[2,1]","501.7233226389016","196.2906491524218","503.329707623089"
"","canvas-keyboard-response","112","161300","0.0-6.0-1.15","511","","","","","clear_screen","null","null","","","critical","d","t","c","220.0396","154.6796","240","164","164","240","spektor","0.14","w","240","164","164","240","220.0396","154.6796","39360","39360","34035.6388","td","null","null","null","null","null","null","[2,1]","501.7233226389016","196.2906491524218","503.329707623089"
"","canvas-keyboard-response","113","161807","0.0-6.0-2.15","511","","","","","rectangles no change","null","null","","","critical","d","t","c","220.0396","154.6796","240","164","164","240","spektor","0.14","w","240","164","164","240","220.0396","154.6796","39360","39360","34035.6388","td","null","null","null","null","null","null","[2,1]","501.7233226389016","196.2906491524218","503.329707623089"
"","canvas-keyboard-response","114","163143","0.0-6.0-3.15","511","","","","","rectangles with change","null","null","","","critical","d","t","c","220.0396","154.6796","240","164","164","240","spektor","0.14","w","240","164","164","240","220.0396","154.6796","39360","39360","34035.6388","td","null","null","null","null","null","null","[2,1]","501.7233226389016","196.2906491524218","503.329707623089"
"","canvas-keyboard-response","115","163162","0.0-6.0-4.15","511","","","","","clear_screen","null","null","","","critical","d","t","c","220.0396","154.6796","240","164","164","240","spektor","0.14","w","240","164","164","240","220.0396","154.6796","39360","39360","34035.6388","td","null","null","null","null","null","null","[2,1]","501.7233226389016","196.2906491524218","503.329707623089"
"","canvas-keyboard-response","116","163676","0.0-6.0-5.15","511","","","","","make choice","506","2","","","critical","d","t","c","220.0396","154.6796","240","164","164","240","spektor","0.14","w","240","164","164","240","220.0396","154.6796","39360","39360","34035.6388","td","null","null","null","null","null","null","[2,1]","","",""
"","canvas-keyboard-response","117","163693","0.0-6.0-6.15","511","","","","","clear_screen","null","null","","","critical","d","t","c","220.0396","154.6796","240","164","164","240","spektor","0.14","w","240","164","164","240","220.0396","154.6796","39360","39360","34035.6388","td","null","null","null","null","null","null","[2,1]","","",""
"","canvas-keyboard-response","118","163894","0.0-6.0-0.16","511","","","","","pre trial waiting period","null","null","","","catch","sh","sw","l","177","201","156","192","224","197","trueblood","null","null","null","null","null","null","null","null","null","null","null","","180","200","260","200","36000","52000","[2,3]","464.24479225852104","487.0626301676778","489.86912021578553"
"","canvas-keyboard-response","119","163912","0.0-6.0-1.16","511","","","","","clear_screen","null","null","","","catch","sh","sw","l","177","201","156","192","224","197","trueblood","null","null","null","null","null","null","null","null","null","null","null","","180","200","260","200","36000","52000","[2,3]","464.24479225852104","487.0626301676778","489.86912021578553"
"","canvas-keyboard-response","120","164421","0.0-6.0-2.16","511","","","","","rectangles no change","null","null","","","catch","sh","sw","l","177","201","156","192","224","197","trueblood","null","null","null","null","null","null","null","null","null","null","null","","180","200","260","200","36000","52000","[2,3]","464.24479225852104","487.0626301676778","489.86912021578553"
"","canvas-keyboard-response","121","165757","0.0-6.0-3.16","511","","","","","rectangles with change","null","null","","","catch","sh","sw","l","177","201","156","192","224","197","trueblood","null","null","null","null","null","null","null","null","null","null","null","","180","200","260","200","36000","52000","[2,3]","464.24479225852104","487.0626301676778","489.86912021578553"
"","canvas-keyboard-response","122","165774","0.0-6.0-4.16","511","","","","","clear_screen","null","null","","","catch","sh","sw","l","177","201","156","192","224","197","trueblood","null","null","null","null","null","null","null","null","null","null","null","","180","200","260","200","36000","52000","[2,3]","464.24479225852104","487.0626301676778","489.86912021578553"
"","canvas-keyboard-response","123","166131","0.0-6.0-5.16","511","","","","","make choice","349","3","","","catch","sh","sw","l","177","201","156","192","224","197","trueblood","null","null","null","null","null","null","null","null","null","null","null","","180","200","260","200","36000","52000","[2,3]","","",""
"","canvas-keyboard-response","124","166147","0.0-6.0-6.16","511","","","","","clear_screen","null","null","","","catch","sh","sw","l","177","201","156","192","224","197","trueblood","null","null","null","null","null","null","null","null","null","null","null","","180","200","260","200","36000","52000","[2,3]","","",""
"","canvas-keyboard-response","125","166349","0.0-6.0-0.17","511","","","","","pre trial waiting period","null","null","","","critical","d","c","t","227.1683","158.0083","164","240","240","164","trueblood","0.09","w","240","164","164","240","227.1683","158.0083","39360","39360","35894.4834","td","null","null","null","null","null","null","[3,1]","509.585809068907","440.63179518292475","502.11539801002834"
"","canvas-keyboard-response","126","166366","0.0-6.0-1.17","511","","","","","clear_screen","null","null","","","critical","d","c","t","227.1683","158.0083","164","240","240","164","trueblood","0.09","w","240","164","164","240","227.1683","158.0083","39360","39360","35894.4834","td","null","null","null","null","null","null","[3,1]","509.585809068907","440.63179518292475","502.11539801002834"
"","canvas-keyboard-response","127","166874","0.0-6.0-2.17","511","","","","","rectangles no change","null","null","","","critical","d","c","t","227.1683","158.0083","164","240","240","164","trueblood","0.09","w","240","164","164","240","227.1683","158.0083","39360","39360","35894.4834","td","null","null","null","null","null","null","[3,1]","509.585809068907","440.63179518292475","502.11539801002834"
"","canvas-keyboard-response","128","168209","0.0-6.0-3.17","511","","","","","rectangles with change","null","null","","","critical","d","c","t","227.1683","158.0083","164","240","240","164","trueblood","0.09","w","240","164","164","240","227.1683","158.0083","39360","39360","35894.4834","td","null","null","null","null","null","null","[3,1]","509.585809068907","440.63179518292475","502.11539801002834"
"","canvas-keyboard-response","129","168230","0.0-6.0-4.17","511","","","","","clear_screen","null","null","","","critical","d","c","t","227.1683","158.0083","164","240","240","164","trueblood","0.09","w","240","164","164","240","227.1683","158.0083","39360","39360","35894.4834","td","null","null","null","null","null","null","[3,1]","509.585809068907","440.63179518292475","502.11539801002834"
"","canvas-keyboard-response","130","168724","0.0-6.0-5.17","511","","","","","make choice","487","3","","","critical","d","c","t","227.1683","158.0083","164","240","240","164","trueblood","0.09","w","240","164","164","240","227.1683","158.0083","39360","39360","35894.4834","td","null","null","null","null","null","null","[3,1]","","",""
"","canvas-keyboard-response","131","168742","0.0-6.0-6.17","511","","","","","clear_screen","null","null","","","critical","d","c","t","227.1683","158.0083","164","240","240","164","trueblood","0.09","w","240","164","164","240","227.1683","158.0083","39360","39360","35894.4834","td","null","null","null","null","null","null","[3,1]","","",""
"","canvas-keyboard-response","132","168943","0.0-6.0-0.18","511","","","","","pre trial waiting period","null","null","","","critical","d","t","c","160.6713","232.8713","164","240","240","164","trueblood","0.05","h","164","240","240","164","160.6713","232.8713","39360","39360","37415.7294","td","null","null","null","null","null","null","[2,1]","434.6043451901427","420.7836922442713","491.5500530214364"
"","canvas-keyboard-response","133","168965","0.0-6.0-1.18","511","","","","","clear_screen","null","null","","","critical","d","t","c","160.6713","232.8713","164","240","240","164","trueblood","0.05","h","164","240","240","164","160.6713","232.8713","39360","39360","37415.7294","td","null","null","null","null","null","null","[2,1]","434.6043451901427","420.7836922442713","491.5500530214364"
"","canvas-keyboard-response","134","169474","0.0-6.0-2.18","511","","","","","rectangles no change","null","null","","","critical","d","t","c","160.6713","232.8713","164","240","240","164","trueblood","0.05","h","164","240","240","164","160.6713","232.8713","39360","39360","37415.7294","td","null","null","null","null","null","null","[2,1]","434.6043451901427","420.7836922442713","491.5500530214364"
"","canvas-keyboard-response","135","170813","0.0-6.0-3.18","511","","","","","rectangles with change","null","null","","","critical","d","t","c","160.6713","232.8713","164","240","240","164","trueblood","0.05","h","164","240","240","164","160.6713","232.8713","39360","39360","37415.7294","td","null","null","null","null","null","null","[2,1]","434.6043451901427","420.7836922442713","491.5500530214364"
"","canvas-keyboard-response","136","170831","0.0-6.0-4.18","511","","","","","clear_screen","null","null","","","critical","d","t","c","160.6713","232.8713","164","240","240","164","trueblood","0.05","h","164","240","240","164","160.6713","232.8713","39360","39360","37415.7294","td","null","null","null","null","null","null","[2,1]","434.6043451901427","420.7836922442713","491.5500530214364"
"","canvas-keyboard-response","137","170940","0.0-6.0-5.18","511","","","","","make choice","103","2","","","critical","d","t","c","160.6713","232.8713","164","240","240","164","trueblood","0.05","h","164","240","240","164","160.6713","232.8713","39360","39360","37415.7294","td","null","null","null","null","null","null","[2,1]","","",""
"","canvas-keyboard-response","138","170957","0.0-6.0-6.18","511","","","","","clear_screen","null","null","","","critical","d","t","c","160.6713","232.8713","164","240","240","164","trueblood","0.05","h","164","240","240","164","160.6713","232.8713","39360","39360","37415.7294","td","null","null","null","null","null","null","[2,1]","","",""
"","canvas-keyboard-response","139","171158","0.0-6.0-0.19","511","","","","","pre trial waiting period","null","null","","","critical","d","c","t","240","164","164","240","240","164","spektor","0","w","240","164","164","240","240","164","39360","39360","39360","td","null","null","null","null","null","null","[3,1]","534.8085303871343","128.69544679204702","536.6330050683773"
"","canvas-keyboard-response","140","171178","0.0-6.0-1.19","511","","","","","clear_screen","null","null","","","critical","d","c","t","240","164","164","240","240","164","spektor","0","w","240","164","164","240","240","164","39360","39360","39360","td","null","null","null","null","null","null","[3,1]","534.8085303871343","128.69544679204702","536.6330050683773"
"","canvas-keyboard-response","141","171689","0.0-6.0-2.19","511","","","","","rectangles no change","null","null","","","critical","d","c","t","240","164","164","240","240","164","spektor","0","w","240","164","164","240","240","164","39360","39360","39360","td","null","null","null","null","null","null","[3,1]","534.8085303871343","128.69544679204702","536.6330050683773"
"","canvas-keyboard-response","142","173025","0.0-6.0-3.19","511","","","","","rectangles with change","null","null","","","critical","d","c","t","240","164","164","240","240","164","spektor","0","w","240","164","164","240","240","164","39360","39360","39360","td","null","null","null","null","null","null","[3,1]","534.8085303871343","128.69544679204702","536.6330050683773"
"","canvas-keyboard-response","143","173045","0.0-6.0-4.19","511","","","","","clear_screen","null","null","","","critical","d","c","t","240","164","164","240","240","164","spektor","0","w","240","164","164","240","240","164","39360","39360","39360","td","null","null","null","null","null","null","[3,1]","534.8085303871343","128.69544679204702","536.6330050683773"
"","canvas-keyboard-response","144","173675","0.0-6.0-5.19","511","","","","","make choice","625","1","","","critical","d","c","t","240","164","164","240","240","164","spektor","0","w","240","164","164","240","240","164","39360","39360","39360","td","null","null","null","null","null","null","[3,1]","","",""
"","canvas-keyboard-response","145","173697","0.0-6.0-6.19","511","","","","","clear_screen","null","null","","","critical","d","c","t","240","164","164","240","240","164","spektor","0","w","240","164","164","240","240","164","39360","39360","39360","td","null","null","null","null","null","null","[3,1]","","",""
"","canvas-keyboard-response","146","173898","0.0-6.0-0.20","511","","","","","pre trial waiting period","null","null","","","critical","c","t","d","240","164","164","240","158.0083","227.1683","spektor","0.09","h","164","240","240","164","158.0083","227.1683","39360","39360","35894.4834","dc","null","null","null","null","null","null","[3,1]","497.7450690595808","134.55037909473677","493.84198437025077"
"","canvas-keyboard-response","147","173917","0.0-6.0-1.20","511","","","","","clear_screen","null","null","","","critical","c","t","d","240","164","164","240","158.0083","227.1683","spektor","0.09","h","164","240","240","164","158.0083","227.1683","39360","39360","35894.4834","dc","null","null","null","null","null","null","[3,1]","497.7450690595808","134.55037909473677","493.84198437025077"
"","canvas-keyboard-response","148","174424","0.0-6.0-2.20","511","","","","","rectangles no change","null","null","","","critical","c","t","d","240","164","164","240","158.0083","227.1683","spektor","0.09","h","164","240","240","164","158.0083","227.1683","39360","39360","35894.4834","dc","null","null","null","null","null","null","[3,1]","497.7450690595808","134.55037909473677","493.84198437025077"
"","canvas-keyboard-response","149","175758","0.0-6.0-3.20","511","","","","","rectangles with change","null","null","","","critical","c","t","d","240","164","164","240","158.0083","227.1683","spektor","0.09","h","164","240","240","164","158.0083","227.1683","39360","39360","35894.4834","dc","null","null","null","null","null","null","[3,1]","497.7450690595808","134.55037909473677","493.84198437025077"
"","canvas-keyboard-response","150","175778","0.0-6.0-4.20","511","","","","","clear_screen","null","null","","","critical","c","t","d","240","164","164","240","158.0083","227.1683","spektor","0.09","h","164","240","240","164","158.0083","227.1683","39360","39360","35894.4834","dc","null","null","null","null","null","null","[3,1]","497.7450690595808","134.55037909473677","493.84198437025077"
"","canvas-keyboard-response","151","176331","0.0-6.0-5.20","511","","","","","make choice","549","1","","","critical","c","t","d","240","164","164","240","158.0083","227.1683","spektor","0.09","h","164","240","240","164","158.0083","227.1683","39360","39360","35894.4834","dc","null","null","null","null","null","null","[3,1]","","",""
"","canvas-keyboard-response","152","176350","0.0-6.0-6.20","511","","","","","clear_screen","null","null","","","critical","c","t","d","240","164","164","240","158.0083","227.1683","spektor","0.09","h","164","240","240","164","158.0083","227.1683","39360","39360","35894.4834","dc","null","null","null","null","null","null","[3,1]","","",""
"","canvas-keyboard-response","153","176551","0.0-6.0-0.21","511","","","","","pre trial waiting period","null","null","","","critical","t","c","d","240","164","164","240","227.1683","158.0083","spektor","0.09","w","240","164","164","240","227.1683","158.0083","39360","39360","35894.4834","td","null","null","null","null","null","null","[1,3]","499.5394580052269","130.76309076356205","506.40726513444287"
"","canvas-keyboard-response","154","176573","0.0-6.0-1.21","511","","","","","clear_screen","null","null","","","critical","t","c","d","240","164","164","240","227.1683","158.0083","spektor","0.09","w","240","164","164","240","227.1683","158.0083","39360","39360","35894.4834","td","null","null","null","null","null","null","[1,3]","499.5394580052269","130.76309076356205","506.40726513444287"
"","canvas-keyboard-response","155","177077","0.0-6.0-2.21","511","","","","","rectangles no change","null","null","","","critical","t","c","d","240","164","164","240","227.1683","158.0083","spektor","0.09","w","240","164","164","240","227.1683","158.0083","39360","39360","35894.4834","td","null","null","null","null","null","null","[1,3]","499.5394580052269","130.76309076356205","506.40726513444287"
"","canvas-keyboard-response","156","178410","0.0-6.0-3.21","511","","","","","rectangles with change","null","null","","","critical","t","c","d","240","164","164","240","227.1683","158.0083","spektor","0.09","w","240","164","164","240","227.1683","158.0083","39360","39360","35894.4834","td","null","null","null","null","null","null","[1,3]","499.5394580052269","130.76309076356205","506.40726513444287"
"","canvas-keyboard-response","157","178431","0.0-6.0-4.21","511","","","","","clear_screen","null","null","","","critical","t","c","d","240","164","164","240","227.1683","158.0083","spektor","0.09","w","240","164","164","240","227.1683","158.0083","39360","39360","35894.4834","td","null","null","null","null","null","null","[1,3]","499.5394580052269","130.76309076356205","506.40726513444287"
"","canvas-keyboard-response","158","178844","0.0-6.0-5.21","511","","","","","make choice","408","1","","","critical","t","c","d","240","164","164","240","227.1683","158.0083","spektor","0.09","w","240","164","164","240","227.1683","158.0083","39360","39360","35894.4834","td","null","null","null","null","null","null","[1,3]","","",""
"","canvas-keyboard-response","159","178864","0.0-6.0-6.21","511","","","","","clear_screen","null","null","","","critical","t","c","d","240","164","164","240","227.1683","158.0083","spektor","0.09","w","240","164","164","240","227.1683","158.0083","39360","39360","35894.4834","td","null","null","null","null","null","null","[1,3]","","",""
"","canvas-keyboard-response","160","179064","0.0-6.0-0.22","511","","","","","pre trial waiting period","null","null","","","critical","c","t","d","240","164","164","240","154.6796","220.0396","trueblood","0.14","h","164","240","240","164","154.6796","220.0396","39360","39360","34035.6388","dc","null","null","null","null","null","null","[3,1]","487.25228652340064","453.0431064076378","469.99226090935184"
"","canvas-keyboard-response","161","179085","0.0-6.0-1.22","511","","","","","clear_screen","null","null","","","critical","c","t","d","240","164","164","240","154.6796","220.0396","trueblood","0.14","h","164","240","240","164","154.6796","220.0396","39360","39360","34035.6388","dc","null","null","null","null","null","null","[3,1]","487.25228652340064","453.0431064076378","469.99226090935184"
"","canvas-keyboard-response","162","179592","0.0-6.0-2.22","511","","","","","rectangles no change","null","null","","","critical","c","t","d","240","164","164","240","154.6796","220.0396","trueblood","0.14","h","164","240","240","164","154.6796","220.0396","39360","39360","34035.6388","dc","null","null","null","null","null","null","[3,1]","487.25228652340064","453.0431064076378","469.99226090935184"
"","canvas-keyboard-response","163","180932","0.0-6.0-3.22","511","","","","","rectangles with change","null","null","","","critical","c","t","d","240","164","164","240","154.6796","220.0396","trueblood","0.14","h","164","240","240","164","154.6796","220.0396","39360","39360","34035.6388","dc","null","null","null","null","null","null","[3,1]","487.25228652340064","453.0431064076378","469.99226090935184"
"","canvas-keyboard-response","164","180954","0.0-6.0-4.22","511","","","","","clear_screen","null","null","","","critical","c","t","d","240","164","164","240","154.6796","220.0396","trueblood","0.14","h","164","240","240","164","154.6796","220.0396","39360","39360","34035.6388","dc","null","null","null","null","null","null","[3,1]","487.25228652340064","453.0431064076378","469.99226090935184"
"","canvas-keyboard-response","165","181523","0.0-6.0-5.22","511","","","","","make choice","564","1","","","critical","c","t","d","240","164","164","240","154.6796","220.0396","trueblood","0.14","h","164","240","240","164","154.6796","220.0396","39360","39360","34035.6388","dc","null","null","null","null","null","null","[3,1]","","",""
"","canvas-keyboard-response","166","181541","0.0-6.0-6.22","511","","","","","clear_screen","null","null","","","critical","c","t","d","240","164","164","240","154.6796","220.0396","trueblood","0.14","h","164","240","240","164","154.6796","220.0396","39360","39360","34035.6388","dc","null","null","null","null","null","null","[3,1]","","",""
"","canvas-keyboard-response","167","181742","0.0-6.0-0.23","511","","","","","pre trial waiting period","null","null","","","critical","t","d","c","240","164","237.1485","162.6685","164","240","trueblood","0.02","w","240","164","164","240","237.1485","162.6685","39360","39360","38576.5967","dc","null","null","null","null","null","null","[2,3]","518.2951226122024","487.54982549807175","451.8163060469601"
"","canvas-keyboard-response","168","181765","0.0-6.0-1.23","511","","","","","clear_screen","null","null","","","critical","t","d","c","240","164","237.1485","162.6685","164","240","trueblood","0.02","w","240","164","164","240","237.1485","162.6685","39360","39360","38576.5967","dc","null","null","null","null","null","null","[2,3]","518.2951226122024","487.54982549807175","451.8163060469601"
"","canvas-keyboard-response","169","182272","0.0-6.0-2.23","511","","","","","rectangles no change","null","null","","","critical","t","d","c","240","164","237.1485","162.6685","164","240","trueblood","0.02","w","240","164","164","240","237.1485","162.6685","39360","39360","38576.5967","dc","null","null","null","null","null","null","[2,3]","518.2951226122024","487.54982549807175","451.8163060469601"
"","canvas-keyboard-response","170","183609","0.0-6.0-3.23","511","","","","","rectangles with change","null","null","","","critical","t","d","c","240","164","237.1485","162.6685","164","240","trueblood","0.02","w","240","164","164","240","237.1485","162.6685","39360","39360","38576.5967","dc","null","null","null","null","null","null","[2,3]","518.2951226122024","487.54982549807175","451.8163060469601"
"","canvas-keyboard-response","171","183627","0.0-6.0-4.23","511","","","","","clear_screen","null","null","","","critical","t","d","c","240","164","237.1485","162.6685","164","240","trueblood","0.02","w","240","164","164","240","237.1485","162.6685","39360","39360","38576.5967","dc","null","null","null","null","null","null","[2,3]","518.2951226122024","487.54982549807175","451.8163060469601"
"","canvas-keyboard-response","172","184075","0.0-6.0-5.23","511","","","","","make choice","443","2","","","critical","t","d","c","240","164","237.1485","162.6685","164","240","trueblood","0.02","w","240","164","164","240","237.1485","162.6685","39360","39360","38576.5967","dc","null","null","null","null","null","null","[2,3]","","",""
"","canvas-keyboard-response","173","184093","0.0-6.0-6.23","511","","","","","clear_screen","null","null","","","critical","t","d","c","240","164","237.1485","162.6685","164","240","trueblood","0.02","w","240","164","164","240","237.1485","162.6685","39360","39360","38576.5967","dc","null","null","null","null","null","null","[2,3]","","",""
"","canvas-keyboard-response","174","184295","0.0-6.0-0.24","511","","","","","pre trial waiting period","null","null","","","critical","t","d","c","240","164","240","164","164","240","spektor","0","w","240","164","164","240","240","164","39360","39360","39360","dc","null","null","null","null","null","null","[2,3]","498.49315800419066","174.77244886068638","457.6228552893466"
"","canvas-keyboard-response","175","184317","0.0-6.0-1.24","511","","","","","clear_screen","null","null","","","critical","t","d","c","240","164","240","164","164","240","spektor","0","w","240","164","164","240","240","164","39360","39360","39360","dc","null","null","null","null","null","null","[2,3]","498.49315800419066","174.77244886068638","457.6228552893466"
"","canvas-keyboard-response","176","184826","0.0-6.0-2.24","511","","","","","rectangles no change","null","null","","","critical","t","d","c","240","164","240","164","164","240","spektor","0","w","240","164","164","240","240","164","39360","39360","39360","dc","null","null","null","null","null","null","[2,3]","498.49315800419066","174.77244886068638","457.6228552893466"
"","canvas-keyboard-response","177","186164","0.0-6.0-3.24","511","","","","","rectangles with change","null","null","","","critical","t","d","c","240","164","240","164","164","240","spektor","0","w","240","164","164","240","240","164","39360","39360","39360","dc","null","null","null","null","null","null","[2,3]","498.49315800419066","174.77244886068638","457.6228552893466"
"","canvas-keyboard-response","178","186182","0.0-6.0-4.24","511","","","","","clear_screen","null","null","","","critical","t","d","c","240","164","240","164","164","240","spektor","0","w","240","164","164","240","240","164","39360","39360","39360","dc","null","null","null","null","null","null","[2,3]","498.49315800419066","174.77244886068638","457.6228552893466"
"","canvas-keyboard-response","179","186699","0.0-6.0-5.24","511","","","","","make choice","510","2","","","critical","t","d","c","240","164","240","164","164","240","spektor","0","w","240","164","164","240","240","164","39360","39360","39360","dc","null","null","null","null","null","null","[2,3]","","",""
"","canvas-keyboard-response","180","186720","0.0-6.0-6.24","511","","","","","clear_screen","null","null","","","critical","t","d","c","240","164","240","164","164","240","spektor","0","w","240","164","164","240","240","164","39360","39360","39360","dc","null","null","null","null","null","null","[2,3]","","",""
"","canvas-keyboard-response","181","186921","0.0-6.0-0.25","511","","","","","pre trial waiting period","null","null","","","catch","sh","l","sw","174","215","262","165","181","190","spektor","null","null","null","null","null","null","null","null","null","null","null","","180","200","260","200","36000","52000","[2,3]","501.40075127654353","168.98492077198557","502.91878748409874"
"","canvas-keyboard-response","182","186944","0.0-6.0-1.25","511","","","","","clear_screen","null","null","","","catch","sh","l","sw","174","215","262","165","181","190","spektor","null","null","null","null","null","null","null","null","null","null","null","","180","200","260","200","36000","52000","[2,3]","501.40075127654353","168.98492077198557","502.91878748409874"
"","canvas-keyboard-response","183","187449","0.0-6.0-2.25","511","","","","","rectangles no change","null","null","","","catch","sh","l","sw","174","215","262","165","181","190","spektor","null","null","null","null","null","null","null","null","null","null","null","","180","200","260","200","36000","52000","[2,3]","501.40075127654353","168.98492077198557","502.91878748409874"
"","canvas-keyboard-response","184","188788","0.0-6.0-3.25","511","","","","","rectangles with change","null","null","","","catch","sh","l","sw","174","215","262","165","181","190","spektor","null","null","null","null","null","null","null","null","null","null","null","","180","200","260","200","36000","52000","[2,3]","501.40075127654353","168.98492077198557","502.91878748409874"
"","canvas-keyboard-response","185","188807","0.0-6.0-4.25","511","","","","","clear_screen","null","null","","","catch","sh","l","sw","174","215","262","165","181","190","spektor","null","null","null","null","null","null","null","null","null","null","null","","180","200","260","200","36000","52000","[2,3]","501.40075127654353","168.98492077198557","502.91878748409874"
"","canvas-keyboard-response","186","191044","0.0-6.0-5.25","511","","","","","make choice","2232","2","","","catch","sh","l","sw","174","215","262","165","181","190","spektor","null","null","null","null","null","null","null","null","null","null","null","","180","200","260","200","36000","52000","[2,3]","","",""
"","canvas-keyboard-response","187","191063","0.0-6.0-6.25","511","","","","","clear_screen","null","null","","","catch","sh","l","sw","174","215","262","165","181","190","spektor","null","null","null","null","null","null","null","null","null","null","null","","180","200","260","200","36000","52000","[2,3]","","",""
"","canvas-keyboard-response","188","191264","0.0-6.0-0.26","511","","","","","pre trial waiting period","null","null","","","catch","sw","sh","l","180","200","205","142","185","264","spektor","null","null","null","null","null","null","null","null","null","null","null","","180","200","260","200","36000","52000","[1,3]","503.439349710521","187.29669459554594","459.21874624749114"
"","canvas-keyboard-response","189","191285","0.0-6.0-1.26","511","","","","","clear_screen","null","null","","","catch","sw","sh","l","180","200","205","142","185","264","spektor","null","null","null","null","null","null","null","null","null","null","null","","180","200","260","200","36000","52000","[1,3]","503.439349710521","187.29669459554594","459.21874624749114"
"","canvas-keyboard-response","190","191799","0.0-6.0-2.26","511","","","","","rectangles no change","null","null","","","catch","sw","sh","l","180","200","205","142","185","264","spektor","null","null","null","null","null","null","null","null","null","null","null","","180","200","260","200","36000","52000","[1,3]","503.439349710521","187.29669459554594","459.21874624749114"
"","canvas-keyboard-response","191","193140","0.0-6.0-3.26","511","","","","","rectangles with change","null","null","","","catch","sw","sh","l","180","200","205","142","185","264","spektor","null","null","null","null","null","null","null","null","null","null","null","","180","200","260","200","36000","52000","[1,3]","503.439349710521","187.29669459554594","459.21874624749114"
"","canvas-keyboard-response","192","193154","0.0-6.0-4.26","511","","","","","clear_screen","null","null","","","catch","sw","sh","l","180","200","205","142","185","264","spektor","null","null","null","null","null","null","null","null","null","null","null","","180","200","260","200","36000","52000","[1,3]","503.439349710521","187.29669459554594","459.21874624749114"
"","canvas-keyboard-response","193","193812","0.0-6.0-5.26","511","","","","","make choice","651","3","","","catch","sw","sh","l","180","200","205","142","185","264","spektor","null","null","null","null","null","null","null","null","null","null","null","","180","200","260","200","36000","52000","[1,3]","","",""
"","canvas-keyboard-response","194","193832","0.0-6.0-6.26","511","","","","","clear_screen","null","null","","","catch","sw","sh","l","180","200","205","142","185","264","spektor","null","null","null","null","null","null","null","null","null","null","null","","180","200","260","200","36000","52000","[1,3]","","",""
"","canvas-keyboard-response","195","194033","0.0-6.0-0.27","511","","","","","pre trial waiting period","null","null","","","critical","c","t","d","164","240","240","164","237.1485","162.6685","trueblood","0.02","w","240","164","164","240","237.1485","162.6685","39360","39360","38576.5967","td","null","null","null","null","null","null","[2,3]","434.2945778140985","506.64332569289934","512.9769043512122"
"","canvas-keyboard-response","196","194057","0.0-6.0-1.27","511","","","","","clear_screen","null","null","","","critical","c","t","d","164","240","240","164","237.1485","162.6685","trueblood","0.02","w","240","164","164","240","237.1485","162.6685","39360","39360","38576.5967","td","null","null","null","null","null","null","[2,3]","434.2945778140985","506.64332569289934","512.9769043512122"
"","canvas-keyboard-response","197","194564","0.0-6.0-2.27","511","","","","","rectangles no change","null","null","","","critical","c","t","d","164","240","240","164","237.1485","162.6685","trueblood","0.02","w","240","164","164","240","237.1485","162.6685","39360","39360","38576.5967","td","null","null","null","null","null","null","[2,3]","434.2945778140985","506.64332569289934","512.9769043512122"
"","canvas-keyboard-response","198","195903","0.0-6.0-3.27","511","","","","","rectangles with change","null","null","","","critical","c","t","d","164","240","240","164","237.1485","162.6685","trueblood","0.02","w","240","164","164","240","237.1485","162.6685","39360","39360","38576.5967","td","null","null","null","null","null","null","[2,3]","434.2945778140985","506.64332569289934","512.9769043512122"
"","canvas-keyboard-response","199","195923","0.0-6.0-4.27","511","","","","","clear_screen","null","null","","","critical","c","t","d","164","240","240","164","237.1485","162.6685","trueblood","0.02","w","240","164","164","240","237.1485","162.6685","39360","39360","38576.5967","td","null","null","null","null","null","null","[2,3]","434.2945778140985","506.64332569289934","512.9769043512122"
"","canvas-keyboard-response","200","196705","0.0-6.0-5.27","511","","","","","make choice","777","2","","","critical","c","t","d","164","240","240","164","237.1485","162.6685","trueblood","0.02","w","240","164","164","240","237.1485","162.6685","39360","39360","38576.5967","td","null","null","null","null","null","null","[2,3]","","",""
"","canvas-keyboard-response","201","196720","0.0-6.0-6.27","511","","","","","clear_screen","null","null","","","critical","c","t","d","164","240","240","164","237.1485","162.6685","trueblood","0.02","w","240","164","164","240","237.1485","162.6685","39360","39360","38576.5967","td","null","null","null","null","null","null","[2,3]","","",""
"","canvas-keyboard-response","202","196922","0.0-6.0-0.28","511","","","","","pre trial waiting period","null","null","","","critical","t","d","c","240","164","232.8713","160.6713","164","240","trueblood","0.05","w","240","164","164","240","232.8713","160.6713","39360","39360","37415.7294","dc","null","null","null","null","null","null","[2,3]","471.22855698696577","481.5367564294992","428.195344550554"
"","canvas-keyboard-response","203","196941","0.0-6.0-1.28","511","","","","","clear_screen","null","null","","","critical","t","d","c","240","164","232.8713","160.6713","164","240","trueblood","0.05","w","240","164","164","240","232.8713","160.6713","39360","39360","37415.7294","dc","null","null","null","null","null","null","[2,3]","471.22855698696577","481.5367564294992","428.195344550554"
"","canvas-keyboard-response","204","197449","0.0-6.0-2.28","511","","","","","rectangles no change","null","null","","","critical","t","d","c","240","164","232.8713","160.6713","164","240","trueblood","0.05","w","240","164","164","240","232.8713","160.6713","39360","39360","37415.7294","dc","null","null","null","null","null","null","[2,3]","471.22855698696577","481.5367564294992","428.195344550554"
"","canvas-keyboard-response","205","198788","0.0-6.0-3.28","511","","","","","rectangles with change","null","null","","","critical","t","d","c","240","164","232.8713","160.6713","164","240","trueblood","0.05","w","240","164","164","240","232.8713","160.6713","39360","39360","37415.7294","dc","null","null","null","null","null","null","[2,3]","471.22855698696577","481.5367564294992","428.195344550554"
"","canvas-keyboard-response","206","198808","0.0-6.0-4.28","511","","","","","clear_screen","null","null","","","critical","t","d","c","240","164","232.8713","160.6713","164","240","trueblood","0.05","w","240","164","164","240","232.8713","160.6713","39360","39360","37415.7294","dc","null","null","null","null","null","null","[2,3]","471.22855698696577","481.5367564294992","428.195344550554"
"","canvas-keyboard-response","207","199667","0.0-6.0-5.28","511","","","","","make choice","854","3","","","critical","t","d","c","240","164","232.8713","160.6713","164","240","trueblood","0.05","w","240","164","164","240","232.8713","160.6713","39360","39360","37415.7294","dc","null","null","null","null","null","null","[2,3]","","",""
"","canvas-keyboard-response","208","199688","0.0-6.0-6.28","511","","","","","clear_screen","null","null","","","critical","t","d","c","240","164","232.8713","160.6713","164","240","trueblood","0.05","w","240","164","164","240","232.8713","160.6713","39360","39360","37415.7294","dc","null","null","null","null","null","null","[2,3]","","",""
"","canvas-keyboard-response","209","199890","0.0-6.0-0.29","511","","","","","pre trial waiting period","null","null","","","critical","d","c","t","164","240","240","164","164","240","trueblood","0","h","164","240","240","164","164","240","39360","39360","39360","dc","null","null","null","null","null","null","[1,2]","462.9906060210386","483.3831790762233","455.1810808441511"
"","canvas-keyboard-response","210","199908","0.0-6.0-1.29","511","","","","","clear_screen","null","null","","","critical","d","c","t","164","240","240","164","164","240","trueblood","0","h","164","240","240","164","164","240","39360","39360","39360","dc","null","null","null","null","null","null","[1,2]","462.9906060210386","483.3831790762233","455.1810808441511"
"","canvas-keyboard-response","211","200416","0.0-6.0-2.29","511","","","","","rectangles no change","null","null","","","critical","d","c","t","164","240","240","164","164","240","trueblood","0","h","164","240","240","164","164","240","39360","39360","39360","dc","null","null","null","null","null","null","[1,2]","462.9906060210386","483.3831790762233","455.1810808441511"
"","canvas-keyboard-response","212","201750","0.0-6.0-3.29","511","","","","","rectangles with change","null","null","","","critical","d","c","t","164","240","240","164","164","240","trueblood","0","h","164","240","240","164","164","240","39360","39360","39360","dc","null","null","null","null","null","null","[1,2]","462.9906060210386","483.3831790762233","455.1810808441511"
"","canvas-keyboard-response","213","201770","0.0-6.0-4.29","511","","","","","clear_screen","null","null","","","critical","d","c","t","164","240","240","164","164","240","trueblood","0","h","164","240","240","164","164","240","39360","39360","39360","dc","null","null","null","null","null","null","[1,2]","462.9906060210386","483.3831790762233","455.1810808441511"
"","canvas-keyboard-response","214","202355","0.0-6.0-5.29","511","","","","","make choice","576","2","","","critical","d","c","t","164","240","240","164","164","240","trueblood","0","h","164","240","240","164","164","240","39360","39360","39360","dc","null","null","null","null","null","null","[1,2]","","",""
"","canvas-keyboard-response","215","202373","0.0-6.0-6.29","511","","","","","clear_screen","null","null","","","critical","d","c","t","164","240","240","164","164","240","trueblood","0","h","164","240","240","164","164","240","39360","39360","39360","dc","null","null","null","null","null","null","[1,2]","","",""
"","canvas-keyboard-response","216","202574","0.0-6.0-0.30","511","","","","","pre trial waiting period","null","null","","","critical","d","c","t","240","164","164","240","240","164","spektor","0","w","240","164","164","240","240","164","39360","39360","39360","tc","null","null","null","null","null","null","[3,2]","526.8253179296003","151.8012208174367","539.6268865813022"
"","canvas-keyboard-response","217","202597","0.0-6.0-1.30","511","","","","","clear_screen","null","null","","","critical","d","c","t","240","164","164","240","240","164","spektor","0","w","240","164","164","240","240","164","39360","39360","39360","tc","null","null","null","null","null","null","[3,2]","526.8253179296003","151.8012208174367","539.6268865813022"
"","canvas-keyboard-response","218","203102","0.0-6.0-2.30","511","","","","","rectangles no change","null","null","","","critical","d","c","t","240","164","164","240","240","164","spektor","0","w","240","164","164","240","240","164","39360","39360","39360","tc","null","null","null","null","null","null","[3,2]","526.8253179296003","151.8012208174367","539.6268865813022"
"","canvas-keyboard-response","219","204438","0.0-6.0-3.30","511","","","","","rectangles with change","null","null","","","critical","d","c","t","240","164","164","240","240","164","spektor","0","w","240","164","164","240","240","164","39360","39360","39360","tc","null","null","null","null","null","null","[3,2]","526.8253179296003","151.8012208174367","539.6268865813022"
"","canvas-keyboard-response","220","204460","0.0-6.0-4.30","511","","","","","clear_screen","null","null","","","critical","d","c","t","240","164","164","240","240","164","spektor","0","w","240","164","164","240","240","164","39360","39360","39360","tc","null","null","null","null","null","null","[3,2]","526.8253179296003","151.8012208174367","539.6268865813022"
"","canvas-keyboard-response","221","204916","0.0-6.0-5.30","511","","","","","make choice","450","3","","","critical","d","c","t","240","164","164","240","240","164","spektor","0","w","240","164","164","240","240","164","39360","39360","39360","tc","null","null","null","null","null","null","[3,2]","","",""
"","canvas-keyboard-response","222","204933","0.0-6.0-6.30","511","","","","","clear_screen","null","null","","","critical","d","c","t","240","164","164","240","240","164","spektor","0","w","240","164","164","240","240","164","39360","39360","39360","tc","null","null","null","null","null","null","[3,2]","","",""
"","canvas-keyboard-response","223","205133","0.0-6.0-0.31","511","","","","","pre trial waiting period","null","null","","","critical","d","t","c","232.8713","160.6713","240","164","164","240","spektor","0.05","w","240","164","164","240","232.8713","160.6713","39360","39360","37415.7294","tc","null","null","null","null","null","null","[2,3]","522.1970023237056","210.8489984685007","487.7294462867682"
"","canvas-keyboard-response","224","205151","0.0-6.0-1.31","511","","","","","clear_screen","null","null","","","critical","d","t","c","232.8713","160.6713","240","164","164","240","spektor","0.05","w","240","164","164","240","232.8713","160.6713","39360","39360","37415.7294","tc","null","null","null","null","null","null","[2,3]","522.1970023237056","210.8489984685007","487.7294462867682"
"","canvas-keyboard-response","225","205657","0.0-6.0-2.31","511","","","","","rectangles no change","null","null","","","critical","d","t","c","232.8713","160.6713","240","164","164","240","spektor","0.05","w","240","164","164","240","232.8713","160.6713","39360","39360","37415.7294","tc","null","null","null","null","null","null","[2,3]","522.1970023237056","210.8489984685007","487.7294462867682"
"","canvas-keyboard-response","226","206992","0.0-6.0-3.31","511","","","","","rectangles with change","null","null","","","critical","d","t","c","232.8713","160.6713","240","164","164","240","spektor","0.05","w","240","164","164","240","232.8713","160.6713","39360","39360","37415.7294","tc","null","null","null","null","null","null","[2,3]","522.1970023237056","210.8489984685007","487.7294462867682"
"","canvas-keyboard-response","227","207013","0.0-6.0-4.31","511","","","","","clear_screen","null","null","","","critical","d","t","c","232.8713","160.6713","240","164","164","240","spektor","0.05","w","240","164","164","240","232.8713","160.6713","39360","39360","37415.7294","tc","null","null","null","null","null","null","[2,3]","522.1970023237056","210.8489984685007","487.7294462867682"
"","canvas-keyboard-response","228","207667","0.0-6.0-5.31","511","","","","","make choice","650","2","","","critical","d","t","c","232.8713","160.6713","240","164","164","240","spektor","0.05","w","240","164","164","240","232.8713","160.6713","39360","39360","37415.7294","tc","null","null","null","null","null","null","[2,3]","","",""
"","canvas-keyboard-response","229","207685","0.0-6.0-6.31","511","","","","","clear_screen","null","null","","","critical","d","t","c","232.8713","160.6713","240","164","164","240","spektor","0.05","w","240","164","164","240","232.8713","160.6713","39360","39360","37415.7294","tc","null","null","null","null","null","null","[2,3]","","",""
"","canvas-keyboard-response","230","207886","0.0-6.0-0.32","511","","","","","pre trial waiting period","null","null","","","critical","t","c","d","240","164","164","240","240","164","trueblood","0","w","240","164","164","240","240","164","39360","39360","39360","dc","null","null","null","null","null","null","[3,2]","473.6468765055729","441.7566120649781","487.41386591115554"
"","canvas-keyboard-response","231","207904","0.0-6.0-1.32","511","","","","","clear_screen","null","null","","","critical","t","c","d","240","164","164","240","240","164","trueblood","0","w","240","164","164","240","240","164","39360","39360","39360","dc","null","null","null","null","null","null","[3,2]","473.6468765055729","441.7566120649781","487.41386591115554"
"","canvas-keyboard-response","232","208412","0.0-6.0-2.32","511","","","","","rectangles no change","null","null","","","critical","t","c","d","240","164","164","240","240","164","trueblood","0","w","240","164","164","240","240","164","39360","39360","39360","dc","null","null","null","null","null","null","[3,2]","473.6468765055729","441.7566120649781","487.41386591115554"
"","canvas-keyboard-response","233","209748","0.0-6.0-3.32","511","","","","","rectangles with change","null","null","","","critical","t","c","d","240","164","164","240","240","164","trueblood","0","w","240","164","164","240","240","164","39360","39360","39360","dc","null","null","null","null","null","null","[3,2]","473.6468765055729","441.7566120649781","487.41386591115554"
"","canvas-keyboard-response","234","209768","0.0-6.0-4.32","511","","","","","clear_screen","null","null","","","critical","t","c","d","240","164","164","240","240","164","trueblood","0","w","240","164","164","240","240","164","39360","39360","39360","dc","null","null","null","null","null","null","[3,2]","473.6468765055729","441.7566120649781","487.41386591115554"
"","canvas-keyboard-response","235","210171","0.0-6.0-5.32","511","","","","","make choice","398","3","","","critical","t","c","d","240","164","164","240","240","164","trueblood","0","w","240","164","164","240","240","164","39360","39360","39360","dc","null","null","null","null","null","null","[3,2]","","",""
"","canvas-keyboard-response","236","210187","0.0-6.0-6.32","511","","","","","clear_screen","null","null","","","critical","t","c","d","240","164","164","240","240","164","trueblood","0","w","240","164","164","240","240","164","39360","39360","39360","dc","null","null","null","null","null","null","[3,2]","","",""
"","canvas-keyboard-response","237","210388","0.0-6.0-0.33","511","","","","","pre trial waiting period","null","null","","","critical","t","c","d","164","240","240","164","160.6713","232.8713","spektor","0.05","h","164","240","240","164","160.6713","232.8713","39360","39360","37415.7294","dc","null","null","null","null","null","null","[3,2]","484.5657194994083","166.0108640467281","496.8668874645466"
"","canvas-keyboard-response","238","210412","0.0-6.0-1.33","511","","","","","clear_screen","null","null","","","critical","t","c","d","164","240","240","164","160.6713","232.8713","spektor","0.05","h","164","240","240","164","160.6713","232.8713","39360","39360","37415.7294","dc","null","null","null","null","null","null","[3,2]","484.5657194994083","166.0108640467281","496.8668874645466"
"","canvas-keyboard-response","239","210923","0.0-6.0-2.33","511","","","","","rectangles no change","null","null","","","critical","t","c","d","164","240","240","164","160.6713","232.8713","spektor","0.05","h","164","240","240","164","160.6713","232.8713","39360","39360","37415.7294","dc","null","null","null","null","null","null","[3,2]","484.5657194994083","166.0108640467281","496.8668874645466"
"","canvas-keyboard-response","240","212261","0.0-6.0-3.33","511","","","","","rectangles with change","null","null","","","critical","t","c","d","164","240","240","164","160.6713","232.8713","spektor","0.05","h","164","240","240","164","160.6713","232.8713","39360","39360","37415.7294","dc","null","null","null","null","null","null","[3,2]","484.5657194994083","166.0108640467281","496.8668874645466"
"","canvas-keyboard-response","241","212279","0.0-6.0-4.33","511","","","","","clear_screen","null","null","","","critical","t","c","d","164","240","240","164","160.6713","232.8713","spektor","0.05","h","164","240","240","164","160.6713","232.8713","39360","39360","37415.7294","dc","null","null","null","null","null","null","[3,2]","484.5657194994083","166.0108640467281","496.8668874645466"
"","canvas-keyboard-response","242","212684","0.0-6.0-5.33","511","","","","","make choice","397","2","","","critical","t","c","d","164","240","240","164","160.6713","232.8713","spektor","0.05","h","164","240","240","164","160.6713","232.8713","39360","39360","37415.7294","dc","null","null","null","null","null","null","[3,2]","","",""
"","canvas-keyboard-response","243","212700","0.0-6.0-6.33","511","","","","","clear_screen","null","null","","","critical","t","c","d","164","240","240","164","160.6713","232.8713","spektor","0.05","h","164","240","240","164","160.6713","232.8713","39360","39360","37415.7294","dc","null","null","null","null","null","null","[3,2]","","",""
"","canvas-keyboard-response","244","212901","0.0-6.0-0.34","511","","","","","pre trial waiting period","null","null","","","critical","t","c","d","164","240","240","164","160.6713","232.8713","trueblood","0.05","h","164","240","240","164","160.6713","232.8713","39360","39360","37415.7294","dc","null","null","null","null","null","null","[3,2]","464.2722704289514","513.0883874570583","437.66537528001913"
"","canvas-keyboard-response","245","212924","0.0-6.0-1.34","511","","","","","clear_screen","null","null","","","critical","t","c","d","164","240","240","164","160.6713","232.8713","trueblood","0.05","h","164","240","240","164","160.6713","232.8713","39360","39360","37415.7294","dc","null","null","null","null","null","null","[3,2]","464.2722704289514","513.0883874570583","437.66537528001913"
"","canvas-keyboard-response","246","213431","0.0-6.0-2.34","511","","","","","rectangles no change","null","null","","","critical","t","c","d","164","240","240","164","160.6713","232.8713","trueblood","0.05","h","164","240","240","164","160.6713","232.8713","39360","39360","37415.7294","dc","null","null","null","null","null","null","[3,2]","464.2722704289514","513.0883874570583","437.66537528001913"
"","canvas-keyboard-response","247","214767","0.0-6.0-3.34","511","","","","","rectangles with change","null","null","","","critical","t","c","d","164","240","240","164","160.6713","232.8713","trueblood","0.05","h","164","240","240","164","160.6713","232.8713","39360","39360","37415.7294","dc","null","null","null","null","null","null","[3,2]","464.2722704289514","513.0883874570583","437.66537528001913"
"","canvas-keyboard-response","248","214786","0.0-6.0-4.34","511","","","","","clear_screen","null","null","","","critical","t","c","d","164","240","240","164","160.6713","232.8713","trueblood","0.05","h","164","240","240","164","160.6713","232.8713","39360","39360","37415.7294","dc","null","null","null","null","null","null","[3,2]","464.2722704289514","513.0883874570583","437.66537528001913"
"","canvas-keyboard-response","249","215244","0.0-6.0-5.34","511","","","","","make choice","452","2","","","critical","t","c","d","164","240","240","164","160.6713","232.8713","trueblood","0.05","h","164","240","240","164","160.6713","232.8713","39360","39360","37415.7294","dc","null","null","null","null","null","null","[3,2]","","",""
"","canvas-keyboard-response","250","215264","0.0-6.0-6.34","511","","","","","clear_screen","null","null","","","critical","t","c","d","164","240","240","164","160.6713","232.8713","trueblood","0.05","h","164","240","240","164","160.6713","232.8713","39360","39360","37415.7294","dc","null","null","null","null","null","null","[3,2]","","",""
"","canvas-keyboard-response","251","215466","0.0-6.0-0.35","511","","","","","pre trial waiting period","null","null","","","critical","t","c","d","240","164","164","240","232.8713","160.6713","trueblood","0.05","w","240","164","164","240","232.8713","160.6713","39360","39360","37415.7294","tc","null","null","null","null","null","null","[1,2]","500.17881622983055","457.49490570719485","471.6041327384092"
"","canvas-keyboard-response","252","215485","0.0-6.0-1.35","511","","","","","clear_screen","null","null","","","critical","t","c","d","240","164","164","240","232.8713","160.6713","trueblood","0.05","w","240","164","164","240","232.8713","160.6713","39360","39360","37415.7294","tc","null","null","null","null","null","null","[1,2]","500.17881622983055","457.49490570719485","471.6041327384092"
"","canvas-keyboard-response","253","215989","0.0-6.0-2.35","511","","","","","rectangles no change","null","null","","","critical","t","c","d","240","164","164","240","232.8713","160.6713","trueblood","0.05","w","240","164","164","240","232.8713","160.6713","39360","39360","37415.7294","tc","null","null","null","null","null","null","[1,2]","500.17881622983055","457.49490570719485","471.6041327384092"
"","canvas-keyboard-response","254","217324","0.0-6.0-3.35","511","","","","","rectangles with change","null","null","","","critical","t","c","d","240","164","164","240","232.8713","160.6713","trueblood","0.05","w","240","164","164","240","232.8713","160.6713","39360","39360","37415.7294","tc","null","null","null","null","null","null","[1,2]","500.17881622983055","457.49490570719485","471.6041327384092"
"","canvas-keyboard-response","255","217346","0.0-6.0-4.35","511","","","","","clear_screen","null","null","","","critical","t","c","d","240","164","164","240","232.8713","160.6713","trueblood","0.05","w","240","164","164","240","232.8713","160.6713","39360","39360","37415.7294","tc","null","null","null","null","null","null","[1,2]","500.17881622983055","457.49490570719485","471.6041327384092"
"","canvas-keyboard-response","256","217780","0.0-6.0-5.35","511","","","","","make choice","428","1","","","critical","t","c","d","240","164","164","240","232.8713","160.6713","trueblood","0.05","w","240","164","164","240","232.8713","160.6713","39360","39360","37415.7294","tc","null","null","null","null","null","null","[1,2]","","",""
"","canvas-keyboard-response","257","217799","0.0-6.0-6.35","511","","","","","clear_screen","null","null","","","critical","t","c","d","240","164","164","240","232.8713","160.6713","trueblood","0.05","w","240","164","164","240","232.8713","160.6713","39360","39360","37415.7294","tc","null","null","null","null","null","null","[1,2]","","",""
"","canvas-keyboard-response","258","218000","0.0-6.0-0.36","511","","","","","pre trial waiting period","null","null","","","critical","c","d","t","164","240","232.8713","160.6713","240","164","spektor","0.05","w","240","164","164","240","232.8713","160.6713","39360","39360","37415.7294","td","null","null","null","null","null","null","[3,2]","488.490292537352","191.12365101392854","535.9680193198625"
"","canvas-keyboard-response","259","218018","0.0-6.0-1.36","511","","","","","clear_screen","null","null","","","critical","c","d","t","164","240","232.8713","160.6713","240","164","spektor","0.05","w","240","164","164","240","232.8713","160.6713","39360","39360","37415.7294","td","null","null","null","null","null","null","[3,2]","488.490292537352","191.12365101392854","535.9680193198625"
"","canvas-keyboard-response","260","218524","0.0-6.0-2.36","511","","","","","rectangles no change","null","null","","","critical","c","d","t","164","240","232.8713","160.6713","240","164","spektor","0.05","w","240","164","164","240","232.8713","160.6713","39360","39360","37415.7294","td","null","null","null","null","null","null","[3,2]","488.490292537352","191.12365101392854","535.9680193198625"
"","canvas-keyboard-response","261","219861","0.0-6.0-3.36","511","","","","","rectangles with change","null","null","","","critical","c","d","t","164","240","232.8713","160.6713","240","164","spektor","0.05","w","240","164","164","240","232.8713","160.6713","39360","39360","37415.7294","td","null","null","null","null","null","null","[3,2]","488.490292537352","191.12365101392854","535.9680193198625"
"","canvas-keyboard-response","262","219883","0.0-6.0-4.36","511","","","","","clear_screen","null","null","","","critical","c","d","t","164","240","232.8713","160.6713","240","164","spektor","0.05","w","240","164","164","240","232.8713","160.6713","39360","39360","37415.7294","td","null","null","null","null","null","null","[3,2]","488.490292537352","191.12365101392854","535.9680193198625"
"","canvas-keyboard-response","263","220459","0.0-6.0-5.36","511","","","","","make choice","568","2","","","critical","c","d","t","164","240","232.8713","160.6713","240","164","spektor","0.05","w","240","164","164","240","232.8713","160.6713","39360","39360","37415.7294","td","null","null","null","null","null","null","[3,2]","","",""
"","canvas-keyboard-response","264","220478","0.0-6.0-6.36","511","","","","","clear_screen","null","null","","","critical","c","d","t","164","240","232.8713","160.6713","240","164","spektor","0.05","w","240","164","164","240","232.8713","160.6713","39360","39360","37415.7294","td","null","null","null","null","null","null","[3,2]","","",""
