"success","trial_type","trial_index","time_elapsed","internal_node_id","sub_n","timeout","failed_images","failed_audio","failed_video","screen_id","rt","response","stimulus","view_history","trial","r1","r2","r3","w1","h1","w2","h2","w3","h3","display","tdd","tdo","tw","th","cw","ch","dw","dh","ta","ca","da","probe","csls","csss","clls","clss","sa","la","probe_rects","r1yloc","r2yloc","r3yloc"
"true","fullscreen","0","2759","0.0-0.0","562","","","","","","","","","","","","","","","","","","","","","","","","","","","","","","","","","","","","","","","","","",""
"true","preload","1","2843","0.0-1.0","562","false","[]","[]","[]","img preload","","","","","","","","","","","","","","","","","","","","","","","","","","","","","","","","","","","","",""
"","survey-html-form","2","6654","0.0-2.0","562","","","","","enter-sub-number","3789","{""response"":""562""}","","","","","","","","","","","","","","","","","","","","","","","","","","","","","","","","","","",""
"","image-button-response","3","24709","0.0-3.0","562","","","","","","17953","0","consent.png","","","","","","","","","","","","","","","","","","","","","","","","","","","","","","","","","",""
"","html-button-response","4","30245","0.0-4.0","562","","","","","intro mssg","5531","0","<div style= ""font-size:25px;"" <p> <strong> Welcome! </strong><br> <p style=""color:#8B0000; font-size:25px;""><strong> Please do NOT exit full screen until you are done with the experiment. </strong> </p><p style=""font-size:25px;color:#8B0000;""> <strong> Your data will be lost <br> if you try to go back or refresh the page after the experiment starts. Feel free to click ""previous"" during the instructions, however.</strong> </p><br><p> <strong> Thanks in advance for your contribution to our research! </strong></p>","","","","","","","","","","","","","","","","","","","","","","","","","","","","","","","","","",""
"","instructions","5","82349","0.0-5.0","562","","","","","instructions","52099","","","[{""page_index"":0,""viewing_time"":10323},{""page_index"":1,""viewing_time"":5201},{""page_index"":2,""viewing_time"":2575},{""page_index"":3,""viewing_time"":22969},{""page_index"":4,""viewing_time"":5639},{""page_index"":5,""viewing_time"":1720},{""page_index"":6,""viewing_time"":2664},{""page_index"":7,""viewing_time"":1008}]","","","","","","","","","","","","","","","","","","","","","","","","","","","","","","","","",""
"","canvas-keyboard-response","6","82554","0.0-6.0-0.0","562","","","","","pre trial waiting period","null","null","","","catch","sw","l","sh","180","200","225","282","188","175","trueblood","null","null","null","null","null","null","null","null","null","null","null","","180","200","260","200","36000","52000","[2,3]","454.16838862815007","429.42254534173526","478.0766598130789"
"","canvas-keyboard-response","7","82580","0.0-6.0-1.0","562","","","","","clear_screen","null","null","","","catch","sw","l","sh","180","200","225","282","188","175","trueblood","null","null","null","null","null","null","null","null","null","null","null","","180","200","260","200","36000","52000","[2,3]","454.16838862815007","429.42254534173526","478.0766598130789"
"","canvas-keyboard-response","8","83097","0.0-6.0-2.0","562","","","","","rectangles no change","null","null","","","catch","sw","l","sh","180","200","225","282","188","175","trueblood","null","null","null","null","null","null","null","null","null","null","null","","180","200","260","200","36000","52000","[2,3]","454.16838862815007","429.42254534173526","478.0766598130789"
"","canvas-keyboard-response","9","84433","0.0-6.0-3.0","562","","","","","rectangles with change","null","null","","","catch","sw","l","sh","180","200","225","282","188","175","trueblood","null","null","null","null","null","null","null","null","null","null","null","","180","200","260","200","36000","52000","[2,3]","454.16838862815007","429.42254534173526","478.0766598130789"
"","canvas-keyboard-response","10","84453","0.0-6.0-4.0","562","","","","","clear_screen","null","null","","","catch","sw","l","sh","180","200","225","282","188","175","trueblood","null","null","null","null","null","null","null","null","null","null","null","","180","200","260","200","36000","52000","[2,3]","454.16838862815007","429.42254534173526","478.0766598130789"
"","canvas-keyboard-response","11","86968","0.0-6.0-5.0","562","","","","","make choice","2507","2","","","catch","sw","l","sh","180","200","225","282","188","175","trueblood","null","null","null","null","null","null","null","null","null","null","null","","180","200","260","200","36000","52000","[2,3]","","",""
"","canvas-keyboard-response","12","86988","0.0-6.0-6.0","562","","","","","clear_screen","null","null","","","catch","sw","l","sh","180","200","225","282","188","175","trueblood","null","null","null","null","null","null","null","null","null","null","null","","180","200","260","200","36000","52000","[2,3]","","",""
"","canvas-keyboard-response","13","87189","0.0-6.0-0.1","562","","","","","pre trial waiting period","null","null","","","catch","l","sh","sw","224","222","224","194","200","166","trueblood","null","null","null","null","null","null","null","null","null","null","null","","180","200","260","200","36000","52000","[1,3]","451.2968488366107","469.0209073583211","505.95989300244935"
"","canvas-keyboard-response","14","87208","0.0-6.0-1.1","562","","","","","clear_screen","null","null","","","catch","l","sh","sw","224","222","224","194","200","166","trueblood","null","null","null","null","null","null","null","null","null","null","null","","180","200","260","200","36000","52000","[1,3]","451.2968488366107","469.0209073583211","505.95989300244935"
"","canvas-keyboard-response","15","87718","0.0-6.0-2.1","562","","","","","rectangles no change","null","null","","","catch","l","sh","sw","224","222","224","194","200","166","trueblood","null","null","null","null","null","null","null","null","null","null","null","","180","200","260","200","36000","52000","[1,3]","451.2968488366107","469.0209073583211","505.95989300244935"
"","canvas-keyboard-response","16","89052","0.0-6.0-3.1","562","","","","","rectangles with change","null","null","","","catch","l","sh","sw","224","222","224","194","200","166","trueblood","null","null","null","null","null","null","null","null","null","null","null","","180","200","260","200","36000","52000","[1,3]","451.2968488366107","469.0209073583211","505.95989300244935"
"","canvas-keyboard-response","17","89071","0.0-6.0-4.1","562","","","","","clear_screen","null","null","","","catch","l","sh","sw","224","222","224","194","200","166","trueblood","null","null","null","null","null","null","null","null","null","null","null","","180","200","260","200","36000","52000","[1,3]","451.2968488366107","469.0209073583211","505.95989300244935"
"","canvas-keyboard-response","18","90448","0.0-6.0-5.1","562","","","","","make choice","1358","1","","","catch","l","sh","sw","224","222","224","194","200","166","trueblood","null","null","null","null","null","null","null","null","null","null","null","","180","200","260","200","36000","52000","[1,3]","","",""
"","canvas-keyboard-response","19","90466","0.0-6.0-6.1","562","","","","","clear_screen","null","null","","","catch","l","sh","sw","224","222","224","194","200","166","trueblood","null","null","null","null","null","null","null","null","null","null","null","","180","200","260","200","36000","52000","[1,3]","","",""
"","canvas-keyboard-response","20","90667","0.0-6.0-0.2","562","","","","","pre trial waiting period","null","null","","","critical","d","c","t","160.6713","232.8713","240","164","164","240","spektor","0.05","h","164","240","240","164","160.6713","232.8713","39360","39360","37415.7294","td","null","null","null","null","null","null","[3,1]","464.4121996589014","170.30514743774393","462.93301161683"
"","canvas-keyboard-response","21","90687","0.0-6.0-1.2","562","","","","","clear_screen","null","null","","","critical","d","c","t","160.6713","232.8713","240","164","164","240","spektor","0.05","h","164","240","240","164","160.6713","232.8713","39360","39360","37415.7294","td","null","null","null","null","null","null","[3,1]","464.4121996589014","170.30514743774393","462.93301161683"
"","canvas-keyboard-response","22","91199","0.0-6.0-2.2","562","","","","","rectangles no change","null","null","","","critical","d","c","t","160.6713","232.8713","240","164","164","240","spektor","0.05","h","164","240","240","164","160.6713","232.8713","39360","39360","37415.7294","td","null","null","null","null","null","null","[3,1]","464.4121996589014","170.30514743774393","462.93301161683"
"","canvas-keyboard-response","23","92535","0.0-6.0-3.2","562","","","","","rectangles with change","null","null","","","critical","d","c","t","160.6713","232.8713","240","164","164","240","spektor","0.05","h","164","240","240","164","160.6713","232.8713","39360","39360","37415.7294","td","null","null","null","null","null","null","[3,1]","464.4121996589014","170.30514743774393","462.93301161683"
"","canvas-keyboard-response","24","92553","0.0-6.0-4.2","562","","","","","clear_screen","null","null","","","critical","d","c","t","160.6713","232.8713","240","164","164","240","spektor","0.05","h","164","240","240","164","160.6713","232.8713","39360","39360","37415.7294","td","null","null","null","null","null","null","[3,1]","464.4121996589014","170.30514743774393","462.93301161683"
"","canvas-keyboard-response","25","93800","0.0-6.0-5.2","562","","","","","make choice","1239","3","","","critical","d","c","t","160.6713","232.8713","240","164","164","240","spektor","0.05","h","164","240","240","164","160.6713","232.8713","39360","39360","37415.7294","td","null","null","null","null","null","null","[3,1]","","",""
"","canvas-keyboard-response","26","93818","0.0-6.0-6.2","562","","","","","clear_screen","null","null","","","critical","d","c","t","160.6713","232.8713","240","164","164","240","spektor","0.05","h","164","240","240","164","160.6713","232.8713","39360","39360","37415.7294","td","null","null","null","null","null","null","[3,1]","","",""
"","canvas-keyboard-response","27","94019","0.0-6.0-0.3","562","","","","","pre trial waiting period","null","null","","","catch","l","sw","sh","162","247","204","176","205","170","trueblood","null","null","null","null","null","null","null","null","null","null","null","","180","200","260","200","36000","52000","[1,2]","455.7790900346881","475.6792292930364","505.75747463802264"
"","canvas-keyboard-response","28","94039","0.0-6.0-1.3","562","","","","","clear_screen","null","null","","","catch","l","sw","sh","162","247","204","176","205","170","trueblood","null","null","null","null","null","null","null","null","null","null","null","","180","200","260","200","36000","52000","[1,2]","455.7790900346881","475.6792292930364","505.75747463802264"
"","canvas-keyboard-response","29","94549","0.0-6.0-2.3","562","","","","","rectangles no change","null","null","","","catch","l","sw","sh","162","247","204","176","205","170","trueblood","null","null","null","null","null","null","null","null","null","null","null","","180","200","260","200","36000","52000","[1,2]","455.7790900346881","475.6792292930364","505.75747463802264"
"","canvas-keyboard-response","30","95884","0.0-6.0-3.3","562","","","","","rectangles with change","null","null","","","catch","l","sw","sh","162","247","204","176","205","170","trueblood","null","null","null","null","null","null","null","null","null","null","null","","180","200","260","200","36000","52000","[1,2]","455.7790900346881","475.6792292930364","505.75747463802264"
"","canvas-keyboard-response","31","95902","0.0-6.0-4.3","562","","","","","clear_screen","null","null","","","catch","l","sw","sh","162","247","204","176","205","170","trueblood","null","null","null","null","null","null","null","null","null","null","null","","180","200","260","200","36000","52000","[1,2]","455.7790900346881","475.6792292930364","505.75747463802264"
"","canvas-keyboard-response","32","96720","0.0-6.0-5.3","562","","","","","make choice","811","1","","","catch","l","sw","sh","162","247","204","176","205","170","trueblood","null","null","null","null","null","null","null","null","null","null","null","","180","200","260","200","36000","52000","[1,2]","","",""
"","canvas-keyboard-response","33","96737","0.0-6.0-6.3","562","","","","","clear_screen","null","null","","","catch","l","sw","sh","162","247","204","176","205","170","trueblood","null","null","null","null","null","null","null","null","null","null","null","","180","200","260","200","36000","52000","[1,2]","","",""
"","canvas-keyboard-response","34","96939","0.0-6.0-0.4","562","","","","","pre trial waiting period","null","null","","","catch","sw","l","sh","180","200","186","256","218","195","spektor","null","null","null","null","null","null","null","null","null","null","null","","180","200","260","200","36000","52000","[2,3]","519.0825717622004","113.5416601927915","496.8141393834121"
"","canvas-keyboard-response","35","96958","0.0-6.0-1.4","562","","","","","clear_screen","null","null","","","catch","sw","l","sh","180","200","186","256","218","195","spektor","null","null","null","null","null","null","null","null","null","null","null","","180","200","260","200","36000","52000","[2,3]","519.0825717622004","113.5416601927915","496.8141393834121"
"","canvas-keyboard-response","36","97470","0.0-6.0-2.4","562","","","","","rectangles no change","null","null","","","catch","sw","l","sh","180","200","186","256","218","195","spektor","null","null","null","null","null","null","null","null","null","null","null","","180","200","260","200","36000","52000","[2,3]","519.0825717622004","113.5416601927915","496.8141393834121"
"","canvas-keyboard-response","37","98805","0.0-6.0-3.4","562","","","","","rectangles with change","null","null","","","catch","sw","l","sh","180","200","186","256","218","195","spektor","null","null","null","null","null","null","null","null","null","null","null","","180","200","260","200","36000","52000","[2,3]","519.0825717622004","113.5416601927915","496.8141393834121"
"","canvas-keyboard-response","38","98823","0.0-6.0-4.4","562","","","","","clear_screen","null","null","","","catch","sw","l","sh","180","200","186","256","218","195","spektor","null","null","null","null","null","null","null","null","null","null","null","","180","200","260","200","36000","52000","[2,3]","519.0825717622004","113.5416601927915","496.8141393834121"
"","canvas-keyboard-response","39","99711","0.0-6.0-5.4","562","","","","","make choice","883","2","","","catch","sw","l","sh","180","200","186","256","218","195","spektor","null","null","null","null","null","null","null","null","null","null","null","","180","200","260","200","36000","52000","[2,3]","","",""
"","canvas-keyboard-response","40","99730","0.0-6.0-6.4","562","","","","","clear_screen","null","null","","","catch","sw","l","sh","180","200","186","256","218","195","spektor","null","null","null","null","null","null","null","null","null","null","null","","180","200","260","200","36000","52000","[2,3]","","",""
"","canvas-keyboard-response","41","99932","0.0-6.0-0.5","562","","","","","pre trial waiting period","null","null","","","catch","sw","l","sh","180","200","296","189","221","181","trueblood","null","null","null","null","null","null","null","null","null","null","null","","180","200","260","200","36000","52000","[1,2]","487.83153307606483","487.9684670758404","501.5391240776545"
"","canvas-keyboard-response","42","99952","0.0-6.0-1.5","562","","","","","clear_screen","null","null","","","catch","sw","l","sh","180","200","296","189","221","181","trueblood","null","null","null","null","null","null","null","null","null","null","null","","180","200","260","200","36000","52000","[1,2]","487.83153307606483","487.9684670758404","501.5391240776545"
"","canvas-keyboard-response","43","100466","0.0-6.0-2.5","562","","","","","rectangles no change","null","null","","","catch","sw","l","sh","180","200","296","189","221","181","trueblood","null","null","null","null","null","null","null","null","null","null","null","","180","200","260","200","36000","52000","[1,2]","487.83153307606483","487.9684670758404","501.5391240776545"
"","canvas-keyboard-response","44","101801","0.0-6.0-3.5","562","","","","","rectangles with change","null","null","","","catch","sw","l","sh","180","200","296","189","221","181","trueblood","null","null","null","null","null","null","null","null","null","null","null","","180","200","260","200","36000","52000","[1,2]","487.83153307606483","487.9684670758404","501.5391240776545"
"","canvas-keyboard-response","45","101818","0.0-6.0-4.5","562","","","","","clear_screen","null","null","","","catch","sw","l","sh","180","200","296","189","221","181","trueblood","null","null","null","null","null","null","null","null","null","null","null","","180","200","260","200","36000","52000","[1,2]","487.83153307606483","487.9684670758404","501.5391240776545"
"","canvas-keyboard-response","46","102855","0.0-6.0-5.5","562","","","","","make choice","1031","2","","","catch","sw","l","sh","180","200","296","189","221","181","trueblood","null","null","null","null","null","null","null","null","null","null","null","","180","200","260","200","36000","52000","[1,2]","","",""
"","canvas-keyboard-response","47","102874","0.0-6.0-6.5","562","","","","","clear_screen","null","null","","","catch","sw","l","sh","180","200","296","189","221","181","trueblood","null","null","null","null","null","null","null","null","null","null","null","","180","200","260","200","36000","52000","[1,2]","","",""
"","canvas-keyboard-response","48","103074","0.0-6.0-0.6","562","","","","","pre trial waiting period","null","null","","","catch","sw","l","sh","180","200","283","180","236","214","spektor","null","null","null","null","null","null","null","null","null","null","null","","180","200","260","200","36000","52000","[1,2]","478.2645237288795","150.32551470569155","497.53479176070215"
"","canvas-keyboard-response","49","103092","0.0-6.0-1.6","562","","","","","clear_screen","null","null","","","catch","sw","l","sh","180","200","283","180","236","214","spektor","null","null","null","null","null","null","null","null","null","null","null","","180","200","260","200","36000","52000","[1,2]","478.2645237288795","150.32551470569155","497.53479176070215"
"","canvas-keyboard-response","50","103607","0.0-6.0-2.6","562","","","","","rectangles no change","null","null","","","catch","sw","l","sh","180","200","283","180","236","214","spektor","null","null","null","null","null","null","null","null","null","null","null","","180","200","260","200","36000","52000","[1,2]","478.2645237288795","150.32551470569155","497.53479176070215"
"","canvas-keyboard-response","51","104943","0.0-6.0-3.6","562","","","","","rectangles with change","null","null","","","catch","sw","l","sh","180","200","283","180","236","214","spektor","null","null","null","null","null","null","null","null","null","null","null","","180","200","260","200","36000","52000","[1,2]","478.2645237288795","150.32551470569155","497.53479176070215"
"","canvas-keyboard-response","52","104961","0.0-6.0-4.6","562","","","","","clear_screen","null","null","","","catch","sw","l","sh","180","200","283","180","236","214","spektor","null","null","null","null","null","null","null","null","null","null","null","","180","200","260","200","36000","52000","[1,2]","478.2645237288795","150.32551470569155","497.53479176070215"
"","canvas-keyboard-response","53","106160","0.0-6.0-5.6","562","","","","","make choice","1192","2","","","catch","sw","l","sh","180","200","283","180","236","214","spektor","null","null","null","null","null","null","null","null","null","null","null","","180","200","260","200","36000","52000","[1,2]","","",""
"","canvas-keyboard-response","54","106178","0.0-6.0-6.6","562","","","","","clear_screen","null","null","","","catch","sw","l","sh","180","200","283","180","236","214","spektor","null","null","null","null","null","null","null","null","null","null","null","","180","200","260","200","36000","52000","[1,2]","","",""
"","canvas-keyboard-response","55","106379","0.0-6.0-0.7","562","","","","","pre trial waiting period","null","null","","","catch","sw","sh","l","180","200","177","160","166","223","trueblood","null","null","null","null","null","null","null","null","null","null","null","","180","200","260","200","36000","52000","[1,3]","477.9258800282098","474.2928197063915","438.2909527636132"
"","canvas-keyboard-response","56","106398","0.0-6.0-1.7","562","","","","","clear_screen","null","null","","","catch","sw","sh","l","180","200","177","160","166","223","trueblood","null","null","null","null","null","null","null","null","null","null","null","","180","200","260","200","36000","52000","[1,3]","477.9258800282098","474.2928197063915","438.2909527636132"
"","canvas-keyboard-response","57","106907","0.0-6.0-2.7","562","","","","","rectangles no change","null","null","","","catch","sw","sh","l","180","200","177","160","166","223","trueblood","null","null","null","null","null","null","null","null","null","null","null","","180","200","260","200","36000","52000","[1,3]","477.9258800282098","474.2928197063915","438.2909527636132"
"","canvas-keyboard-response","58","108242","0.0-6.0-3.7","562","","","","","rectangles with change","null","null","","","catch","sw","sh","l","180","200","177","160","166","223","trueblood","null","null","null","null","null","null","null","null","null","null","null","","180","200","260","200","36000","52000","[1,3]","477.9258800282098","474.2928197063915","438.2909527636132"
"","canvas-keyboard-response","59","108259","0.0-6.0-4.7","562","","","","","clear_screen","null","null","","","catch","sw","sh","l","180","200","177","160","166","223","trueblood","null","null","null","null","null","null","null","null","null","null","null","","180","200","260","200","36000","52000","[1,3]","477.9258800282098","474.2928197063915","438.2909527636132"
"","canvas-keyboard-response","60","109464","0.0-6.0-5.7","562","","","","","make choice","1197","1","","","catch","sw","sh","l","180","200","177","160","166","223","trueblood","null","null","null","null","null","null","null","null","null","null","null","","180","200","260","200","36000","52000","[1,3]","","",""
"","canvas-keyboard-response","61","109481","0.0-6.0-6.7","562","","","","","clear_screen","null","null","","","catch","sw","sh","l","180","200","177","160","166","223","trueblood","null","null","null","null","null","null","null","null","null","null","null","","180","200","260","200","36000","52000","[1,3]","","",""
"","canvas-keyboard-response","62","109682","0.0-6.0-0.8","562","","","","","pre trial waiting period","null","null","","","critical","t","c","d","164","240","240","164","162.6685","237.1485","spektor","0.02","h","164","240","240","164","162.6685","237.1485","39360","39360","38576.5967","dc","null","null","null","null","null","null","[3,2]","498.73376670121223","173.04028490960778","497.0514323761569"
"","canvas-keyboard-response","63","109700","0.0-6.0-1.8","562","","","","","clear_screen","null","null","","","critical","t","c","d","164","240","240","164","162.6685","237.1485","spektor","0.02","h","164","240","240","164","162.6685","237.1485","39360","39360","38576.5967","dc","null","null","null","null","null","null","[3,2]","498.73376670121223","173.04028490960778","497.0514323761569"
"","canvas-keyboard-response","64","110211","0.0-6.0-2.8","562","","","","","rectangles no change","null","null","","","critical","t","c","d","164","240","240","164","162.6685","237.1485","spektor","0.02","h","164","240","240","164","162.6685","237.1485","39360","39360","38576.5967","dc","null","null","null","null","null","null","[3,2]","498.73376670121223","173.04028490960778","497.0514323761569"
"","canvas-keyboard-response","65","111545","0.0-6.0-3.8","562","","","","","rectangles with change","null","null","","","critical","t","c","d","164","240","240","164","162.6685","237.1485","spektor","0.02","h","164","240","240","164","162.6685","237.1485","39360","39360","38576.5967","dc","null","null","null","null","null","null","[3,2]","498.73376670121223","173.04028490960778","497.0514323761569"
"","canvas-keyboard-response","66","111563","0.0-6.0-4.8","562","","","","","clear_screen","null","null","","","critical","t","c","d","164","240","240","164","162.6685","237.1485","spektor","0.02","h","164","240","240","164","162.6685","237.1485","39360","39360","38576.5967","dc","null","null","null","null","null","null","[3,2]","498.73376670121223","173.04028490960778","497.0514323761569"
"","canvas-keyboard-response","67","113423","0.0-6.0-5.8","562","","","","","make choice","1849","2","","","critical","t","c","d","164","240","240","164","162.6685","237.1485","spektor","0.02","h","164","240","240","164","162.6685","237.1485","39360","39360","38576.5967","dc","null","null","null","null","null","null","[3,2]","","",""
"","canvas-keyboard-response","68","113441","0.0-6.0-6.8","562","","","","","clear_screen","null","null","","","critical","t","c","d","164","240","240","164","162.6685","237.1485","spektor","0.02","h","164","240","240","164","162.6685","237.1485","39360","39360","38576.5967","dc","null","null","null","null","null","null","[3,2]","","",""
"","canvas-keyboard-response","69","113643","0.0-6.0-0.9","562","","","","","pre trial waiting period","null","null","","","catch","l","sw","sh","250","177","153","185","174","192","trueblood","null","null","null","null","null","null","null","null","null","null","null","","180","200","260","200","36000","52000","[1,3]","492.5643255858452","468.64794609327686","469.9221470143197"
"","canvas-keyboard-response","70","113661","0.0-6.0-1.9","562","","","","","clear_screen","null","null","","","catch","l","sw","sh","250","177","153","185","174","192","trueblood","null","null","null","null","null","null","null","null","null","null","null","","180","200","260","200","36000","52000","[1,3]","492.5643255858452","468.64794609327686","469.9221470143197"
"","canvas-keyboard-response","71","114173","0.0-6.0-2.9","562","","","","","rectangles no change","null","null","","","catch","l","sw","sh","250","177","153","185","174","192","trueblood","null","null","null","null","null","null","null","null","null","null","null","","180","200","260","200","36000","52000","[1,3]","492.5643255858452","468.64794609327686","469.9221470143197"
"","canvas-keyboard-response","72","115507","0.0-6.0-3.9","562","","","","","rectangles with change","null","null","","","catch","l","sw","sh","250","177","153","185","174","192","trueblood","null","null","null","null","null","null","null","null","null","null","null","","180","200","260","200","36000","52000","[1,3]","492.5643255858452","468.64794609327686","469.9221470143197"
"","canvas-keyboard-response","73","115524","0.0-6.0-4.9","562","","","","","clear_screen","null","null","","","catch","l","sw","sh","250","177","153","185","174","192","trueblood","null","null","null","null","null","null","null","null","null","null","null","","180","200","260","200","36000","52000","[1,3]","492.5643255858452","468.64794609327686","469.9221470143197"
"","canvas-keyboard-response","74","116071","0.0-6.0-5.9","562","","","","","make choice","540","1","","","catch","l","sw","sh","250","177","153","185","174","192","trueblood","null","null","null","null","null","null","null","null","null","null","null","","180","200","260","200","36000","52000","[1,3]","","",""
"","canvas-keyboard-response","75","116089","0.0-6.0-6.9","562","","","","","clear_screen","null","null","","","catch","l","sw","sh","250","177","153","185","174","192","trueblood","null","null","null","null","null","null","null","null","null","null","null","","180","200","260","200","36000","52000","[1,3]","","",""
"","canvas-keyboard-response","76","116290","0.0-6.0-0.10","562","","","","","pre trial waiting period","null","null","","","catch","sh","l","sw","174","144","179","254","193","224","spektor","null","null","null","null","null","null","null","null","null","null","null","","180","200","260","200","36000","52000","[1,2]","532.681035312113","133.7762294838559","510.1213653119386"
"","canvas-keyboard-response","77","116310","0.0-6.0-1.10","562","","","","","clear_screen","null","null","","","catch","sh","l","sw","174","144","179","254","193","224","spektor","null","null","null","null","null","null","null","null","null","null","null","","180","200","260","200","36000","52000","[1,2]","532.681035312113","133.7762294838559","510.1213653119386"
"","canvas-keyboard-response","78","116823","0.0-6.0-2.10","562","","","","","rectangles no change","null","null","","","catch","sh","l","sw","174","144","179","254","193","224","spektor","null","null","null","null","null","null","null","null","null","null","null","","180","200","260","200","36000","52000","[1,2]","532.681035312113","133.7762294838559","510.1213653119386"
"","canvas-keyboard-response","79","118159","0.0-6.0-3.10","562","","","","","rectangles with change","null","null","","","catch","sh","l","sw","174","144","179","254","193","224","spektor","null","null","null","null","null","null","null","null","null","null","null","","180","200","260","200","36000","52000","[1,2]","532.681035312113","133.7762294838559","510.1213653119386"
"","canvas-keyboard-response","80","118176","0.0-6.0-4.10","562","","","","","clear_screen","null","null","","","catch","sh","l","sw","174","144","179","254","193","224","spektor","null","null","null","null","null","null","null","null","null","null","null","","180","200","260","200","36000","52000","[1,2]","532.681035312113","133.7762294838559","510.1213653119386"
"","canvas-keyboard-response","81","121448","0.0-6.0-5.10","562","","","","","make choice","3264","2","","","catch","sh","l","sw","174","144","179","254","193","224","spektor","null","null","null","null","null","null","null","null","null","null","null","","180","200","260","200","36000","52000","[1,2]","","",""
"","canvas-keyboard-response","82","121465","0.0-6.0-6.10","562","","","","","clear_screen","null","null","","","catch","sh","l","sw","174","144","179","254","193","224","spektor","null","null","null","null","null","null","null","null","null","null","null","","180","200","260","200","36000","52000","[1,2]","","",""
"","canvas-keyboard-response","83","121667","0.0-6.0-0.11","562","","","","","pre trial waiting period","null","null","","","critical","t","c","d","240","164","164","240","232.8713","160.6713","trueblood","0.05","w","240","164","164","240","232.8713","160.6713","39360","39360","37415.7294","td","null","null","null","null","null","null","[1,3]","483.7455441155031","466.71822908347167","487.0747160338967"
"","canvas-keyboard-response","84","121685","0.0-6.0-1.11","562","","","","","clear_screen","null","null","","","critical","t","c","d","240","164","164","240","232.8713","160.6713","trueblood","0.05","w","240","164","164","240","232.8713","160.6713","39360","39360","37415.7294","td","null","null","null","null","null","null","[1,3]","483.7455441155031","466.71822908347167","487.0747160338967"
"","canvas-keyboard-response","85","122195","0.0-6.0-2.11","562","","","","","rectangles no change","null","null","","","critical","t","c","d","240","164","164","240","232.8713","160.6713","trueblood","0.05","w","240","164","164","240","232.8713","160.6713","39360","39360","37415.7294","td","null","null","null","null","null","null","[1,3]","483.7455441155031","466.71822908347167","487.0747160338967"
"","canvas-keyboard-response","86","123529","0.0-6.0-3.11","562","","","","","rectangles with change","null","null","","","critical","t","c","d","240","164","164","240","232.8713","160.6713","trueblood","0.05","w","240","164","164","240","232.8713","160.6713","39360","39360","37415.7294","td","null","null","null","null","null","null","[1,3]","483.7455441155031","466.71822908347167","487.0747160338967"
"","canvas-keyboard-response","87","123546","0.0-6.0-4.11","562","","","","","clear_screen","null","null","","","critical","t","c","d","240","164","164","240","232.8713","160.6713","trueblood","0.05","w","240","164","164","240","232.8713","160.6713","39360","39360","37415.7294","td","null","null","null","null","null","null","[1,3]","483.7455441155031","466.71822908347167","487.0747160338967"
"","canvas-keyboard-response","88","124400","0.0-6.0-5.11","562","","","","","make choice","845","1","","","critical","t","c","d","240","164","164","240","232.8713","160.6713","trueblood","0.05","w","240","164","164","240","232.8713","160.6713","39360","39360","37415.7294","td","null","null","null","null","null","null","[1,3]","","",""
"","canvas-keyboard-response","89","124417","0.0-6.0-6.11","562","","","","","clear_screen","null","null","","","critical","t","c","d","240","164","164","240","232.8713","160.6713","trueblood","0.05","w","240","164","164","240","232.8713","160.6713","39360","39360","37415.7294","td","null","null","null","null","null","null","[1,3]","","",""
"","canvas-keyboard-response","90","124619","0.0-6.0-0.12","562","","","","","pre trial waiting period","null","null","","","critical","c","d","t","240","164","160.6713","232.8713","164","240","spektor","0.05","h","164","240","240","164","160.6713","232.8713","39360","39360","37415.7294","dc","null","null","null","null","null","null","[2,1]","497.8389027499954","99.93434226252933","462.1241133443001"
"","canvas-keyboard-response","91","124637","0.0-6.0-1.12","562","","","","","clear_screen","null","null","","","critical","c","d","t","240","164","160.6713","232.8713","164","240","spektor","0.05","h","164","240","240","164","160.6713","232.8713","39360","39360","37415.7294","dc","null","null","null","null","null","null","[2,1]","497.8389027499954","99.93434226252933","462.1241133443001"
"","canvas-keyboard-response","92","125152","0.0-6.0-2.12","562","","","","","rectangles no change","null","null","","","critical","c","d","t","240","164","160.6713","232.8713","164","240","spektor","0.05","h","164","240","240","164","160.6713","232.8713","39360","39360","37415.7294","dc","null","null","null","null","null","null","[2,1]","497.8389027499954","99.93434226252933","462.1241133443001"
"","canvas-keyboard-response","93","126488","0.0-6.0-3.12","562","","","","","rectangles with change","null","null","","","critical","c","d","t","240","164","160.6713","232.8713","164","240","spektor","0.05","h","164","240","240","164","160.6713","232.8713","39360","39360","37415.7294","dc","null","null","null","null","null","null","[2,1]","497.8389027499954","99.93434226252933","462.1241133443001"
"","canvas-keyboard-response","94","126505","0.0-6.0-4.12","562","","","","","clear_screen","null","null","","","critical","c","d","t","240","164","160.6713","232.8713","164","240","spektor","0.05","h","164","240","240","164","160.6713","232.8713","39360","39360","37415.7294","dc","null","null","null","null","null","null","[2,1]","497.8389027499954","99.93434226252933","462.1241133443001"
"","canvas-keyboard-response","95","126959","0.0-6.0-5.12","562","","","","","make choice","447","1","","","critical","c","d","t","240","164","160.6713","232.8713","164","240","spektor","0.05","h","164","240","240","164","160.6713","232.8713","39360","39360","37415.7294","dc","null","null","null","null","null","null","[2,1]","","",""
"","canvas-keyboard-response","96","126977","0.0-6.0-6.12","562","","","","","clear_screen","null","null","","","critical","c","d","t","240","164","160.6713","232.8713","164","240","spektor","0.05","h","164","240","240","164","160.6713","232.8713","39360","39360","37415.7294","dc","null","null","null","null","null","null","[2,1]","","",""
"","canvas-keyboard-response","97","127178","0.0-6.0-0.13","562","","","","","pre trial waiting period","null","null","","","catch","l","sh","sw","224","189","174","208","180","205","spektor","null","null","null","null","null","null","null","null","null","null","null","","180","200","260","200","36000","52000","[1,2]","488.99231269033754","153.95791204129623","475.82978818044194"
"","canvas-keyboard-response","98","127197","0.0-6.0-1.13","562","","","","","clear_screen","null","null","","","catch","l","sh","sw","224","189","174","208","180","205","spektor","null","null","null","null","null","null","null","null","null","null","null","","180","200","260","200","36000","52000","[1,2]","488.99231269033754","153.95791204129623","475.82978818044194"
"","canvas-keyboard-response","99","127708","0.0-6.0-2.13","562","","","","","rectangles no change","null","null","","","catch","l","sh","sw","224","189","174","208","180","205","spektor","null","null","null","null","null","null","null","null","null","null","null","","180","200","260","200","36000","52000","[1,2]","488.99231269033754","153.95791204129623","475.82978818044194"
"","canvas-keyboard-response","100","129045","0.0-6.0-3.13","562","","","","","rectangles with change","null","null","","","catch","l","sh","sw","224","189","174","208","180","205","spektor","null","null","null","null","null","null","null","null","null","null","null","","180","200","260","200","36000","52000","[1,2]","488.99231269033754","153.95791204129623","475.82978818044194"
"","canvas-keyboard-response","101","129063","0.0-6.0-4.13","562","","","","","clear_screen","null","null","","","catch","l","sh","sw","224","189","174","208","180","205","spektor","null","null","null","null","null","null","null","null","null","null","null","","180","200","260","200","36000","52000","[1,2]","488.99231269033754","153.95791204129623","475.82978818044194"
"","canvas-keyboard-response","102","129440","0.0-6.0-5.13","562","","","","","make choice","368","1","","","catch","l","sh","sw","224","189","174","208","180","205","spektor","null","null","null","null","null","null","null","null","null","null","null","","180","200","260","200","36000","52000","[1,2]","","",""
"","canvas-keyboard-response","103","129457","0.0-6.0-6.13","562","","","","","clear_screen","null","null","","","catch","l","sh","sw","224","189","174","208","180","205","spektor","null","null","null","null","null","null","null","null","null","null","null","","180","200","260","200","36000","52000","[1,2]","","",""
"","canvas-keyboard-response","104","129658","0.0-6.0-0.14","562","","","","","pre trial waiting period","null","null","","","critical","t","d","c","164","240","162.6685","237.1485","240","164","trueblood","0.02","h","164","240","240","164","162.6685","237.1485","39360","39360","38576.5967","tc","null","null","null","null","null","null","[1,3]","463.27811537970166","428.83060894025533","471.72658846253086"
"","canvas-keyboard-response","105","129677","0.0-6.0-1.14","562","","","","","clear_screen","null","null","","","critical","t","d","c","164","240","162.6685","237.1485","240","164","trueblood","0.02","h","164","240","240","164","162.6685","237.1485","39360","39360","38576.5967","tc","null","null","null","null","null","null","[1,3]","463.27811537970166","428.83060894025533","471.72658846253086"
"","canvas-keyboard-response","106","130191","0.0-6.0-2.14","562","","","","","rectangles no change","null","null","","","critical","t","d","c","164","240","162.6685","237.1485","240","164","trueblood","0.02","h","164","240","240","164","162.6685","237.1485","39360","39360","38576.5967","tc","null","null","null","null","null","null","[1,3]","463.27811537970166","428.83060894025533","471.72658846253086"
"","canvas-keyboard-response","107","131525","0.0-6.0-3.14","562","","","","","rectangles with change","null","null","","","critical","t","d","c","164","240","162.6685","237.1485","240","164","trueblood","0.02","h","164","240","240","164","162.6685","237.1485","39360","39360","38576.5967","tc","null","null","null","null","null","null","[1,3]","463.27811537970166","428.83060894025533","471.72658846253086"
"","canvas-keyboard-response","108","131542","0.0-6.0-4.14","562","","","","","clear_screen","null","null","","","critical","t","d","c","164","240","162.6685","237.1485","240","164","trueblood","0.02","h","164","240","240","164","162.6685","237.1485","39360","39360","38576.5967","tc","null","null","null","null","null","null","[1,3]","463.27811537970166","428.83060894025533","471.72658846253086"
"","canvas-keyboard-response","109","133040","0.0-6.0-5.14","562","","","","","make choice","1492","1","","","critical","t","d","c","164","240","162.6685","237.1485","240","164","trueblood","0.02","h","164","240","240","164","162.6685","237.1485","39360","39360","38576.5967","tc","null","null","null","null","null","null","[1,3]","","",""
"","canvas-keyboard-response","110","133057","0.0-6.0-6.14","562","","","","","clear_screen","null","null","","","critical","t","d","c","164","240","162.6685","237.1485","240","164","trueblood","0.02","h","164","240","240","164","162.6685","237.1485","39360","39360","38576.5967","tc","null","null","null","null","null","null","[1,3]","","",""
"","canvas-keyboard-response","111","133258","0.0-6.0-0.15","562","","","","","pre trial waiting period","null","null","","","critical","t","d","c","240","164","237.1485","162.6685","164","240","spektor","0.02","w","240","164","164","240","237.1485","162.6685","39360","39360","38576.5967","td","null","null","null","null","null","null","[1,2]","511.3199528765776","197.19329744334493","504.6938587580373"
"","canvas-keyboard-response","112","133277","0.0-6.0-1.15","562","","","","","clear_screen","null","null","","","critical","t","d","c","240","164","237.1485","162.6685","164","240","spektor","0.02","w","240","164","164","240","237.1485","162.6685","39360","39360","38576.5967","td","null","null","null","null","null","null","[1,2]","511.3199528765776","197.19329744334493","504.6938587580373"
"","canvas-keyboard-response","113","133790","0.0-6.0-2.15","562","","","","","rectangles no change","null","null","","","critical","t","d","c","240","164","237.1485","162.6685","164","240","spektor","0.02","w","240","164","164","240","237.1485","162.6685","39360","39360","38576.5967","td","null","null","null","null","null","null","[1,2]","511.3199528765776","197.19329744334493","504.6938587580373"
"","canvas-keyboard-response","114","135124","0.0-6.0-3.15","562","","","","","rectangles with change","null","null","","","critical","t","d","c","240","164","237.1485","162.6685","164","240","spektor","0.02","w","240","164","164","240","237.1485","162.6685","39360","39360","38576.5967","td","null","null","null","null","null","null","[1,2]","511.3199528765776","197.19329744334493","504.6938587580373"
"","canvas-keyboard-response","115","135147","0.0-6.0-4.15","562","","","","","clear_screen","null","null","","","critical","t","d","c","240","164","237.1485","162.6685","164","240","spektor","0.02","w","240","164","164","240","237.1485","162.6685","39360","39360","38576.5967","td","null","null","null","null","null","null","[1,2]","511.3199528765776","197.19329744334493","504.6938587580373"
"","canvas-keyboard-response","116","135576","0.0-6.0-5.15","562","","","","","make choice","421","1","","","critical","t","d","c","240","164","237.1485","162.6685","164","240","spektor","0.02","w","240","164","164","240","237.1485","162.6685","39360","39360","38576.5967","td","null","null","null","null","null","null","[1,2]","","",""
"","canvas-keyboard-response","117","135594","0.0-6.0-6.15","562","","","","","clear_screen","null","null","","","critical","t","d","c","240","164","237.1485","162.6685","164","240","spektor","0.02","w","240","164","164","240","237.1485","162.6685","39360","39360","38576.5967","td","null","null","null","null","null","null","[1,2]","","",""
"","canvas-keyboard-response","118","135796","0.0-6.0-0.16","562","","","","","pre trial waiting period","null","null","","","critical","d","c","t","237.1485","162.6685","164","240","240","164","spektor","0.02","w","240","164","164","240","237.1485","162.6685","39360","39360","38576.5967","dc","null","null","null","null","null","null","[1,2]","516.492402838729","152.20739467651518","526.3662270408913"
"","canvas-keyboard-response","119","135815","0.0-6.0-1.16","562","","","","","clear_screen","null","null","","","critical","d","c","t","237.1485","162.6685","164","240","240","164","spektor","0.02","w","240","164","164","240","237.1485","162.6685","39360","39360","38576.5967","dc","null","null","null","null","null","null","[1,2]","516.492402838729","152.20739467651518","526.3662270408913"
"","canvas-keyboard-response","120","136326","0.0-6.0-2.16","562","","","","","rectangles no change","null","null","","","critical","d","c","t","237.1485","162.6685","164","240","240","164","spektor","0.02","w","240","164","164","240","237.1485","162.6685","39360","39360","38576.5967","dc","null","null","null","null","null","null","[1,2]","516.492402838729","152.20739467651518","526.3662270408913"
"","canvas-keyboard-response","121","137661","0.0-6.0-3.16","562","","","","","rectangles with change","null","null","","","critical","d","c","t","237.1485","162.6685","164","240","240","164","spektor","0.02","w","240","164","164","240","237.1485","162.6685","39360","39360","38576.5967","dc","null","null","null","null","null","null","[1,2]","516.492402838729","152.20739467651518","526.3662270408913"
"","canvas-keyboard-response","122","137679","0.0-6.0-4.16","562","","","","","clear_screen","null","null","","","critical","d","c","t","237.1485","162.6685","164","240","240","164","spektor","0.02","w","240","164","164","240","237.1485","162.6685","39360","39360","38576.5967","dc","null","null","null","null","null","null","[1,2]","516.492402838729","152.20739467651518","526.3662270408913"
"","canvas-keyboard-response","123","137935","0.0-6.0-5.16","562","","","","","make choice","250","1","","","critical","d","c","t","237.1485","162.6685","164","240","240","164","spektor","0.02","w","240","164","164","240","237.1485","162.6685","39360","39360","38576.5967","dc","null","null","null","null","null","null","[1,2]","","",""
"","canvas-keyboard-response","124","137953","0.0-6.0-6.16","562","","","","","clear_screen","null","null","","","critical","d","c","t","237.1485","162.6685","164","240","240","164","spektor","0.02","w","240","164","164","240","237.1485","162.6685","39360","39360","38576.5967","dc","null","null","null","null","null","null","[1,2]","","",""
"","canvas-keyboard-response","125","138154","0.0-6.0-0.17","562","","","","","pre trial waiting period","null","null","","","critical","t","d","c","240","164","237.1485","162.6685","164","240","trueblood","0.02","w","240","164","164","240","237.1485","162.6685","39360","39360","38576.5967","td","null","null","null","null","null","null","[1,2]","507.82358004348873","490.04353368872125","430.45276215475656"
"","canvas-keyboard-response","126","138173","0.0-6.0-1.17","562","","","","","clear_screen","null","null","","","critical","t","d","c","240","164","237.1485","162.6685","164","240","trueblood","0.02","w","240","164","164","240","237.1485","162.6685","39360","39360","38576.5967","td","null","null","null","null","null","null","[1,2]","507.82358004348873","490.04353368872125","430.45276215475656"
"","canvas-keyboard-response","127","138683","0.0-6.0-2.17","562","","","","","rectangles no change","null","null","","","critical","t","d","c","240","164","237.1485","162.6685","164","240","trueblood","0.02","w","240","164","164","240","237.1485","162.6685","39360","39360","38576.5967","td","null","null","null","null","null","null","[1,2]","507.82358004348873","490.04353368872125","430.45276215475656"
"","canvas-keyboard-response","128","140018","0.0-6.0-3.17","562","","","","","rectangles with change","null","null","","","critical","t","d","c","240","164","237.1485","162.6685","164","240","trueblood","0.02","w","240","164","164","240","237.1485","162.6685","39360","39360","38576.5967","td","null","null","null","null","null","null","[1,2]","507.82358004348873","490.04353368872125","430.45276215475656"
"","canvas-keyboard-response","129","140039","0.0-6.0-4.17","562","","","","","clear_screen","null","null","","","critical","t","d","c","240","164","237.1485","162.6685","164","240","trueblood","0.02","w","240","164","164","240","237.1485","162.6685","39360","39360","38576.5967","td","null","null","null","null","null","null","[1,2]","507.82358004348873","490.04353368872125","430.45276215475656"
"","canvas-keyboard-response","130","140328","0.0-6.0-5.17","562","","","","","make choice","279","1","","","critical","t","d","c","240","164","237.1485","162.6685","164","240","trueblood","0.02","w","240","164","164","240","237.1485","162.6685","39360","39360","38576.5967","td","null","null","null","null","null","null","[1,2]","","",""
"","canvas-keyboard-response","131","140347","0.0-6.0-6.17","562","","","","","clear_screen","null","null","","","critical","t","d","c","240","164","237.1485","162.6685","164","240","trueblood","0.02","w","240","164","164","240","237.1485","162.6685","39360","39360","38576.5967","td","null","null","null","null","null","null","[1,2]","","",""
"","canvas-keyboard-response","132","140550","0.0-6.0-0.18","562","","","","","pre trial waiting period","null","null","","","critical","c","t","d","240","164","164","240","154.6796","220.0396","trueblood","0.14","h","164","240","240","164","154.6796","220.0396","39360","39360","34035.6388","dc","null","null","null","null","null","null","[3,1]","483.7050930776177","423.2525402382174","435.5140256079798"
"","canvas-keyboard-response","133","140571","0.0-6.0-1.18","562","","","","","clear_screen","null","null","","","critical","c","t","d","240","164","164","240","154.6796","220.0396","trueblood","0.14","h","164","240","240","164","154.6796","220.0396","39360","39360","34035.6388","dc","null","null","null","null","null","null","[3,1]","483.7050930776177","423.2525402382174","435.5140256079798"
"","canvas-keyboard-response","134","141080","0.0-6.0-2.18","562","","","","","rectangles no change","null","null","","","critical","c","t","d","240","164","164","240","154.6796","220.0396","trueblood","0.14","h","164","240","240","164","154.6796","220.0396","39360","39360","34035.6388","dc","null","null","null","null","null","null","[3,1]","483.7050930776177","423.2525402382174","435.5140256079798"
"","canvas-keyboard-response","135","142417","0.0-6.0-3.18","562","","","","","rectangles with change","null","null","","","critical","c","t","d","240","164","164","240","154.6796","220.0396","trueblood","0.14","h","164","240","240","164","154.6796","220.0396","39360","39360","34035.6388","dc","null","null","null","null","null","null","[3,1]","483.7050930776177","423.2525402382174","435.5140256079798"
"","canvas-keyboard-response","136","142435","0.0-6.0-4.18","562","","","","","clear_screen","null","null","","","critical","c","t","d","240","164","164","240","154.6796","220.0396","trueblood","0.14","h","164","240","240","164","154.6796","220.0396","39360","39360","34035.6388","dc","null","null","null","null","null","null","[3,1]","483.7050930776177","423.2525402382174","435.5140256079798"
"","canvas-keyboard-response","137","142680","0.0-6.0-5.18","562","","","","","make choice","238","1","","","critical","c","t","d","240","164","164","240","154.6796","220.0396","trueblood","0.14","h","164","240","240","164","154.6796","220.0396","39360","39360","34035.6388","dc","null","null","null","null","null","null","[3,1]","","",""
"","canvas-keyboard-response","138","142698","0.0-6.0-6.18","562","","","","","clear_screen","null","null","","","critical","c","t","d","240","164","164","240","154.6796","220.0396","trueblood","0.14","h","164","240","240","164","154.6796","220.0396","39360","39360","34035.6388","dc","null","null","null","null","null","null","[3,1]","","",""
"","canvas-keyboard-response","139","142902","0.0-6.0-0.19","562","","","","","pre trial waiting period","null","null","","","critical","d","t","c","220.0396","154.6796","240","164","164","240","spektor","0.14","w","240","164","164","240","220.0396","154.6796","39360","39360","34035.6388","tc","null","null","null","null","null","null","[2,3]","541.7440411500061","200.78237528174853","489.53307912995535"
"","canvas-keyboard-response","140","142922","0.0-6.0-1.19","562","","","","","clear_screen","null","null","","","critical","d","t","c","220.0396","154.6796","240","164","164","240","spektor","0.14","w","240","164","164","240","220.0396","154.6796","39360","39360","34035.6388","tc","null","null","null","null","null","null","[2,3]","541.7440411500061","200.78237528174853","489.53307912995535"
"","canvas-keyboard-response","141","143433","0.0-6.0-2.19","562","","","","","rectangles no change","null","null","","","critical","d","t","c","220.0396","154.6796","240","164","164","240","spektor","0.14","w","240","164","164","240","220.0396","154.6796","39360","39360","34035.6388","tc","null","null","null","null","null","null","[2,3]","541.7440411500061","200.78237528174853","489.53307912995535"
"","canvas-keyboard-response","142","144769","0.0-6.0-3.19","562","","","","","rectangles with change","null","null","","","critical","d","t","c","220.0396","154.6796","240","164","164","240","spektor","0.14","w","240","164","164","240","220.0396","154.6796","39360","39360","34035.6388","tc","null","null","null","null","null","null","[2,3]","541.7440411500061","200.78237528174853","489.53307912995535"
"","canvas-keyboard-response","143","144786","0.0-6.0-4.19","562","","","","","clear_screen","null","null","","","critical","d","t","c","220.0396","154.6796","240","164","164","240","spektor","0.14","w","240","164","164","240","220.0396","154.6796","39360","39360","34035.6388","tc","null","null","null","null","null","null","[2,3]","541.7440411500061","200.78237528174853","489.53307912995535"
"","canvas-keyboard-response","144","145609","0.0-6.0-5.19","562","","","","","make choice","814","3","","","critical","d","t","c","220.0396","154.6796","240","164","164","240","spektor","0.14","w","240","164","164","240","220.0396","154.6796","39360","39360","34035.6388","tc","null","null","null","null","null","null","[2,3]","","",""
"","canvas-keyboard-response","145","145626","0.0-6.0-6.19","562","","","","","clear_screen","null","null","","","critical","d","t","c","220.0396","154.6796","240","164","164","240","spektor","0.14","w","240","164","164","240","220.0396","154.6796","39360","39360","34035.6388","tc","null","null","null","null","null","null","[2,3]","","",""
"","canvas-keyboard-response","146","145827","0.0-6.0-0.20","562","","","","","pre trial waiting period","null","null","","","critical","t","d","c","164","240","160.6713","232.8713","240","164","trueblood","0.05","h","164","240","240","164","160.6713","232.8713","39360","39360","37415.7294","tc","null","null","null","null","null","null","[1,3]","444.35718913891986","469.9708356555978","480.8814224611753"
"","canvas-keyboard-response","147","145846","0.0-6.0-1.20","562","","","","","clear_screen","null","null","","","critical","t","d","c","164","240","160.6713","232.8713","240","164","trueblood","0.05","h","164","240","240","164","160.6713","232.8713","39360","39360","37415.7294","tc","null","null","null","null","null","null","[1,3]","444.35718913891986","469.9708356555978","480.8814224611753"
"","canvas-keyboard-response","148","146358","0.0-6.0-2.20","562","","","","","rectangles no change","null","null","","","critical","t","d","c","164","240","160.6713","232.8713","240","164","trueblood","0.05","h","164","240","240","164","160.6713","232.8713","39360","39360","37415.7294","tc","null","null","null","null","null","null","[1,3]","444.35718913891986","469.9708356555978","480.8814224611753"
"","canvas-keyboard-response","149","147693","0.0-6.0-3.20","562","","","","","rectangles with change","null","null","","","critical","t","d","c","164","240","160.6713","232.8713","240","164","trueblood","0.05","h","164","240","240","164","160.6713","232.8713","39360","39360","37415.7294","tc","null","null","null","null","null","null","[1,3]","444.35718913891986","469.9708356555978","480.8814224611753"
"","canvas-keyboard-response","150","147711","0.0-6.0-4.20","562","","","","","clear_screen","null","null","","","critical","t","d","c","164","240","160.6713","232.8713","240","164","trueblood","0.05","h","164","240","240","164","160.6713","232.8713","39360","39360","37415.7294","tc","null","null","null","null","null","null","[1,3]","444.35718913891986","469.9708356555978","480.8814224611753"
"","canvas-keyboard-response","151","148552","0.0-6.0-5.20","562","","","","","make choice","831","1","","","critical","t","d","c","164","240","160.6713","232.8713","240","164","trueblood","0.05","h","164","240","240","164","160.6713","232.8713","39360","39360","37415.7294","tc","null","null","null","null","null","null","[1,3]","","",""
"","canvas-keyboard-response","152","148570","0.0-6.0-6.20","562","","","","","clear_screen","null","null","","","critical","t","d","c","164","240","160.6713","232.8713","240","164","trueblood","0.05","h","164","240","240","164","160.6713","232.8713","39360","39360","37415.7294","tc","null","null","null","null","null","null","[1,3]","","",""
"","canvas-keyboard-response","153","148774","0.0-6.0-0.21","562","","","","","pre trial waiting period","null","null","","","critical","d","c","t","154.6796","220.0396","240","164","164","240","spektor","0.14","h","164","240","240","164","154.6796","220.0396","39360","39360","34035.6388","td","null","null","null","null","null","null","[3,1]","470.7442744512638","194.93102742926092","487.56971228196045"
"","canvas-keyboard-response","154","148798","0.0-6.0-1.21","562","","","","","clear_screen","null","null","","","critical","d","c","t","154.6796","220.0396","240","164","164","240","spektor","0.14","h","164","240","240","164","154.6796","220.0396","39360","39360","34035.6388","td","null","null","null","null","null","null","[3,1]","470.7442744512638","194.93102742926092","487.56971228196045"
"","canvas-keyboard-response","155","149308","0.0-6.0-2.21","562","","","","","rectangles no change","null","null","","","critical","d","c","t","154.6796","220.0396","240","164","164","240","spektor","0.14","h","164","240","240","164","154.6796","220.0396","39360","39360","34035.6388","td","null","null","null","null","null","null","[3,1]","470.7442744512638","194.93102742926092","487.56971228196045"
"","canvas-keyboard-response","156","150643","0.0-6.0-3.21","562","","","","","rectangles with change","null","null","","","critical","d","c","t","154.6796","220.0396","240","164","164","240","spektor","0.14","h","164","240","240","164","154.6796","220.0396","39360","39360","34035.6388","td","null","null","null","null","null","null","[3,1]","470.7442744512638","194.93102742926092","487.56971228196045"
"","canvas-keyboard-response","157","150661","0.0-6.0-4.21","562","","","","","clear_screen","null","null","","","critical","d","c","t","154.6796","220.0396","240","164","164","240","spektor","0.14","h","164","240","240","164","154.6796","220.0396","39360","39360","34035.6388","td","null","null","null","null","null","null","[3,1]","470.7442744512638","194.93102742926092","487.56971228196045"
"","canvas-keyboard-response","158","151159","0.0-6.0-5.21","562","","","","","make choice","491","3","","","critical","d","c","t","154.6796","220.0396","240","164","164","240","spektor","0.14","h","164","240","240","164","154.6796","220.0396","39360","39360","34035.6388","td","null","null","null","null","null","null","[3,1]","","",""
"","canvas-keyboard-response","159","151178","0.0-6.0-6.21","562","","","","","clear_screen","null","null","","","critical","d","c","t","154.6796","220.0396","240","164","164","240","spektor","0.14","h","164","240","240","164","154.6796","220.0396","39360","39360","34035.6388","td","null","null","null","null","null","null","[3,1]","","",""
"","canvas-keyboard-response","160","151380","0.0-6.0-0.22","562","","","","","pre trial waiting period","null","null","","","critical","t","d","c","164","240","158.0083","227.1683","240","164","spektor","0.09","h","164","240","240","164","158.0083","227.1683","39360","39360","35894.4834","tc","null","null","null","null","null","null","[1,3]","458.9186488936785","120.58776203356567","532.7344218890655"
"","canvas-keyboard-response","161","151399","0.0-6.0-1.22","562","","","","","clear_screen","null","null","","","critical","t","d","c","164","240","158.0083","227.1683","240","164","spektor","0.09","h","164","240","240","164","158.0083","227.1683","39360","39360","35894.4834","tc","null","null","null","null","null","null","[1,3]","458.9186488936785","120.58776203356567","532.7344218890655"
"","canvas-keyboard-response","162","151909","0.0-6.0-2.22","562","","","","","rectangles no change","null","null","","","critical","t","d","c","164","240","158.0083","227.1683","240","164","spektor","0.09","h","164","240","240","164","158.0083","227.1683","39360","39360","35894.4834","tc","null","null","null","null","null","null","[1,3]","458.9186488936785","120.58776203356567","532.7344218890655"
"","canvas-keyboard-response","163","153245","0.0-6.0-3.22","562","","","","","rectangles with change","null","null","","","critical","t","d","c","164","240","158.0083","227.1683","240","164","spektor","0.09","h","164","240","240","164","158.0083","227.1683","39360","39360","35894.4834","tc","null","null","null","null","null","null","[1,3]","458.9186488936785","120.58776203356567","532.7344218890655"
"","canvas-keyboard-response","164","153263","0.0-6.0-4.22","562","","","","","clear_screen","null","null","","","critical","t","d","c","164","240","158.0083","227.1683","240","164","spektor","0.09","h","164","240","240","164","158.0083","227.1683","39360","39360","35894.4834","tc","null","null","null","null","null","null","[1,3]","458.9186488936785","120.58776203356567","532.7344218890655"
"","canvas-keyboard-response","165","154008","0.0-6.0-5.22","562","","","","","make choice","736","3","","","critical","t","d","c","164","240","158.0083","227.1683","240","164","spektor","0.09","h","164","240","240","164","158.0083","227.1683","39360","39360","35894.4834","tc","null","null","null","null","null","null","[1,3]","","",""
"","canvas-keyboard-response","166","154025","0.0-6.0-6.22","562","","","","","clear_screen","null","null","","","critical","t","d","c","164","240","158.0083","227.1683","240","164","spektor","0.09","h","164","240","240","164","158.0083","227.1683","39360","39360","35894.4834","tc","null","null","null","null","null","null","[1,3]","","",""
"","canvas-keyboard-response","167","154227","0.0-6.0-0.23","562","","","","","pre trial waiting period","null","null","","","critical","c","t","d","240","164","164","240","158.0083","227.1683","trueblood","0.09","h","164","240","240","164","158.0083","227.1683","39360","39360","35894.4834","td","null","null","null","null","null","null","[2,3]","489.4806826042781","434.8448263461731","439.3138970514308"
"","canvas-keyboard-response","168","154246","0.0-6.0-1.23","562","","","","","clear_screen","null","null","","","critical","c","t","d","240","164","164","240","158.0083","227.1683","trueblood","0.09","h","164","240","240","164","158.0083","227.1683","39360","39360","35894.4834","td","null","null","null","null","null","null","[2,3]","489.4806826042781","434.8448263461731","439.3138970514308"
"","canvas-keyboard-response","169","154757","0.0-6.0-2.23","562","","","","","rectangles no change","null","null","","","critical","c","t","d","240","164","164","240","158.0083","227.1683","trueblood","0.09","h","164","240","240","164","158.0083","227.1683","39360","39360","35894.4834","td","null","null","null","null","null","null","[2,3]","489.4806826042781","434.8448263461731","439.3138970514308"
"","canvas-keyboard-response","170","156091","0.0-6.0-3.23","562","","","","","rectangles with change","null","null","","","critical","c","t","d","240","164","164","240","158.0083","227.1683","trueblood","0.09","h","164","240","240","164","158.0083","227.1683","39360","39360","35894.4834","td","null","null","null","null","null","null","[2,3]","489.4806826042781","434.8448263461731","439.3138970514308"
"","canvas-keyboard-response","171","156108","0.0-6.0-4.23","562","","","","","clear_screen","null","null","","","critical","c","t","d","240","164","164","240","158.0083","227.1683","trueblood","0.09","h","164","240","240","164","158.0083","227.1683","39360","39360","35894.4834","td","null","null","null","null","null","null","[2,3]","489.4806826042781","434.8448263461731","439.3138970514308"
"","canvas-keyboard-response","172","156640","0.0-6.0-5.23","562","","","","","make choice","522","2","","","critical","c","t","d","240","164","164","240","158.0083","227.1683","trueblood","0.09","h","164","240","240","164","158.0083","227.1683","39360","39360","35894.4834","td","null","null","null","null","null","null","[2,3]","","",""
"","canvas-keyboard-response","173","156657","0.0-6.0-6.23","562","","","","","clear_screen","null","null","","","critical","c","t","d","240","164","164","240","158.0083","227.1683","trueblood","0.09","h","164","240","240","164","158.0083","227.1683","39360","39360","35894.4834","td","null","null","null","null","null","null","[2,3]","","",""
"","canvas-keyboard-response","174","156858","0.0-6.0-0.24","562","","","","","pre trial waiting period","null","null","","","critical","c","d","t","164","240","232.8713","160.6713","240","164","spektor","0.05","w","240","164","164","240","232.8713","160.6713","39360","39360","37415.7294","dc","null","null","null","null","null","null","[2,1]","492.6214822242918","191.28071256364336","514.2691624956803"
"","canvas-keyboard-response","175","156877","0.0-6.0-1.24","562","","","","","clear_screen","null","null","","","critical","c","d","t","164","240","232.8713","160.6713","240","164","spektor","0.05","w","240","164","164","240","232.8713","160.6713","39360","39360","37415.7294","dc","null","null","null","null","null","null","[2,1]","492.6214822242918","191.28071256364336","514.2691624956803"
"","canvas-keyboard-response","176","157390","0.0-6.0-2.24","562","","","","","rectangles no change","null","null","","","critical","c","d","t","164","240","232.8713","160.6713","240","164","spektor","0.05","w","240","164","164","240","232.8713","160.6713","39360","39360","37415.7294","dc","null","null","null","null","null","null","[2,1]","492.6214822242918","191.28071256364336","514.2691624956803"
"","canvas-keyboard-response","177","158726","0.0-6.0-3.24","562","","","","","rectangles with change","null","null","","","critical","c","d","t","164","240","232.8713","160.6713","240","164","spektor","0.05","w","240","164","164","240","232.8713","160.6713","39360","39360","37415.7294","dc","null","null","null","null","null","null","[2,1]","492.6214822242918","191.28071256364336","514.2691624956803"
"","canvas-keyboard-response","178","158744","0.0-6.0-4.24","562","","","","","clear_screen","null","null","","","critical","c","d","t","164","240","232.8713","160.6713","240","164","spektor","0.05","w","240","164","164","240","232.8713","160.6713","39360","39360","37415.7294","dc","null","null","null","null","null","null","[2,1]","492.6214822242918","191.28071256364336","514.2691624956803"
"","canvas-keyboard-response","179","159032","0.0-6.0-5.24","562","","","","","make choice","280","1","","","critical","c","d","t","164","240","232.8713","160.6713","240","164","spektor","0.05","w","240","164","164","240","232.8713","160.6713","39360","39360","37415.7294","dc","null","null","null","null","null","null","[2,1]","","",""
"","canvas-keyboard-response","180","159049","0.0-6.0-6.24","562","","","","","clear_screen","null","null","","","critical","c","d","t","164","240","232.8713","160.6713","240","164","spektor","0.05","w","240","164","164","240","232.8713","160.6713","39360","39360","37415.7294","dc","null","null","null","null","null","null","[2,1]","","",""
"","canvas-keyboard-response","181","159250","0.0-6.0-0.25","562","","","","","pre trial waiting period","null","null","","","critical","c","t","d","164","240","240","164","240","164","trueblood","0","w","240","164","164","240","240","164","39360","39360","39360","dc","null","null","null","null","null","null","[3,1]","464.7995976007457","499.26227232999895","484.7871011905073"
"","canvas-keyboard-response","182","159269","0.0-6.0-1.25","562","","","","","clear_screen","null","null","","","critical","c","t","d","164","240","240","164","240","164","trueblood","0","w","240","164","164","240","240","164","39360","39360","39360","dc","null","null","null","null","null","null","[3,1]","464.7995976007457","499.26227232999895","484.7871011905073"
"","canvas-keyboard-response","183","159779","0.0-6.0-2.25","562","","","","","rectangles no change","null","null","","","critical","c","t","d","164","240","240","164","240","164","trueblood","0","w","240","164","164","240","240","164","39360","39360","39360","dc","null","null","null","null","null","null","[3,1]","464.7995976007457","499.26227232999895","484.7871011905073"
"","canvas-keyboard-response","184","161113","0.0-6.0-3.25","562","","","","","rectangles with change","null","null","","","critical","c","t","d","164","240","240","164","240","164","trueblood","0","w","240","164","164","240","240","164","39360","39360","39360","dc","null","null","null","null","null","null","[3,1]","464.7995976007457","499.26227232999895","484.7871011905073"
"","canvas-keyboard-response","185","161131","0.0-6.0-4.25","562","","","","","clear_screen","null","null","","","critical","c","t","d","164","240","240","164","240","164","trueblood","0","w","240","164","164","240","240","164","39360","39360","39360","dc","null","null","null","null","null","null","[3,1]","464.7995976007457","499.26227232999895","484.7871011905073"
"","canvas-keyboard-response","186","161440","0.0-6.0-5.25","562","","","","","make choice","301","1","","","critical","c","t","d","164","240","240","164","240","164","trueblood","0","w","240","164","164","240","240","164","39360","39360","39360","dc","null","null","null","null","null","null","[3,1]","","",""
"","canvas-keyboard-response","187","161457","0.0-6.0-6.25","562","","","","","clear_screen","null","null","","","critical","c","t","d","164","240","240","164","240","164","trueblood","0","w","240","164","164","240","240","164","39360","39360","39360","dc","null","null","null","null","null","null","[3,1]","","",""
"","canvas-keyboard-response","188","161658","0.0-6.0-0.26","562","","","","","pre trial waiting period","null","null","","","critical","c","d","t","164","240","240","164","240","164","spektor","0","w","240","164","164","240","240","164","39360","39360","39360","dc","null","null","null","null","null","null","[2,1]","475.9661483572139","166.46634269699769","516.0665514417262"
"","canvas-keyboard-response","189","161676","0.0-6.0-1.26","562","","","","","clear_screen","null","null","","","critical","c","d","t","164","240","240","164","240","164","spektor","0","w","240","164","164","240","240","164","39360","39360","39360","dc","null","null","null","null","null","null","[2,1]","475.9661483572139","166.46634269699769","516.0665514417262"
"","canvas-keyboard-response","190","162195","0.0-6.0-2.26","562","","","","","rectangles no change","null","null","","","critical","c","d","t","164","240","240","164","240","164","spektor","0","w","240","164","164","240","240","164","39360","39360","39360","dc","null","null","null","null","null","null","[2,1]","475.9661483572139","166.46634269699769","516.0665514417262"
"","canvas-keyboard-response","191","163530","0.0-6.0-3.26","562","","","","","rectangles with change","null","null","","","critical","c","d","t","164","240","240","164","240","164","spektor","0","w","240","164","164","240","240","164","39360","39360","39360","dc","null","null","null","null","null","null","[2,1]","475.9661483572139","166.46634269699769","516.0665514417262"
"","canvas-keyboard-response","192","163548","0.0-6.0-4.26","562","","","","","clear_screen","null","null","","","critical","c","d","t","164","240","240","164","240","164","spektor","0","w","240","164","164","240","240","164","39360","39360","39360","dc","null","null","null","null","null","null","[2,1]","475.9661483572139","166.46634269699769","516.0665514417262"
"","canvas-keyboard-response","193","164504","0.0-6.0-5.26","562","","","","","make choice","949","1","","","critical","c","d","t","164","240","240","164","240","164","spektor","0","w","240","164","164","240","240","164","39360","39360","39360","dc","null","null","null","null","null","null","[2,1]","","",""
"","canvas-keyboard-response","194","164522","0.0-6.0-6.26","562","","","","","clear_screen","null","null","","","critical","c","d","t","164","240","240","164","240","164","spektor","0","w","240","164","164","240","240","164","39360","39360","39360","dc","null","null","null","null","null","null","[2,1]","","",""
"","canvas-keyboard-response","195","164723","0.0-6.0-0.27","562","","","","","pre trial waiting period","null","null","","","critical","d","c","t","227.1683","158.0083","164","240","240","164","spektor","0.09","w","240","164","164","240","227.1683","158.0083","39360","39360","35894.4834","td","null","null","null","null","null","null","[3,1]","538.9047671210182","113.46324019953025","515.6083983978988"
"","canvas-keyboard-response","196","164741","0.0-6.0-1.27","562","","","","","clear_screen","null","null","","","critical","d","c","t","227.1683","158.0083","164","240","240","164","spektor","0.09","w","240","164","164","240","227.1683","158.0083","39360","39360","35894.4834","td","null","null","null","null","null","null","[3,1]","538.9047671210182","113.46324019953025","515.6083983978988"
"","canvas-keyboard-response","197","165252","0.0-6.0-2.27","562","","","","","rectangles no change","null","null","","","critical","d","c","t","227.1683","158.0083","164","240","240","164","spektor","0.09","w","240","164","164","240","227.1683","158.0083","39360","39360","35894.4834","td","null","null","null","null","null","null","[3,1]","538.9047671210182","113.46324019953025","515.6083983978988"
"","canvas-keyboard-response","198","166588","0.0-6.0-3.27","562","","","","","rectangles with change","null","null","","","critical","d","c","t","227.1683","158.0083","164","240","240","164","spektor","0.09","w","240","164","164","240","227.1683","158.0083","39360","39360","35894.4834","td","null","null","null","null","null","null","[3,1]","538.9047671210182","113.46324019953025","515.6083983978988"
"","canvas-keyboard-response","199","166606","0.0-6.0-4.27","562","","","","","clear_screen","null","null","","","critical","d","c","t","227.1683","158.0083","164","240","240","164","spektor","0.09","w","240","164","164","240","227.1683","158.0083","39360","39360","35894.4834","td","null","null","null","null","null","null","[3,1]","538.9047671210182","113.46324019953025","515.6083983978988"
"","canvas-keyboard-response","200","166960","0.0-6.0-5.27","562","","","","","make choice","345","3","","","critical","d","c","t","227.1683","158.0083","164","240","240","164","spektor","0.09","w","240","164","164","240","227.1683","158.0083","39360","39360","35894.4834","td","null","null","null","null","null","null","[3,1]","","",""
"","canvas-keyboard-response","201","166977","0.0-6.0-6.27","562","","","","","clear_screen","null","null","","","critical","d","c","t","227.1683","158.0083","164","240","240","164","spektor","0.09","w","240","164","164","240","227.1683","158.0083","39360","39360","35894.4834","td","null","null","null","null","null","null","[3,1]","","",""
"","canvas-keyboard-response","202","167178","0.0-6.0-0.28","562","","","","","pre trial waiting period","null","null","","","critical","c","d","t","240","164","164","240","164","240","spektor","0","h","164","240","240","164","164","240","39360","39360","39360","dc","null","null","null","null","null","null","[2,1]","506.42152931186297","101.40137384484878","482.92425084806166"
"","canvas-keyboard-response","203","167197","0.0-6.0-1.28","562","","","","","clear_screen","null","null","","","critical","c","d","t","240","164","164","240","164","240","spektor","0","h","164","240","240","164","164","240","39360","39360","39360","dc","null","null","null","null","null","null","[2,1]","506.42152931186297","101.40137384484878","482.92425084806166"
"","canvas-keyboard-response","204","167709","0.0-6.0-2.28","562","","","","","rectangles no change","null","null","","","critical","c","d","t","240","164","164","240","164","240","spektor","0","h","164","240","240","164","164","240","39360","39360","39360","dc","null","null","null","null","null","null","[2,1]","506.42152931186297","101.40137384484878","482.92425084806166"
"","canvas-keyboard-response","205","169045","0.0-6.0-3.28","562","","","","","rectangles with change","null","null","","","critical","c","d","t","240","164","164","240","164","240","spektor","0","h","164","240","240","164","164","240","39360","39360","39360","dc","null","null","null","null","null","null","[2,1]","506.42152931186297","101.40137384484878","482.92425084806166"
"","canvas-keyboard-response","206","169062","0.0-6.0-4.28","562","","","","","clear_screen","null","null","","","critical","c","d","t","240","164","164","240","164","240","spektor","0","h","164","240","240","164","164","240","39360","39360","39360","dc","null","null","null","null","null","null","[2,1]","506.42152931186297","101.40137384484878","482.92425084806166"
"","canvas-keyboard-response","207","169599","0.0-6.0-5.28","562","","","","","make choice","529","1","","","critical","c","d","t","240","164","164","240","164","240","spektor","0","h","164","240","240","164","164","240","39360","39360","39360","dc","null","null","null","null","null","null","[2,1]","","",""
"","canvas-keyboard-response","208","169617","0.0-6.0-6.28","562","","","","","clear_screen","null","null","","","critical","c","d","t","240","164","164","240","164","240","spektor","0","h","164","240","240","164","164","240","39360","39360","39360","dc","null","null","null","null","null","null","[2,1]","","",""
"","canvas-keyboard-response","209","169818","0.0-6.0-0.29","562","","","","","pre trial waiting period","null","null","","","critical","c","t","d","240","164","164","240","162.6685","237.1485","trueblood","0.02","h","164","240","240","164","162.6685","237.1485","39360","39360","38576.5967","td","null","null","null","null","null","null","[2,3]","480.88582686001524","440.4114850118137","461.429458581137"
"","canvas-keyboard-response","210","169836","0.0-6.0-1.29","562","","","","","clear_screen","null","null","","","critical","c","t","d","240","164","164","240","162.6685","237.1485","trueblood","0.02","h","164","240","240","164","162.6685","237.1485","39360","39360","38576.5967","td","null","null","null","null","null","null","[2,3]","480.88582686001524","440.4114850118137","461.429458581137"
"","canvas-keyboard-response","211","170346","0.0-6.0-2.29","562","","","","","rectangles no change","null","null","","","critical","c","t","d","240","164","164","240","162.6685","237.1485","trueblood","0.02","h","164","240","240","164","162.6685","237.1485","39360","39360","38576.5967","td","null","null","null","null","null","null","[2,3]","480.88582686001524","440.4114850118137","461.429458581137"
"","canvas-keyboard-response","212","171680","0.0-6.0-3.29","562","","","","","rectangles with change","null","null","","","critical","c","t","d","240","164","164","240","162.6685","237.1485","trueblood","0.02","h","164","240","240","164","162.6685","237.1485","39360","39360","38576.5967","td","null","null","null","null","null","null","[2,3]","480.88582686001524","440.4114850118137","461.429458581137"
"","canvas-keyboard-response","213","171698","0.0-6.0-4.29","562","","","","","clear_screen","null","null","","","critical","c","t","d","240","164","164","240","162.6685","237.1485","trueblood","0.02","h","164","240","240","164","162.6685","237.1485","39360","39360","38576.5967","td","null","null","null","null","null","null","[2,3]","480.88582686001524","440.4114850118137","461.429458581137"
"","canvas-keyboard-response","214","173391","0.0-6.0-5.29","562","","","","","make choice","1684","2","","","critical","c","t","d","240","164","164","240","162.6685","237.1485","trueblood","0.02","h","164","240","240","164","162.6685","237.1485","39360","39360","38576.5967","td","null","null","null","null","null","null","[2,3]","","",""
"","canvas-keyboard-response","215","173408","0.0-6.0-6.29","562","","","","","clear_screen","null","null","","","critical","c","t","d","240","164","164","240","162.6685","237.1485","trueblood","0.02","h","164","240","240","164","162.6685","237.1485","39360","39360","38576.5967","td","null","null","null","null","null","null","[2,3]","","",""
"","canvas-keyboard-response","216","173610","0.0-6.0-0.30","562","","","","","pre trial waiting period","null","null","","","critical","d","t","c","220.0396","154.6796","240","164","164","240","spektor","0.14","w","240","164","164","240","220.0396","154.6796","39360","39360","34035.6388","td","null","null","null","null","null","null","[2,1]","507.00346204286456","186.8187527619051","485.4955670641237"
"","canvas-keyboard-response","217","173631","0.0-6.0-1.30","562","","","","","clear_screen","null","null","","","critical","d","t","c","220.0396","154.6796","240","164","164","240","spektor","0.14","w","240","164","164","240","220.0396","154.6796","39360","39360","34035.6388","td","null","null","null","null","null","null","[2,1]","507.00346204286456","186.8187527619051","485.4955670641237"
"","canvas-keyboard-response","218","174141","0.0-6.0-2.30","562","","","","","rectangles no change","null","null","","","critical","d","t","c","220.0396","154.6796","240","164","164","240","spektor","0.14","w","240","164","164","240","220.0396","154.6796","39360","39360","34035.6388","td","null","null","null","null","null","null","[2,1]","507.00346204286456","186.8187527619051","485.4955670641237"
"","canvas-keyboard-response","219","175476","0.0-6.0-3.30","562","","","","","rectangles with change","null","null","","","critical","d","t","c","220.0396","154.6796","240","164","164","240","spektor","0.14","w","240","164","164","240","220.0396","154.6796","39360","39360","34035.6388","td","null","null","null","null","null","null","[2,1]","507.00346204286456","186.8187527619051","485.4955670641237"
"","canvas-keyboard-response","220","175493","0.0-6.0-4.30","562","","","","","clear_screen","null","null","","","critical","d","t","c","220.0396","154.6796","240","164","164","240","spektor","0.14","w","240","164","164","240","220.0396","154.6796","39360","39360","34035.6388","td","null","null","null","null","null","null","[2,1]","507.00346204286456","186.8187527619051","485.4955670641237"
"","canvas-keyboard-response","221","175935","0.0-6.0-5.30","562","","","","","make choice","433","2","","","critical","d","t","c","220.0396","154.6796","240","164","164","240","spektor","0.14","w","240","164","164","240","220.0396","154.6796","39360","39360","34035.6388","td","null","null","null","null","null","null","[2,1]","","",""
"","canvas-keyboard-response","222","175953","0.0-6.0-6.30","562","","","","","clear_screen","null","null","","","critical","d","t","c","220.0396","154.6796","240","164","164","240","spektor","0.14","w","240","164","164","240","220.0396","154.6796","39360","39360","34035.6388","td","null","null","null","null","null","null","[2,1]","","",""
"","canvas-keyboard-response","223","176154","0.0-6.0-0.31","562","","","","","pre trial waiting period","null","null","","","critical","c","d","t","164","240","227.1683","158.0083","240","164","spektor","0.09","w","240","164","164","240","227.1683","158.0083","39360","39360","35894.4834","dc","null","null","null","null","null","null","[2,1]","482.7106473543611","193.29777704179313","533.976033475036"
"","canvas-keyboard-response","224","176172","0.0-6.0-1.31","562","","","","","clear_screen","null","null","","","critical","c","d","t","164","240","227.1683","158.0083","240","164","spektor","0.09","w","240","164","164","240","227.1683","158.0083","39360","39360","35894.4834","dc","null","null","null","null","null","null","[2,1]","482.7106473543611","193.29777704179313","533.976033475036"
"","canvas-keyboard-response","225","176683","0.0-6.0-2.31","562","","","","","rectangles no change","null","null","","","critical","c","d","t","164","240","227.1683","158.0083","240","164","spektor","0.09","w","240","164","164","240","227.1683","158.0083","39360","39360","35894.4834","dc","null","null","null","null","null","null","[2,1]","482.7106473543611","193.29777704179313","533.976033475036"
"","canvas-keyboard-response","226","178018","0.0-6.0-3.31","562","","","","","rectangles with change","null","null","","","critical","c","d","t","164","240","227.1683","158.0083","240","164","spektor","0.09","w","240","164","164","240","227.1683","158.0083","39360","39360","35894.4834","dc","null","null","null","null","null","null","[2,1]","482.7106473543611","193.29777704179313","533.976033475036"
"","canvas-keyboard-response","227","178036","0.0-6.0-4.31","562","","","","","clear_screen","null","null","","","critical","c","d","t","164","240","227.1683","158.0083","240","164","spektor","0.09","w","240","164","164","240","227.1683","158.0083","39360","39360","35894.4834","dc","null","null","null","null","null","null","[2,1]","482.7106473543611","193.29777704179313","533.976033475036"
"","canvas-keyboard-response","228","178463","0.0-6.0-5.31","562","","","","","make choice","421","1","","","critical","c","d","t","164","240","227.1683","158.0083","240","164","spektor","0.09","w","240","164","164","240","227.1683","158.0083","39360","39360","35894.4834","dc","null","null","null","null","null","null","[2,1]","","",""
"","canvas-keyboard-response","229","178482","0.0-6.0-6.31","562","","","","","clear_screen","null","null","","","critical","c","d","t","164","240","227.1683","158.0083","240","164","spektor","0.09","w","240","164","164","240","227.1683","158.0083","39360","39360","35894.4834","dc","null","null","null","null","null","null","[2,1]","","",""
"","canvas-keyboard-response","230","178682","0.0-6.0-0.32","562","","","","","pre trial waiting period","null","null","","","critical","d","t","c","164","240","164","240","240","164","spektor","0","h","164","240","240","164","164","240","39360","39360","39360","td","null","null","null","null","null","null","[2,1]","487.33137564296857","117.71049277807694","499.31757247548404"
"","canvas-keyboard-response","231","178701","0.0-6.0-1.32","562","","","","","clear_screen","null","null","","","critical","d","t","c","164","240","164","240","240","164","spektor","0","h","164","240","240","164","164","240","39360","39360","39360","td","null","null","null","null","null","null","[2,1]","487.33137564296857","117.71049277807694","499.31757247548404"
"","canvas-keyboard-response","232","179210","0.0-6.0-2.32","562","","","","","rectangles no change","null","null","","","critical","d","t","c","164","240","164","240","240","164","spektor","0","h","164","240","240","164","164","240","39360","39360","39360","td","null","null","null","null","null","null","[2,1]","487.33137564296857","117.71049277807694","499.31757247548404"
"","canvas-keyboard-response","233","180545","0.0-6.0-3.32","562","","","","","rectangles with change","null","null","","","critical","d","t","c","164","240","164","240","240","164","spektor","0","h","164","240","240","164","164","240","39360","39360","39360","td","null","null","null","null","null","null","[2,1]","487.33137564296857","117.71049277807694","499.31757247548404"
"","canvas-keyboard-response","234","180564","0.0-6.0-4.32","562","","","","","clear_screen","null","null","","","critical","d","t","c","164","240","164","240","240","164","spektor","0","h","164","240","240","164","164","240","39360","39360","39360","td","null","null","null","null","null","null","[2,1]","487.33137564296857","117.71049277807694","499.31757247548404"
"","canvas-keyboard-response","235","181335","0.0-6.0-5.32","562","","","","","make choice","765","1","","","critical","d","t","c","164","240","164","240","240","164","spektor","0","h","164","240","240","164","164","240","39360","39360","39360","td","null","null","null","null","null","null","[2,1]","","",""
"","canvas-keyboard-response","236","181352","0.0-6.0-6.32","562","","","","","clear_screen","null","null","","","critical","d","t","c","164","240","164","240","240","164","spektor","0","h","164","240","240","164","164","240","39360","39360","39360","td","null","null","null","null","null","null","[2,1]","","",""
"","canvas-keyboard-response","237","181553","0.0-6.0-0.33","562","","","","","pre trial waiting period","null","null","","","catch","l","sw","sh","197","228","194","214","217","146","spektor","null","null","null","null","null","null","null","null","null","null","null","","180","200","260","200","36000","52000","[1,2]","475.76674363444016","162.8340206013621","530.8331996452256"
"","canvas-keyboard-response","238","181575","0.0-6.0-1.33","562","","","","","clear_screen","null","null","","","catch","l","sw","sh","197","228","194","214","217","146","spektor","null","null","null","null","null","null","null","null","null","null","null","","180","200","260","200","36000","52000","[1,2]","475.76674363444016","162.8340206013621","530.8331996452256"
"","canvas-keyboard-response","239","182084","0.0-6.0-2.33","562","","","","","rectangles no change","null","null","","","catch","l","sw","sh","197","228","194","214","217","146","spektor","null","null","null","null","null","null","null","null","null","null","null","","180","200","260","200","36000","52000","[1,2]","475.76674363444016","162.8340206013621","530.8331996452256"
"","canvas-keyboard-response","240","183419","0.0-6.0-3.33","562","","","","","rectangles with change","null","null","","","catch","l","sw","sh","197","228","194","214","217","146","spektor","null","null","null","null","null","null","null","null","null","null","null","","180","200","260","200","36000","52000","[1,2]","475.76674363444016","162.8340206013621","530.8331996452256"
"","canvas-keyboard-response","241","183436","0.0-6.0-4.33","562","","","","","clear_screen","null","null","","","catch","l","sw","sh","197","228","194","214","217","146","spektor","null","null","null","null","null","null","null","null","null","null","null","","180","200","260","200","36000","52000","[1,2]","475.76674363444016","162.8340206013621","530.8331996452256"
"","canvas-keyboard-response","242","183839","0.0-6.0-5.33","562","","","","","make choice","396","1","","","catch","l","sw","sh","197","228","194","214","217","146","spektor","null","null","null","null","null","null","null","null","null","null","null","","180","200","260","200","36000","52000","[1,2]","","",""
"","canvas-keyboard-response","243","183857","0.0-6.0-6.33","562","","","","","clear_screen","null","null","","","catch","l","sw","sh","197","228","194","214","217","146","spektor","null","null","null","null","null","null","null","null","null","null","null","","180","200","260","200","36000","52000","[1,2]","","",""
"","canvas-keyboard-response","244","184058","0.0-6.0-0.34","562","","","","","pre trial waiting period","null","null","","","critical","t","d","c","240","164","240","164","164","240","trueblood","0","w","240","164","164","240","240","164","39360","39360","39360","td","null","null","null","null","null","null","[1,2]","478.57383027742486","500.19900109651576","460.4821742684433"
"","canvas-keyboard-response","245","184077","0.0-6.0-1.34","562","","","","","clear_screen","null","null","","","critical","t","d","c","240","164","240","164","164","240","trueblood","0","w","240","164","164","240","240","164","39360","39360","39360","td","null","null","null","null","null","null","[1,2]","478.57383027742486","500.19900109651576","460.4821742684433"
"","canvas-keyboard-response","246","184590","0.0-6.0-2.34","562","","","","","rectangles no change","null","null","","","critical","t","d","c","240","164","240","164","164","240","trueblood","0","w","240","164","164","240","240","164","39360","39360","39360","td","null","null","null","null","null","null","[1,2]","478.57383027742486","500.19900109651576","460.4821742684433"
"","canvas-keyboard-response","247","185924","0.0-6.0-3.34","562","","","","","rectangles with change","null","null","","","critical","t","d","c","240","164","240","164","164","240","trueblood","0","w","240","164","164","240","240","164","39360","39360","39360","td","null","null","null","null","null","null","[1,2]","478.57383027742486","500.19900109651576","460.4821742684433"
"","canvas-keyboard-response","248","185942","0.0-6.0-4.34","562","","","","","clear_screen","null","null","","","critical","t","d","c","240","164","240","164","164","240","trueblood","0","w","240","164","164","240","240","164","39360","39360","39360","td","null","null","null","null","null","null","[1,2]","478.57383027742486","500.19900109651576","460.4821742684433"
"","canvas-keyboard-response","249","186199","0.0-6.0-5.34","562","","","","","make choice","250","1","","","critical","t","d","c","240","164","240","164","164","240","trueblood","0","w","240","164","164","240","240","164","39360","39360","39360","td","null","null","null","null","null","null","[1,2]","","",""
"","canvas-keyboard-response","250","186220","0.0-6.0-6.34","562","","","","","clear_screen","null","null","","","critical","t","d","c","240","164","240","164","164","240","trueblood","0","w","240","164","164","240","240","164","39360","39360","39360","td","null","null","null","null","null","null","[1,2]","","",""
"","canvas-keyboard-response","251","186422","0.0-6.0-0.35","562","","","","","pre trial waiting period","null","null","","","critical","d","t","c","237.1485","162.6685","240","164","164","240","trueblood","0.02","w","240","164","164","240","237.1485","162.6685","39360","39360","38576.5967","dc","null","null","null","null","null","null","[1,3]","494.59004768338434","517.7223900380484","440.7165394183863"
"","canvas-keyboard-response","252","186440","0.0-6.0-1.35","562","","","","","clear_screen","null","null","","","critical","d","t","c","237.1485","162.6685","240","164","164","240","trueblood","0.02","w","240","164","164","240","237.1485","162.6685","39360","39360","38576.5967","dc","null","null","null","null","null","null","[1,3]","494.59004768338434","517.7223900380484","440.7165394183863"
"","canvas-keyboard-response","253","186950","0.0-6.0-2.35","562","","","","","rectangles no change","null","null","","","critical","d","t","c","237.1485","162.6685","240","164","164","240","trueblood","0.02","w","240","164","164","240","237.1485","162.6685","39360","39360","38576.5967","dc","null","null","null","null","null","null","[1,3]","494.59004768338434","517.7223900380484","440.7165394183863"
"","canvas-keyboard-response","254","188285","0.0-6.0-3.35","562","","","","","rectangles with change","null","null","","","critical","d","t","c","237.1485","162.6685","240","164","164","240","trueblood","0.02","w","240","164","164","240","237.1485","162.6685","39360","39360","38576.5967","dc","null","null","null","null","null","null","[1,3]","494.59004768338434","517.7223900380484","440.7165394183863"
"","canvas-keyboard-response","255","188303","0.0-6.0-4.35","562","","","","","clear_screen","null","null","","","critical","d","t","c","237.1485","162.6685","240","164","164","240","trueblood","0.02","w","240","164","164","240","237.1485","162.6685","39360","39360","38576.5967","dc","null","null","null","null","null","null","[1,3]","494.59004768338434","517.7223900380484","440.7165394183863"
"","canvas-keyboard-response","256","188591","0.0-6.0-5.35","562","","","","","make choice","280","1","","","critical","d","t","c","237.1485","162.6685","240","164","164","240","trueblood","0.02","w","240","164","164","240","237.1485","162.6685","39360","39360","38576.5967","dc","null","null","null","null","null","null","[1,3]","","",""
"","canvas-keyboard-response","257","188608","0.0-6.0-6.35","562","","","","","clear_screen","null","null","","","critical","d","t","c","237.1485","162.6685","240","164","164","240","trueblood","0.02","w","240","164","164","240","237.1485","162.6685","39360","39360","38576.5967","dc","null","null","null","null","null","null","[1,3]","","",""
"","canvas-keyboard-response","258","188810","0.0-6.0-0.36","562","","","","","pre trial waiting period","null","null","","","catch","sh","sw","l","177","188","178","165","163","255","trueblood","null","null","null","null","null","null","null","null","null","null","null","","180","200","260","200","36000","52000","[1,3]","492.561841407736","516.4832448079264","421.7902283203032"
"","canvas-keyboard-response","259","188829","0.0-6.0-1.36","562","","","","","clear_screen","null","null","","","catch","sh","sw","l","177","188","178","165","163","255","trueblood","null","null","null","null","null","null","null","null","null","null","null","","180","200","260","200","36000","52000","[1,3]","492.561841407736","516.4832448079264","421.7902283203032"
"","canvas-keyboard-response","260","189339","0.0-6.0-2.36","562","","","","","rectangles no change","null","null","","","catch","sh","sw","l","177","188","178","165","163","255","trueblood","null","null","null","null","null","null","null","null","null","null","null","","180","200","260","200","36000","52000","[1,3]","492.561841407736","516.4832448079264","421.7902283203032"
"","canvas-keyboard-response","261","190673","0.0-6.0-3.36","562","","","","","rectangles with change","null","null","","","catch","sh","sw","l","177","188","178","165","163","255","trueblood","null","null","null","null","null","null","null","null","null","null","null","","180","200","260","200","36000","52000","[1,3]","492.561841407736","516.4832448079264","421.7902283203032"
"","canvas-keyboard-response","262","190691","0.0-6.0-4.36","562","","","","","clear_screen","null","null","","","catch","sh","sw","l","177","188","178","165","163","255","trueblood","null","null","null","null","null","null","null","null","null","null","null","","180","200","260","200","36000","52000","[1,3]","492.561841407736","516.4832448079264","421.7902283203032"
"","canvas-keyboard-response","263","191944","0.0-6.0-5.36","562","","","","","make choice","1245","3","","","catch","sh","sw","l","177","188","178","165","163","255","trueblood","null","null","null","null","null","null","null","null","null","null","null","","180","200","260","200","36000","52000","[1,3]","","",""
"","canvas-keyboard-response","264","191964","0.0-6.0-6.36","562","","","","","clear_screen","null","null","","","catch","sh","sw","l","177","188","178","165","163","255","trueblood","null","null","null","null","null","null","null","null","null","null","null","","180","200","260","200","36000","52000","[1,3]","","",""
"","canvas-keyboard-response","265","192166","0.0-6.0-0.37","562","","","","","pre trial waiting period","null","null","","","critical","t","c","d","240","164","164","240","240","164","spektor","0","w","240","164","164","240","240","164","39360","39360","39360","td","null","null","null","null","null","null","[1,3]","510.67439940221794","150.470024275483","510.1705708764367"
"","canvas-keyboard-response","266","192188","0.0-6.0-1.37","562","","","","","clear_screen","null","null","","","critical","t","c","d","240","164","164","240","240","164","spektor","0","w","240","164","164","240","240","164","39360","39360","39360","td","null","null","null","null","null","null","[1,3]","510.67439940221794","150.470024275483","510.1705708764367"
"","canvas-keyboard-response","267","192699","0.0-6.0-2.37","562","","","","","rectangles no change","null","null","","","critical","t","c","d","240","164","164","240","240","164","spektor","0","w","240","164","164","240","240","164","39360","39360","39360","td","null","null","null","null","null","null","[1,3]","510.67439940221794","150.470024275483","510.1705708764367"
