"success","trial_type","trial_index","time_elapsed","internal_node_id","sub_n","timeout","failed_images","failed_audio","failed_video","screen_id","rt","response","stimulus","view_history","trial","r1","r2","r3","w1","h1","w2","h2","w3","h3","display","tdd","tdo","tw","th","cw","ch","dw","dh","ta","ca","da","probe","csls","csss","clls","clss","sa","la","probe_rects","r1yloc","r2yloc","r3yloc"
"true","fullscreen","0","9659","0.0-0.0","535","","","","","","","","","","","","","","","","","","","","","","","","","","","","","","","","","","","","","","","","","",""
"true","preload","1","9679","0.0-1.0","535","false","[]","[]","[]","img preload","","","","","","","","","","","","","","","","","","","","","","","","","","","","","","","","","","","","",""
"","survey-html-form","2","21148","0.0-2.0","535","","","","","enter-sub-number","11456","{""response"":""535""}","","","","","","","","","","","","","","","","","","","","","","","","","","","","","","","","","","",""
"","image-button-response","3","39960","0.0-3.0","535","","","","","","18695","0","consent.png","","","","","","","","","","","","","","","","","","","","","","","","","","","","","","","","","",""
"","html-button-response","4","58113","0.0-4.0","535","","","","","intro mssg","18148","0","<div style= ""font-size:25px;"" <p> <strong> Welcome! </strong><br> <p style=""color:#8B0000; font-size:25px;""><strong> Please do NOT exit full screen until you are done with the experiment. </strong> </p><p style=""font-size:25px;color:#8B0000;""> <strong> Your data will be lost <br> if you try to go back or refresh the page after the experiment starts. Feel free to click ""previous"" during the instructions, however.</strong> </p><br><p> <strong> Thanks in advance for your contribution to our research! </strong></p>","","","","","","","","","","","","","","","","","","","","","","","","","","","","","","","","","",""
"","instructions","5","125393","0.0-5.0","535","","","","","instructions","67277","","","[{""page_index"":0,""viewing_time"":12877},{""page_index"":1,""viewing_time"":8200},{""page_index"":2,""viewing_time"":5624},{""page_index"":3,""viewing_time"":17384},{""page_index"":4,""viewing_time"":8568},{""page_index"":5,""viewing_time"":3728},{""page_index"":6,""viewing_time"":3376},{""page_index"":7,""viewing_time"":7520}]","","","","","","","","","","","","","","","","","","","","","","","","","","","","","","","","",""
"","canvas-keyboard-response","6","125597","0.0-6.0-0.0","535","","","","","pre trial waiting period","null","null","","","critical","t","c","d","240","164","164","240","227.1683","158.0083","trueblood","0.09","w","240","164","164","240","227.1683","158.0083","39360","39360","35894.4834","td","null","null","null","null","null","null","[1,3]","513.6618371001214","429.72134748007437","509.75183570879193"
"","canvas-keyboard-response","7","125626","0.0-6.0-1.0","535","","","","","clear_screen","null","null","","","critical","t","c","d","240","164","164","240","227.1683","158.0083","trueblood","0.09","w","240","164","164","240","227.1683","158.0083","39360","39360","35894.4834","td","null","null","null","null","null","null","[1,3]","513.6618371001214","429.72134748007437","509.75183570879193"
"","canvas-keyboard-response","8","126143","0.0-6.0-2.0","535","","","","","rectangles no change","null","null","","","critical","t","c","d","240","164","164","240","227.1683","158.0083","trueblood","0.09","w","240","164","164","240","227.1683","158.0083","39360","39360","35894.4834","td","null","null","null","null","null","null","[1,3]","513.6618371001214","429.72134748007437","509.75183570879193"
"","canvas-keyboard-response","9","127481","0.0-6.0-3.0","535","","","","","rectangles with change","null","null","","","critical","t","c","d","240","164","164","240","227.1683","158.0083","trueblood","0.09","w","240","164","164","240","227.1683","158.0083","39360","39360","35894.4834","td","null","null","null","null","null","null","[1,3]","513.6618371001214","429.72134748007437","509.75183570879193"
"","canvas-keyboard-response","10","127501","0.0-6.0-4.0","535","","","","","clear_screen","null","null","","","critical","t","c","d","240","164","164","240","227.1683","158.0083","trueblood","0.09","w","240","164","164","240","227.1683","158.0083","39360","39360","35894.4834","td","null","null","null","null","null","null","[1,3]","513.6618371001214","429.72134748007437","509.75183570879193"
"","canvas-keyboard-response","11","131126","0.0-6.0-5.0","535","","","","","make choice","3615","1","","","critical","t","c","d","240","164","164","240","227.1683","158.0083","trueblood","0.09","w","240","164","164","240","227.1683","158.0083","39360","39360","35894.4834","td","null","null","null","null","null","null","[1,3]","","",""
"","canvas-keyboard-response","12","131146","0.0-6.0-6.0","535","","","","","clear_screen","null","null","","","critical","t","c","d","240","164","164","240","227.1683","158.0083","trueblood","0.09","w","240","164","164","240","227.1683","158.0083","39360","39360","35894.4834","td","null","null","null","null","null","null","[1,3]","","",""
"","canvas-keyboard-response","13","131346","0.0-6.0-0.1","535","","","","","pre trial waiting period","null","null","","","catch","sw","l","sh","180","200","242","183","164","169","trueblood","null","null","null","null","null","null","null","null","null","null","null","","180","200","260","200","36000","52000","[1,2]","462.4741232852914","486.369164062738","492.503322360207"
"","canvas-keyboard-response","14","131366","0.0-6.0-1.1","535","","","","","clear_screen","null","null","","","catch","sw","l","sh","180","200","242","183","164","169","trueblood","null","null","null","null","null","null","null","null","null","null","null","","180","200","260","200","36000","52000","[1,2]","462.4741232852914","486.369164062738","492.503322360207"
"","canvas-keyboard-response","15","131877","0.0-6.0-2.1","535","","","","","rectangles no change","null","null","","","catch","sw","l","sh","180","200","242","183","164","169","trueblood","null","null","null","null","null","null","null","null","null","null","null","","180","200","260","200","36000","52000","[1,2]","462.4741232852914","486.369164062738","492.503322360207"
"","canvas-keyboard-response","16","133212","0.0-6.0-3.1","535","","","","","rectangles with change","null","null","","","catch","sw","l","sh","180","200","242","183","164","169","trueblood","null","null","null","null","null","null","null","null","null","null","null","","180","200","260","200","36000","52000","[1,2]","462.4741232852914","486.369164062738","492.503322360207"
"","canvas-keyboard-response","17","133238","0.0-6.0-4.1","535","","","","","clear_screen","null","null","","","catch","sw","l","sh","180","200","242","183","164","169","trueblood","null","null","null","null","null","null","null","null","null","null","null","","180","200","260","200","36000","52000","[1,2]","462.4741232852914","486.369164062738","492.503322360207"
"","canvas-keyboard-response","18","135765","0.0-6.0-5.1","535","","","","","make choice","2518","2","","","catch","sw","l","sh","180","200","242","183","164","169","trueblood","null","null","null","null","null","null","null","null","null","null","null","","180","200","260","200","36000","52000","[1,2]","","",""
"","canvas-keyboard-response","19","135785","0.0-6.0-6.1","535","","","","","clear_screen","null","null","","","catch","sw","l","sh","180","200","242","183","164","169","trueblood","null","null","null","null","null","null","null","null","null","null","null","","180","200","260","200","36000","52000","[1,2]","","",""
"","canvas-keyboard-response","20","135985","0.0-6.0-0.2","535","","","","","pre trial waiting period","null","null","","","critical","t","d","c","240","164","240","164","164","240","spektor","0","w","240","164","164","240","240","164","39360","39360","39360","tc","null","null","null","null","null","null","[1,3]","517.0860360264077","181.50314414525246","465.2721075114009"
"","canvas-keyboard-response","21","136006","0.0-6.0-1.2","535","","","","","clear_screen","null","null","","","critical","t","d","c","240","164","240","164","164","240","spektor","0","w","240","164","164","240","240","164","39360","39360","39360","tc","null","null","null","null","null","null","[1,3]","517.0860360264077","181.50314414525246","465.2721075114009"
"","canvas-keyboard-response","22","136518","0.0-6.0-2.2","535","","","","","rectangles no change","null","null","","","critical","t","d","c","240","164","240","164","164","240","spektor","0","w","240","164","164","240","240","164","39360","39360","39360","tc","null","null","null","null","null","null","[1,3]","517.0860360264077","181.50314414525246","465.2721075114009"
"","canvas-keyboard-response","23","137855","0.0-6.0-3.2","535","","","","","rectangles with change","null","null","","","critical","t","d","c","240","164","240","164","164","240","spektor","0","w","240","164","164","240","240","164","39360","39360","39360","tc","null","null","null","null","null","null","[1,3]","517.0860360264077","181.50314414525246","465.2721075114009"
"","canvas-keyboard-response","24","137873","0.0-6.0-4.2","535","","","","","clear_screen","null","null","","","critical","t","d","c","240","164","240","164","164","240","spektor","0","w","240","164","164","240","240","164","39360","39360","39360","tc","null","null","null","null","null","null","[1,3]","517.0860360264077","181.50314414525246","465.2721075114009"
"","canvas-keyboard-response","25","141214","0.0-6.0-5.2","535","","","","","make choice","3331","1","","","critical","t","d","c","240","164","240","164","164","240","spektor","0","w","240","164","164","240","240","164","39360","39360","39360","tc","null","null","null","null","null","null","[1,3]","","",""
"","canvas-keyboard-response","26","141233","0.0-6.0-6.2","535","","","","","clear_screen","null","null","","","critical","t","d","c","240","164","240","164","164","240","spektor","0","w","240","164","164","240","240","164","39360","39360","39360","tc","null","null","null","null","null","null","[1,3]","","",""
"","canvas-keyboard-response","27","141434","0.0-6.0-0.3","535","","","","","pre trial waiting period","null","null","","","critical","c","t","d","164","240","240","164","227.1683","158.0083","spektor","0.09","w","240","164","164","240","227.1683","158.0083","39360","39360","35894.4834","td","null","null","null","null","null","null","[2,3]","488.39801898098847","174.92895135867877","531.2338859168476"
"","canvas-keyboard-response","28","141454","0.0-6.0-1.3","535","","","","","clear_screen","null","null","","","critical","c","t","d","164","240","240","164","227.1683","158.0083","spektor","0.09","w","240","164","164","240","227.1683","158.0083","39360","39360","35894.4834","td","null","null","null","null","null","null","[2,3]","488.39801898098847","174.92895135867877","531.2338859168476"
"","canvas-keyboard-response","29","141966","0.0-6.0-2.3","535","","","","","rectangles no change","null","null","","","critical","c","t","d","164","240","240","164","227.1683","158.0083","spektor","0.09","w","240","164","164","240","227.1683","158.0083","39360","39360","35894.4834","td","null","null","null","null","null","null","[2,3]","488.39801898098847","174.92895135867877","531.2338859168476"
"","canvas-keyboard-response","30","143302","0.0-6.0-3.3","535","","","","","rectangles with change","null","null","","","critical","c","t","d","164","240","240","164","227.1683","158.0083","spektor","0.09","w","240","164","164","240","227.1683","158.0083","39360","39360","35894.4834","td","null","null","null","null","null","null","[2,3]","488.39801898098847","174.92895135867877","531.2338859168476"
"","canvas-keyboard-response","31","143321","0.0-6.0-4.3","535","","","","","clear_screen","null","null","","","critical","c","t","d","164","240","240","164","227.1683","158.0083","spektor","0.09","w","240","164","164","240","227.1683","158.0083","39360","39360","35894.4834","td","null","null","null","null","null","null","[2,3]","488.39801898098847","174.92895135867877","531.2338859168476"
"","canvas-keyboard-response","32","145742","0.0-6.0-5.3","535","","","","","make choice","2414","2","","","critical","c","t","d","164","240","240","164","227.1683","158.0083","spektor","0.09","w","240","164","164","240","227.1683","158.0083","39360","39360","35894.4834","td","null","null","null","null","null","null","[2,3]","","",""
"","canvas-keyboard-response","33","145760","0.0-6.0-6.3","535","","","","","clear_screen","null","null","","","critical","c","t","d","164","240","240","164","227.1683","158.0083","spektor","0.09","w","240","164","164","240","227.1683","158.0083","39360","39360","35894.4834","td","null","null","null","null","null","null","[2,3]","","",""
"","canvas-keyboard-response","34","145961","0.0-6.0-0.4","535","","","","","pre trial waiting period","null","null","","","critical","c","d","t","164","240","227.1683","158.0083","240","164","trueblood","0.09","w","240","164","164","240","227.1683","158.0083","39360","39360","35894.4834","tc","null","null","null","null","null","null","[3,1]","440.60623687409145","490.707496246564","511.6874966406476"
"","canvas-keyboard-response","35","145982","0.0-6.0-1.4","535","","","","","clear_screen","null","null","","","critical","c","d","t","164","240","227.1683","158.0083","240","164","trueblood","0.09","w","240","164","164","240","227.1683","158.0083","39360","39360","35894.4834","tc","null","null","null","null","null","null","[3,1]","440.60623687409145","490.707496246564","511.6874966406476"
"","canvas-keyboard-response","36","146492","0.0-6.0-2.4","535","","","","","rectangles no change","null","null","","","critical","c","d","t","164","240","227.1683","158.0083","240","164","trueblood","0.09","w","240","164","164","240","227.1683","158.0083","39360","39360","35894.4834","tc","null","null","null","null","null","null","[3,1]","440.60623687409145","490.707496246564","511.6874966406476"
"","canvas-keyboard-response","37","147827","0.0-6.0-3.4","535","","","","","rectangles with change","null","null","","","critical","c","d","t","164","240","227.1683","158.0083","240","164","trueblood","0.09","w","240","164","164","240","227.1683","158.0083","39360","39360","35894.4834","tc","null","null","null","null","null","null","[3,1]","440.60623687409145","490.707496246564","511.6874966406476"
"","canvas-keyboard-response","38","147847","0.0-6.0-4.4","535","","","","","clear_screen","null","null","","","critical","c","d","t","164","240","227.1683","158.0083","240","164","trueblood","0.09","w","240","164","164","240","227.1683","158.0083","39360","39360","35894.4834","tc","null","null","null","null","null","null","[3,1]","440.60623687409145","490.707496246564","511.6874966406476"
"","canvas-keyboard-response","39","149798","0.0-6.0-5.4","535","","","","","make choice","1944","3","","","critical","c","d","t","164","240","227.1683","158.0083","240","164","trueblood","0.09","w","240","164","164","240","227.1683","158.0083","39360","39360","35894.4834","tc","null","null","null","null","null","null","[3,1]","","",""
"","canvas-keyboard-response","40","149816","0.0-6.0-6.4","535","","","","","clear_screen","null","null","","","critical","c","d","t","164","240","227.1683","158.0083","240","164","trueblood","0.09","w","240","164","164","240","227.1683","158.0083","39360","39360","35894.4834","tc","null","null","null","null","null","null","[3,1]","","",""
"","canvas-keyboard-response","41","150019","0.0-6.0-0.5","535","","","","","pre trial waiting period","null","null","","","catch","sh","l","sw","224","145","250","205","154","177","spektor","null","null","null","null","null","null","null","null","null","null","null","","180","200","260","200","36000","52000","[1,2]","509.96163682925925","145.84614213747656","493.9228846028507"
"","canvas-keyboard-response","42","150044","0.0-6.0-1.5","535","","","","","clear_screen","null","null","","","catch","sh","l","sw","224","145","250","205","154","177","spektor","null","null","null","null","null","null","null","null","null","null","null","","180","200","260","200","36000","52000","[1,2]","509.96163682925925","145.84614213747656","493.9228846028507"
"","canvas-keyboard-response","43","150557","0.0-6.0-2.5","535","","","","","rectangles no change","null","null","","","catch","sh","l","sw","224","145","250","205","154","177","spektor","null","null","null","null","null","null","null","null","null","null","null","","180","200","260","200","36000","52000","[1,2]","509.96163682925925","145.84614213747656","493.9228846028507"
"","canvas-keyboard-response","44","151894","0.0-6.0-3.5","535","","","","","rectangles with change","null","null","","","catch","sh","l","sw","224","145","250","205","154","177","spektor","null","null","null","null","null","null","null","null","null","null","null","","180","200","260","200","36000","52000","[1,2]","509.96163682925925","145.84614213747656","493.9228846028507"
"","canvas-keyboard-response","45","151914","0.0-6.0-4.5","535","","","","","clear_screen","null","null","","","catch","sh","l","sw","224","145","250","205","154","177","spektor","null","null","null","null","null","null","null","null","null","null","null","","180","200","260","200","36000","52000","[1,2]","509.96163682925925","145.84614213747656","493.9228846028507"
"","canvas-keyboard-response","46","153325","0.0-6.0-5.5","535","","","","","make choice","1403","2","","","catch","sh","l","sw","224","145","250","205","154","177","spektor","null","null","null","null","null","null","null","null","null","null","null","","180","200","260","200","36000","52000","[1,2]","","",""
"","canvas-keyboard-response","47","153347","0.0-6.0-6.5","535","","","","","clear_screen","null","null","","","catch","sh","l","sw","224","145","250","205","154","177","spektor","null","null","null","null","null","null","null","null","null","null","null","","180","200","260","200","36000","52000","[1,2]","","",""
"","canvas-keyboard-response","48","153549","0.0-6.0-0.6","535","","","","","pre trial waiting period","null","null","","","critical","t","d","c","164","240","162.6685","237.1485","240","164","spektor","0.02","h","164","240","240","164","162.6685","237.1485","39360","39360","38576.5967","tc","null","null","null","null","null","null","[1,3]","485.7000188667299","135.48857693295236","538.7958641318398"
"","canvas-keyboard-response","49","153570","0.0-6.0-1.6","535","","","","","clear_screen","null","null","","","critical","t","d","c","164","240","162.6685","237.1485","240","164","spektor","0.02","h","164","240","240","164","162.6685","237.1485","39360","39360","38576.5967","tc","null","null","null","null","null","null","[1,3]","485.7000188667299","135.48857693295236","538.7958641318398"
"","canvas-keyboard-response","50","154082","0.0-6.0-2.6","535","","","","","rectangles no change","null","null","","","critical","t","d","c","164","240","162.6685","237.1485","240","164","spektor","0.02","h","164","240","240","164","162.6685","237.1485","39360","39360","38576.5967","tc","null","null","null","null","null","null","[1,3]","485.7000188667299","135.48857693295236","538.7958641318398"
"","canvas-keyboard-response","51","155419","0.0-6.0-3.6","535","","","","","rectangles with change","null","null","","","critical","t","d","c","164","240","162.6685","237.1485","240","164","spektor","0.02","h","164","240","240","164","162.6685","237.1485","39360","39360","38576.5967","tc","null","null","null","null","null","null","[1,3]","485.7000188667299","135.48857693295236","538.7958641318398"
"","canvas-keyboard-response","52","155439","0.0-6.0-4.6","535","","","","","clear_screen","null","null","","","critical","t","d","c","164","240","162.6685","237.1485","240","164","spektor","0.02","h","164","240","240","164","162.6685","237.1485","39360","39360","38576.5967","tc","null","null","null","null","null","null","[1,3]","485.7000188667299","135.48857693295236","538.7958641318398"
"","canvas-keyboard-response","53","156846","0.0-6.0-5.6","535","","","","","make choice","1394","3","","","critical","t","d","c","164","240","162.6685","237.1485","240","164","spektor","0.02","h","164","240","240","164","162.6685","237.1485","39360","39360","38576.5967","tc","null","null","null","null","null","null","[1,3]","","",""
"","canvas-keyboard-response","54","156865","0.0-6.0-6.6","535","","","","","clear_screen","null","null","","","critical","t","d","c","164","240","162.6685","237.1485","240","164","spektor","0.02","h","164","240","240","164","162.6685","237.1485","39360","39360","38576.5967","tc","null","null","null","null","null","null","[1,3]","","",""
"","canvas-keyboard-response","55","157067","0.0-6.0-0.7","535","","","","","pre trial waiting period","null","null","","","critical","t","d","c","240","164","240","164","164","240","spektor","0","w","240","164","164","240","240","164","39360","39360","39360","dc","null","null","null","null","null","null","[2,3]","540.271703662234","187.9698788476257","464.17287541201654"
"","canvas-keyboard-response","56","157088","0.0-6.0-1.7","535","","","","","clear_screen","null","null","","","critical","t","d","c","240","164","240","164","164","240","spektor","0","w","240","164","164","240","240","164","39360","39360","39360","dc","null","null","null","null","null","null","[2,3]","540.271703662234","187.9698788476257","464.17287541201654"
"","canvas-keyboard-response","57","157600","0.0-6.0-2.7","535","","","","","rectangles no change","null","null","","","critical","t","d","c","240","164","240","164","164","240","spektor","0","w","240","164","164","240","240","164","39360","39360","39360","dc","null","null","null","null","null","null","[2,3]","540.271703662234","187.9698788476257","464.17287541201654"
"","canvas-keyboard-response","58","158937","0.0-6.0-3.7","535","","","","","rectangles with change","null","null","","","critical","t","d","c","240","164","240","164","164","240","spektor","0","w","240","164","164","240","240","164","39360","39360","39360","dc","null","null","null","null","null","null","[2,3]","540.271703662234","187.9698788476257","464.17287541201654"
"","canvas-keyboard-response","59","158955","0.0-6.0-4.7","535","","","","","clear_screen","null","null","","","critical","t","d","c","240","164","240","164","164","240","spektor","0","w","240","164","164","240","240","164","39360","39360","39360","dc","null","null","null","null","null","null","[2,3]","540.271703662234","187.9698788476257","464.17287541201654"
"","canvas-keyboard-response","60","159910","0.0-6.0-5.7","535","","","","","make choice","947","2","","","critical","t","d","c","240","164","240","164","164","240","spektor","0","w","240","164","164","240","240","164","39360","39360","39360","dc","null","null","null","null","null","null","[2,3]","","",""
"","canvas-keyboard-response","61","159929","0.0-6.0-6.7","535","","","","","clear_screen","null","null","","","critical","t","d","c","240","164","240","164","164","240","spektor","0","w","240","164","164","240","240","164","39360","39360","39360","dc","null","null","null","null","null","null","[2,3]","","",""
"","canvas-keyboard-response","62","160130","0.0-6.0-0.8","535","","","","","pre trial waiting period","null","null","","","catch","l","sh","sw","299","201","235","196","217","172","trueblood","null","null","null","null","null","null","null","null","null","null","null","","180","200","260","200","36000","52000","[1,3]","472.634934351515","461.6910348532782","495.59704358049197"
"","canvas-keyboard-response","63","160152","0.0-6.0-1.8","535","","","","","clear_screen","null","null","","","catch","l","sh","sw","299","201","235","196","217","172","trueblood","null","null","null","null","null","null","null","null","null","null","null","","180","200","260","200","36000","52000","[1,3]","472.634934351515","461.6910348532782","495.59704358049197"
"","canvas-keyboard-response","64","160663","0.0-6.0-2.8","535","","","","","rectangles no change","null","null","","","catch","l","sh","sw","299","201","235","196","217","172","trueblood","null","null","null","null","null","null","null","null","null","null","null","","180","200","260","200","36000","52000","[1,3]","472.634934351515","461.6910348532782","495.59704358049197"
"","canvas-keyboard-response","65","161997","0.0-6.0-3.8","535","","","","","rectangles with change","null","null","","","catch","l","sh","sw","299","201","235","196","217","172","trueblood","null","null","null","null","null","null","null","null","null","null","null","","180","200","260","200","36000","52000","[1,3]","472.634934351515","461.6910348532782","495.59704358049197"
"","canvas-keyboard-response","66","162018","0.0-6.0-4.8","535","","","","","clear_screen","null","null","","","catch","l","sh","sw","299","201","235","196","217","172","trueblood","null","null","null","null","null","null","null","null","null","null","null","","180","200","260","200","36000","52000","[1,3]","472.634934351515","461.6910348532782","495.59704358049197"
"","canvas-keyboard-response","67","162981","0.0-6.0-5.8","535","","","","","make choice","955","1","","","catch","l","sh","sw","299","201","235","196","217","172","trueblood","null","null","null","null","null","null","null","null","null","null","null","","180","200","260","200","36000","52000","[1,3]","","",""
"","canvas-keyboard-response","68","162999","0.0-6.0-6.8","535","","","","","clear_screen","null","null","","","catch","l","sh","sw","299","201","235","196","217","172","trueblood","null","null","null","null","null","null","null","null","null","null","null","","180","200","260","200","36000","52000","[1,3]","","",""
"","canvas-keyboard-response","69","163201","0.0-6.0-0.9","535","","","","","pre trial waiting period","null","null","","","critical","d","t","c","158.0083","227.1683","164","240","240","164","trueblood","0.09","h","164","240","240","164","158.0083","227.1683","39360","39360","35894.4834","tc","null","null","null","null","null","null","[2,3]","453.6248598683699","463.79029532922937","482.838446948015"
"","canvas-keyboard-response","70","163220","0.0-6.0-1.9","535","","","","","clear_screen","null","null","","","critical","d","t","c","158.0083","227.1683","164","240","240","164","trueblood","0.09","h","164","240","240","164","158.0083","227.1683","39360","39360","35894.4834","tc","null","null","null","null","null","null","[2,3]","453.6248598683699","463.79029532922937","482.838446948015"
"","canvas-keyboard-response","71","163731","0.0-6.0-2.9","535","","","","","rectangles no change","null","null","","","critical","d","t","c","158.0083","227.1683","164","240","240","164","trueblood","0.09","h","164","240","240","164","158.0083","227.1683","39360","39360","35894.4834","tc","null","null","null","null","null","null","[2,3]","453.6248598683699","463.79029532922937","482.838446948015"
"","canvas-keyboard-response","72","165065","0.0-6.0-3.9","535","","","","","rectangles with change","null","null","","","critical","d","t","c","158.0083","227.1683","164","240","240","164","trueblood","0.09","h","164","240","240","164","158.0083","227.1683","39360","39360","35894.4834","tc","null","null","null","null","null","null","[2,3]","453.6248598683699","463.79029532922937","482.838446948015"
"","canvas-keyboard-response","73","165084","0.0-6.0-4.9","535","","","","","clear_screen","null","null","","","critical","d","t","c","158.0083","227.1683","164","240","240","164","trueblood","0.09","h","164","240","240","164","158.0083","227.1683","39360","39360","35894.4834","tc","null","null","null","null","null","null","[2,3]","453.6248598683699","463.79029532922937","482.838446948015"
"","canvas-keyboard-response","74","165653","0.0-6.0-5.9","535","","","","","make choice","558","3","","","critical","d","t","c","158.0083","227.1683","164","240","240","164","trueblood","0.09","h","164","240","240","164","158.0083","227.1683","39360","39360","35894.4834","tc","null","null","null","null","null","null","[2,3]","","",""
"","canvas-keyboard-response","75","165673","0.0-6.0-6.9","535","","","","","clear_screen","null","null","","","critical","d","t","c","158.0083","227.1683","164","240","240","164","trueblood","0.09","h","164","240","240","164","158.0083","227.1683","39360","39360","35894.4834","tc","null","null","null","null","null","null","[2,3]","","",""
"","canvas-keyboard-response","76","165874","0.0-6.0-0.10","535","","","","","pre trial waiting period","null","null","","","catch","l","sw","sh","186","242","168","211","161","168","trueblood","null","null","null","null","null","null","null","null","null","null","null","","180","200","260","200","36000","52000","[1,2]","458.38976307216296","486.79672193858954","503.42792237229844"
"","canvas-keyboard-response","77","165894","0.0-6.0-1.10","535","","","","","clear_screen","null","null","","","catch","l","sw","sh","186","242","168","211","161","168","trueblood","null","null","null","null","null","null","null","null","null","null","null","","180","200","260","200","36000","52000","[1,2]","458.38976307216296","486.79672193858954","503.42792237229844"
"","canvas-keyboard-response","78","166406","0.0-6.0-2.10","535","","","","","rectangles no change","null","null","","","catch","l","sw","sh","186","242","168","211","161","168","trueblood","null","null","null","null","null","null","null","null","null","null","null","","180","200","260","200","36000","52000","[1,2]","458.38976307216296","486.79672193858954","503.42792237229844"
"","canvas-keyboard-response","79","167743","0.0-6.0-3.10","535","","","","","rectangles with change","null","null","","","catch","l","sw","sh","186","242","168","211","161","168","trueblood","null","null","null","null","null","null","null","null","null","null","null","","180","200","260","200","36000","52000","[1,2]","458.38976307216296","486.79672193858954","503.42792237229844"
"","canvas-keyboard-response","80","167761","0.0-6.0-4.10","535","","","","","clear_screen","null","null","","","catch","l","sw","sh","186","242","168","211","161","168","trueblood","null","null","null","null","null","null","null","null","null","null","null","","180","200","260","200","36000","52000","[1,2]","458.38976307216296","486.79672193858954","503.42792237229844"
"","canvas-keyboard-response","81","168278","0.0-6.0-5.10","535","","","","","make choice","507","1","","","catch","l","sw","sh","186","242","168","211","161","168","trueblood","null","null","null","null","null","null","null","null","null","null","null","","180","200","260","200","36000","52000","[1,2]","","",""
"","canvas-keyboard-response","82","168297","0.0-6.0-6.10","535","","","","","clear_screen","null","null","","","catch","l","sw","sh","186","242","168","211","161","168","trueblood","null","null","null","null","null","null","null","null","null","null","null","","180","200","260","200","36000","52000","[1,2]","","",""
"","canvas-keyboard-response","83","168499","0.0-6.0-0.11","535","","","","","pre trial waiting period","null","null","","","catch","sh","l","sw","191","166","234","206","172","194","spektor","null","null","null","null","null","null","null","null","null","null","null","","180","200","260","200","36000","52000","[2,3]","510.1229014673203","139.2247804955474","516.8861019468922"
"","canvas-keyboard-response","84","168518","0.0-6.0-1.11","535","","","","","clear_screen","null","null","","","catch","sh","l","sw","191","166","234","206","172","194","spektor","null","null","null","null","null","null","null","null","null","null","null","","180","200","260","200","36000","52000","[2,3]","510.1229014673203","139.2247804955474","516.8861019468922"
"","canvas-keyboard-response","85","169030","0.0-6.0-2.11","535","","","","","rectangles no change","null","null","","","catch","sh","l","sw","191","166","234","206","172","194","spektor","null","null","null","null","null","null","null","null","null","null","null","","180","200","260","200","36000","52000","[2,3]","510.1229014673203","139.2247804955474","516.8861019468922"
"","canvas-keyboard-response","86","170366","0.0-6.0-3.11","535","","","","","rectangles with change","null","null","","","catch","sh","l","sw","191","166","234","206","172","194","spektor","null","null","null","null","null","null","null","null","null","null","null","","180","200","260","200","36000","52000","[2,3]","510.1229014673203","139.2247804955474","516.8861019468922"
"","canvas-keyboard-response","87","170384","0.0-6.0-4.11","535","","","","","clear_screen","null","null","","","catch","sh","l","sw","191","166","234","206","172","194","spektor","null","null","null","null","null","null","null","null","null","null","null","","180","200","260","200","36000","52000","[2,3]","510.1229014673203","139.2247804955474","516.8861019468922"
"","canvas-keyboard-response","88","171021","0.0-6.0-5.11","535","","","","","make choice","630","2","","","catch","sh","l","sw","191","166","234","206","172","194","spektor","null","null","null","null","null","null","null","null","null","null","null","","180","200","260","200","36000","52000","[2,3]","","",""
"","canvas-keyboard-response","89","171039","0.0-6.0-6.11","535","","","","","clear_screen","null","null","","","catch","sh","l","sw","191","166","234","206","172","194","spektor","null","null","null","null","null","null","null","null","null","null","null","","180","200","260","200","36000","52000","[2,3]","","",""
"","canvas-keyboard-response","90","171241","0.0-6.0-0.12","535","","","","","pre trial waiting period","null","null","","","critical","d","t","c","164","240","164","240","240","164","trueblood","0","h","164","240","240","164","164","240","39360","39360","39360","dc","null","null","null","null","null","null","[1,3]","429.45343087245055","432.8325174944345","480.6579692498033"
"","canvas-keyboard-response","91","171261","0.0-6.0-1.12","535","","","","","clear_screen","null","null","","","critical","d","t","c","164","240","164","240","240","164","trueblood","0","h","164","240","240","164","164","240","39360","39360","39360","dc","null","null","null","null","null","null","[1,3]","429.45343087245055","432.8325174944345","480.6579692498033"
"","canvas-keyboard-response","92","171771","0.0-6.0-2.12","535","","","","","rectangles no change","null","null","","","critical","d","t","c","164","240","164","240","240","164","trueblood","0","h","164","240","240","164","164","240","39360","39360","39360","dc","null","null","null","null","null","null","[1,3]","429.45343087245055","432.8325174944345","480.6579692498033"
"","canvas-keyboard-response","93","173107","0.0-6.0-3.12","535","","","","","rectangles with change","null","null","","","critical","d","t","c","164","240","164","240","240","164","trueblood","0","h","164","240","240","164","164","240","39360","39360","39360","dc","null","null","null","null","null","null","[1,3]","429.45343087245055","432.8325174944345","480.6579692498033"
"","canvas-keyboard-response","94","173125","0.0-6.0-4.12","535","","","","","clear_screen","null","null","","","critical","d","t","c","164","240","164","240","240","164","trueblood","0","h","164","240","240","164","164","240","39360","39360","39360","dc","null","null","null","null","null","null","[1,3]","429.45343087245055","432.8325174944345","480.6579692498033"
"","canvas-keyboard-response","95","173509","0.0-6.0-5.12","535","","","","","make choice","377","3","","","critical","d","t","c","164","240","164","240","240","164","trueblood","0","h","164","240","240","164","164","240","39360","39360","39360","dc","null","null","null","null","null","null","[1,3]","","",""
"","canvas-keyboard-response","96","173527","0.0-6.0-6.12","535","","","","","clear_screen","null","null","","","critical","d","t","c","164","240","164","240","240","164","trueblood","0","h","164","240","240","164","164","240","39360","39360","39360","dc","null","null","null","null","null","null","[1,3]","","",""
"","canvas-keyboard-response","97","173730","0.0-6.0-0.13","535","","","","","pre trial waiting period","null","null","","","critical","c","d","t","240","164","162.6685","237.1485","164","240","spektor","0.02","h","164","240","240","164","162.6685","237.1485","39360","39360","38576.5967","dc","null","null","null","null","null","null","[2,1]","511.7604154361124","122.11766003628249","489.1573085929687"
"","canvas-keyboard-response","98","173755","0.0-6.0-1.13","535","","","","","clear_screen","null","null","","","critical","c","d","t","240","164","162.6685","237.1485","164","240","spektor","0.02","h","164","240","240","164","162.6685","237.1485","39360","39360","38576.5967","dc","null","null","null","null","null","null","[2,1]","511.7604154361124","122.11766003628249","489.1573085929687"
"","canvas-keyboard-response","99","174267","0.0-6.0-2.13","535","","","","","rectangles no change","null","null","","","critical","c","d","t","240","164","162.6685","237.1485","164","240","spektor","0.02","h","164","240","240","164","162.6685","237.1485","39360","39360","38576.5967","dc","null","null","null","null","null","null","[2,1]","511.7604154361124","122.11766003628249","489.1573085929687"
"","canvas-keyboard-response","100","175602","0.0-6.0-3.13","535","","","","","rectangles with change","null","null","","","critical","c","d","t","240","164","162.6685","237.1485","164","240","spektor","0.02","h","164","240","240","164","162.6685","237.1485","39360","39360","38576.5967","dc","null","null","null","null","null","null","[2,1]","511.7604154361124","122.11766003628249","489.1573085929687"
"","canvas-keyboard-response","101","175621","0.0-6.0-4.13","535","","","","","clear_screen","null","null","","","critical","c","d","t","240","164","162.6685","237.1485","164","240","spektor","0.02","h","164","240","240","164","162.6685","237.1485","39360","39360","38576.5967","dc","null","null","null","null","null","null","[2,1]","511.7604154361124","122.11766003628249","489.1573085929687"
"","canvas-keyboard-response","102","175973","0.0-6.0-5.13","535","","","","","make choice","346","1","","","critical","c","d","t","240","164","162.6685","237.1485","164","240","spektor","0.02","h","164","240","240","164","162.6685","237.1485","39360","39360","38576.5967","dc","null","null","null","null","null","null","[2,1]","","",""
"","canvas-keyboard-response","103","175991","0.0-6.0-6.13","535","","","","","clear_screen","null","null","","","critical","c","d","t","240","164","162.6685","237.1485","164","240","spektor","0.02","h","164","240","240","164","162.6685","237.1485","39360","39360","38576.5967","dc","null","null","null","null","null","null","[2,1]","","",""
"","canvas-keyboard-response","104","176192","0.0-6.0-0.14","535","","","","","pre trial waiting period","null","null","","","catch","sh","l","sw","161","160","178","238","217","215","trueblood","null","null","null","null","null","null","null","null","null","null","null","","180","200","260","200","36000","52000","[2,3]","498.1623671234638","444.6191038884023","447.5177579520917"
"","canvas-keyboard-response","105","176212","0.0-6.0-1.14","535","","","","","clear_screen","null","null","","","catch","sh","l","sw","161","160","178","238","217","215","trueblood","null","null","null","null","null","null","null","null","null","null","null","","180","200","260","200","36000","52000","[2,3]","498.1623671234638","444.6191038884023","447.5177579520917"
"","canvas-keyboard-response","106","176722","0.0-6.0-2.14","535","","","","","rectangles no change","null","null","","","catch","sh","l","sw","161","160","178","238","217","215","trueblood","null","null","null","null","null","null","null","null","null","null","null","","180","200","260","200","36000","52000","[2,3]","498.1623671234638","444.6191038884023","447.5177579520917"
"","canvas-keyboard-response","107","178057","0.0-6.0-3.14","535","","","","","rectangles with change","null","null","","","catch","sh","l","sw","161","160","178","238","217","215","trueblood","null","null","null","null","null","null","null","null","null","null","null","","180","200","260","200","36000","52000","[2,3]","498.1623671234638","444.6191038884023","447.5177579520917"
"","canvas-keyboard-response","108","178076","0.0-6.0-4.14","535","","","","","clear_screen","null","null","","","catch","sh","l","sw","161","160","178","238","217","215","trueblood","null","null","null","null","null","null","null","null","null","null","null","","180","200","260","200","36000","52000","[2,3]","498.1623671234638","444.6191038884023","447.5177579520917"
"","canvas-keyboard-response","109","178653","0.0-6.0-5.14","535","","","","","make choice","570","3","","","catch","sh","l","sw","161","160","178","238","217","215","trueblood","null","null","null","null","null","null","null","null","null","null","null","","180","200","260","200","36000","52000","[2,3]","","",""
"","canvas-keyboard-response","110","178671","0.0-6.0-6.14","535","","","","","clear_screen","null","null","","","catch","sh","l","sw","161","160","178","238","217","215","trueblood","null","null","null","null","null","null","null","null","null","null","null","","180","200","260","200","36000","52000","[2,3]","","",""
"","canvas-keyboard-response","111","178873","0.0-6.0-0.15","535","","","","","pre trial waiting period","null","null","","","critical","d","c","t","232.8713","160.6713","164","240","240","164","spektor","0.05","w","240","164","164","240","232.8713","160.6713","39360","39360","37415.7294","dc","null","null","null","null","null","null","[1,2]","505.7135522373893","145.4567790589193","510.01993043513494"
"","canvas-keyboard-response","112","178891","0.0-6.0-1.15","535","","","","","clear_screen","null","null","","","critical","d","c","t","232.8713","160.6713","164","240","240","164","spektor","0.05","w","240","164","164","240","232.8713","160.6713","39360","39360","37415.7294","dc","null","null","null","null","null","null","[1,2]","505.7135522373893","145.4567790589193","510.01993043513494"
"","canvas-keyboard-response","113","179403","0.0-6.0-2.15","535","","","","","rectangles no change","null","null","","","critical","d","c","t","232.8713","160.6713","164","240","240","164","spektor","0.05","w","240","164","164","240","232.8713","160.6713","39360","39360","37415.7294","dc","null","null","null","null","null","null","[1,2]","505.7135522373893","145.4567790589193","510.01993043513494"
"","canvas-keyboard-response","114","180738","0.0-6.0-3.15","535","","","","","rectangles with change","null","null","","","critical","d","c","t","232.8713","160.6713","164","240","240","164","spektor","0.05","w","240","164","164","240","232.8713","160.6713","39360","39360","37415.7294","dc","null","null","null","null","null","null","[1,2]","505.7135522373893","145.4567790589193","510.01993043513494"
"","canvas-keyboard-response","115","180757","0.0-6.0-4.15","535","","","","","clear_screen","null","null","","","critical","d","c","t","232.8713","160.6713","164","240","240","164","spektor","0.05","w","240","164","164","240","232.8713","160.6713","39360","39360","37415.7294","dc","null","null","null","null","null","null","[1,2]","505.7135522373893","145.4567790589193","510.01993043513494"
"","canvas-keyboard-response","116","181237","0.0-6.0-5.15","535","","","","","make choice","474","1","","","critical","d","c","t","232.8713","160.6713","164","240","240","164","spektor","0.05","w","240","164","164","240","232.8713","160.6713","39360","39360","37415.7294","dc","null","null","null","null","null","null","[1,2]","","",""
"","canvas-keyboard-response","117","181255","0.0-6.0-6.15","535","","","","","clear_screen","null","null","","","critical","d","c","t","232.8713","160.6713","164","240","240","164","spektor","0.05","w","240","164","164","240","232.8713","160.6713","39360","39360","37415.7294","dc","null","null","null","null","null","null","[1,2]","","",""
"","canvas-keyboard-response","118","181456","0.0-6.0-0.16","535","","","","","pre trial waiting period","null","null","","","critical","t","d","c","164","240","164","240","240","164","spektor","0","h","164","240","240","164","164","240","39360","39360","39360","td","null","null","null","null","null","null","[1,2]","487.27424053947317","103.46988815285226","497.0999291477251"
"","canvas-keyboard-response","119","181476","0.0-6.0-1.16","535","","","","","clear_screen","null","null","","","critical","t","d","c","164","240","164","240","240","164","spektor","0","h","164","240","240","164","164","240","39360","39360","39360","td","null","null","null","null","null","null","[1,2]","487.27424053947317","103.46988815285226","497.0999291477251"
"","canvas-keyboard-response","120","181986","0.0-6.0-2.16","535","","","","","rectangles no change","null","null","","","critical","t","d","c","164","240","164","240","240","164","spektor","0","h","164","240","240","164","164","240","39360","39360","39360","td","null","null","null","null","null","null","[1,2]","487.27424053947317","103.46988815285226","497.0999291477251"
"","canvas-keyboard-response","121","183323","0.0-6.0-3.16","535","","","","","rectangles with change","null","null","","","critical","t","d","c","164","240","164","240","240","164","spektor","0","h","164","240","240","164","164","240","39360","39360","39360","td","null","null","null","null","null","null","[1,2]","487.27424053947317","103.46988815285226","497.0999291477251"
"","canvas-keyboard-response","122","183341","0.0-6.0-4.16","535","","","","","clear_screen","null","null","","","critical","t","d","c","164","240","164","240","240","164","spektor","0","h","164","240","240","164","164","240","39360","39360","39360","td","null","null","null","null","null","null","[1,2]","487.27424053947317","103.46988815285226","497.0999291477251"
"","canvas-keyboard-response","123","186286","0.0-6.0-5.16","535","","","","","make choice","2936","1","","","critical","t","d","c","164","240","164","240","240","164","spektor","0","h","164","240","240","164","164","240","39360","39360","39360","td","null","null","null","null","null","null","[1,2]","","",""
"","canvas-keyboard-response","124","186308","0.0-6.0-6.16","535","","","","","clear_screen","null","null","","","critical","t","d","c","164","240","164","240","240","164","spektor","0","h","164","240","240","164","164","240","39360","39360","39360","td","null","null","null","null","null","null","[1,2]","","",""
"","canvas-keyboard-response","125","186511","0.0-6.0-0.17","535","","","","","pre trial waiting period","null","null","","","critical","d","c","t","220.0396","154.6796","164","240","240","164","spektor","0.14","w","240","164","164","240","220.0396","154.6796","39360","39360","34035.6388","tc","null","null","null","null","null","null","[3,2]","543.5721537326478","158.9289278925383","510.0679471699691"
"","canvas-keyboard-response","126","186533","0.0-6.0-1.17","535","","","","","clear_screen","null","null","","","critical","d","c","t","220.0396","154.6796","164","240","240","164","spektor","0.14","w","240","164","164","240","220.0396","154.6796","39360","39360","34035.6388","tc","null","null","null","null","null","null","[3,2]","543.5721537326478","158.9289278925383","510.0679471699691"
"","canvas-keyboard-response","127","187043","0.0-6.0-2.17","535","","","","","rectangles no change","null","null","","","critical","d","c","t","220.0396","154.6796","164","240","240","164","spektor","0.14","w","240","164","164","240","220.0396","154.6796","39360","39360","34035.6388","tc","null","null","null","null","null","null","[3,2]","543.5721537326478","158.9289278925383","510.0679471699691"
"","canvas-keyboard-response","128","188380","0.0-6.0-3.17","535","","","","","rectangles with change","null","null","","","critical","d","c","t","220.0396","154.6796","164","240","240","164","spektor","0.14","w","240","164","164","240","220.0396","154.6796","39360","39360","34035.6388","tc","null","null","null","null","null","null","[3,2]","543.5721537326478","158.9289278925383","510.0679471699691"
"","canvas-keyboard-response","129","188399","0.0-6.0-4.17","535","","","","","clear_screen","null","null","","","critical","d","c","t","220.0396","154.6796","164","240","240","164","spektor","0.14","w","240","164","164","240","220.0396","154.6796","39360","39360","34035.6388","tc","null","null","null","null","null","null","[3,2]","543.5721537326478","158.9289278925383","510.0679471699691"
"","canvas-keyboard-response","130","189421","0.0-6.0-5.17","535","","","","","make choice","1015","3","","","critical","d","c","t","220.0396","154.6796","164","240","240","164","spektor","0.14","w","240","164","164","240","220.0396","154.6796","39360","39360","34035.6388","tc","null","null","null","null","null","null","[3,2]","","",""
"","canvas-keyboard-response","131","189441","0.0-6.0-6.17","535","","","","","clear_screen","null","null","","","critical","d","c","t","220.0396","154.6796","164","240","240","164","spektor","0.14","w","240","164","164","240","220.0396","154.6796","39360","39360","34035.6388","tc","null","null","null","null","null","null","[3,2]","","",""
"","canvas-keyboard-response","132","189641","0.0-6.0-0.18","535","","","","","pre trial waiting period","null","null","","","catch","sh","l","sw","170","173","255","228","171","228","spektor","null","null","null","null","null","null","null","null","null","null","null","","180","200","260","200","36000","52000","[2,3]","530.1222381402262","127.66318996723349","482.7605972076429"
"","canvas-keyboard-response","133","189663","0.0-6.0-1.18","535","","","","","clear_screen","null","null","","","catch","sh","l","sw","170","173","255","228","171","228","spektor","null","null","null","null","null","null","null","null","null","null","null","","180","200","260","200","36000","52000","[2,3]","530.1222381402262","127.66318996723349","482.7605972076429"
"","canvas-keyboard-response","134","190174","0.0-6.0-2.18","535","","","","","rectangles no change","null","null","","","catch","sh","l","sw","170","173","255","228","171","228","spektor","null","null","null","null","null","null","null","null","null","null","null","","180","200","260","200","36000","52000","[2,3]","530.1222381402262","127.66318996723349","482.7605972076429"
"","canvas-keyboard-response","135","191509","0.0-6.0-3.18","535","","","","","rectangles with change","null","null","","","catch","sh","l","sw","170","173","255","228","171","228","spektor","null","null","null","null","null","null","null","null","null","null","null","","180","200","260","200","36000","52000","[2,3]","530.1222381402262","127.66318996723349","482.7605972076429"
"","canvas-keyboard-response","136","191533","0.0-6.0-4.18","535","","","","","clear_screen","null","null","","","catch","sh","l","sw","170","173","255","228","171","228","spektor","null","null","null","null","null","null","null","null","null","null","null","","180","200","260","200","36000","52000","[2,3]","530.1222381402262","127.66318996723349","482.7605972076429"
"","canvas-keyboard-response","137","192429","0.0-6.0-5.18","535","","","","","make choice","889","2","","","catch","sh","l","sw","170","173","255","228","171","228","spektor","null","null","null","null","null","null","null","null","null","null","null","","180","200","260","200","36000","52000","[2,3]","","",""
"","canvas-keyboard-response","138","192448","0.0-6.0-6.18","535","","","","","clear_screen","null","null","","","catch","sh","l","sw","170","173","255","228","171","228","spektor","null","null","null","null","null","null","null","null","null","null","null","","180","200","260","200","36000","52000","[2,3]","","",""
"","canvas-keyboard-response","139","192649","0.0-6.0-0.19","535","","","","","pre trial waiting period","null","null","","","critical","t","d","c","240","164","237.1485","162.6685","164","240","spektor","0.02","w","240","164","164","240","237.1485","162.6685","39360","39360","38576.5967","td","null","null","null","null","null","null","[1,2]","526.2003967730902","211.62507828577827","484.3428161061792"
"","canvas-keyboard-response","140","192670","0.0-6.0-1.19","535","","","","","clear_screen","null","null","","","critical","t","d","c","240","164","237.1485","162.6685","164","240","spektor","0.02","w","240","164","164","240","237.1485","162.6685","39360","39360","38576.5967","td","null","null","null","null","null","null","[1,2]","526.2003967730902","211.62507828577827","484.3428161061792"
"","canvas-keyboard-response","141","193179","0.0-6.0-2.19","535","","","","","rectangles no change","null","null","","","critical","t","d","c","240","164","237.1485","162.6685","164","240","spektor","0.02","w","240","164","164","240","237.1485","162.6685","39360","39360","38576.5967","td","null","null","null","null","null","null","[1,2]","526.2003967730902","211.62507828577827","484.3428161061792"
"","canvas-keyboard-response","142","194515","0.0-6.0-3.19","535","","","","","rectangles with change","null","null","","","critical","t","d","c","240","164","237.1485","162.6685","164","240","spektor","0.02","w","240","164","164","240","237.1485","162.6685","39360","39360","38576.5967","td","null","null","null","null","null","null","[1,2]","526.2003967730902","211.62507828577827","484.3428161061792"
"","canvas-keyboard-response","143","194536","0.0-6.0-4.19","535","","","","","clear_screen","null","null","","","critical","t","d","c","240","164","237.1485","162.6685","164","240","spektor","0.02","w","240","164","164","240","237.1485","162.6685","39360","39360","38576.5967","td","null","null","null","null","null","null","[1,2]","526.2003967730902","211.62507828577827","484.3428161061792"
"","canvas-keyboard-response","144","195085","0.0-6.0-5.19","535","","","","","make choice","543","1","","","critical","t","d","c","240","164","237.1485","162.6685","164","240","spektor","0.02","w","240","164","164","240","237.1485","162.6685","39360","39360","38576.5967","td","null","null","null","null","null","null","[1,2]","","",""
"","canvas-keyboard-response","145","195104","0.0-6.0-6.19","535","","","","","clear_screen","null","null","","","critical","t","d","c","240","164","237.1485","162.6685","164","240","spektor","0.02","w","240","164","164","240","237.1485","162.6685","39360","39360","38576.5967","td","null","null","null","null","null","null","[1,2]","","",""
"","canvas-keyboard-response","146","195305","0.0-6.0-0.20","535","","","","","pre trial waiting period","null","null","","","critical","t","c","d","164","240","240","164","160.6713","232.8713","spektor","0.05","h","164","240","240","164","160.6713","232.8713","39360","39360","37415.7294","dc","null","null","null","null","null","null","[3,2]","498.30818675554036","170.24467284178434","482.9014576744782"
"","canvas-keyboard-response","147","195326","0.0-6.0-1.20","535","","","","","clear_screen","null","null","","","critical","t","c","d","164","240","240","164","160.6713","232.8713","spektor","0.05","h","164","240","240","164","160.6713","232.8713","39360","39360","37415.7294","dc","null","null","null","null","null","null","[3,2]","498.30818675554036","170.24467284178434","482.9014576744782"
"","canvas-keyboard-response","148","195837","0.0-6.0-2.20","535","","","","","rectangles no change","null","null","","","critical","t","c","d","164","240","240","164","160.6713","232.8713","spektor","0.05","h","164","240","240","164","160.6713","232.8713","39360","39360","37415.7294","dc","null","null","null","null","null","null","[3,2]","498.30818675554036","170.24467284178434","482.9014576744782"
"","canvas-keyboard-response","149","197174","0.0-6.0-3.20","535","","","","","rectangles with change","null","null","","","critical","t","c","d","164","240","240","164","160.6713","232.8713","spektor","0.05","h","164","240","240","164","160.6713","232.8713","39360","39360","37415.7294","dc","null","null","null","null","null","null","[3,2]","498.30818675554036","170.24467284178434","482.9014576744782"
"","canvas-keyboard-response","150","197192","0.0-6.0-4.20","535","","","","","clear_screen","null","null","","","critical","t","c","d","164","240","240","164","160.6713","232.8713","spektor","0.05","h","164","240","240","164","160.6713","232.8713","39360","39360","37415.7294","dc","null","null","null","null","null","null","[3,2]","498.30818675554036","170.24467284178434","482.9014576744782"
"","canvas-keyboard-response","151","197670","0.0-6.0-5.20","535","","","","","make choice","469","2","","","critical","t","c","d","164","240","240","164","160.6713","232.8713","spektor","0.05","h","164","240","240","164","160.6713","232.8713","39360","39360","37415.7294","dc","null","null","null","null","null","null","[3,2]","","",""
"","canvas-keyboard-response","152","197688","0.0-6.0-6.20","535","","","","","clear_screen","null","null","","","critical","t","c","d","164","240","240","164","160.6713","232.8713","spektor","0.05","h","164","240","240","164","160.6713","232.8713","39360","39360","37415.7294","dc","null","null","null","null","null","null","[3,2]","","",""
"","canvas-keyboard-response","153","197889","0.0-6.0-0.21","535","","","","","pre trial waiting period","null","null","","","catch","sh","l","sw","195","162","204","249","173","172","spektor","null","null","null","null","null","null","null","null","null","null","null","","180","200","260","200","36000","52000","[2,3]","534.83744888955","131.56744316212166","511.97815733521566"
"","canvas-keyboard-response","154","197908","0.0-6.0-1.21","535","","","","","clear_screen","null","null","","","catch","sh","l","sw","195","162","204","249","173","172","spektor","null","null","null","null","null","null","null","null","null","null","null","","180","200","260","200","36000","52000","[2,3]","534.83744888955","131.56744316212166","511.97815733521566"
"","canvas-keyboard-response","155","198423","0.0-6.0-2.21","535","","","","","rectangles no change","null","null","","","catch","sh","l","sw","195","162","204","249","173","172","spektor","null","null","null","null","null","null","null","null","null","null","null","","180","200","260","200","36000","52000","[2,3]","534.83744888955","131.56744316212166","511.97815733521566"
"","canvas-keyboard-response","156","199760","0.0-6.0-3.21","535","","","","","rectangles with change","null","null","","","catch","sh","l","sw","195","162","204","249","173","172","spektor","null","null","null","null","null","null","null","null","null","null","null","","180","200","260","200","36000","52000","[2,3]","534.83744888955","131.56744316212166","511.97815733521566"
"","canvas-keyboard-response","157","199780","0.0-6.0-4.21","535","","","","","clear_screen","null","null","","","catch","sh","l","sw","195","162","204","249","173","172","spektor","null","null","null","null","null","null","null","null","null","null","null","","180","200","260","200","36000","52000","[2,3]","534.83744888955","131.56744316212166","511.97815733521566"
"","canvas-keyboard-response","158","200013","0.0-6.0-5.21","535","","","","","make choice","224","2","","","catch","sh","l","sw","195","162","204","249","173","172","spektor","null","null","null","null","null","null","null","null","null","null","null","","180","200","260","200","36000","52000","[2,3]","","",""
"","canvas-keyboard-response","159","200032","0.0-6.0-6.21","535","","","","","clear_screen","null","null","","","catch","sh","l","sw","195","162","204","249","173","172","spektor","null","null","null","null","null","null","null","null","null","null","null","","180","200","260","200","36000","52000","[2,3]","","",""
"","canvas-keyboard-response","160","200233","0.0-6.0-0.22","535","","","","","pre trial waiting period","null","null","","","catch","sh","sw","l","184","174","182","219","201","289","trueblood","null","null","null","null","null","null","null","null","null","null","null","","180","200","260","200","36000","52000","[1,3]","497.7128938611189","474.6255460401743","392.0239118559787"
"","canvas-keyboard-response","161","200253","0.0-6.0-1.22","535","","","","","clear_screen","null","null","","","catch","sh","sw","l","184","174","182","219","201","289","trueblood","null","null","null","null","null","null","null","null","null","null","null","","180","200","260","200","36000","52000","[1,3]","497.7128938611189","474.6255460401743","392.0239118559787"
"","canvas-keyboard-response","162","200765","0.0-6.0-2.22","535","","","","","rectangles no change","null","null","","","catch","sh","sw","l","184","174","182","219","201","289","trueblood","null","null","null","null","null","null","null","null","null","null","null","","180","200","260","200","36000","52000","[1,3]","497.7128938611189","474.6255460401743","392.0239118559787"
"","canvas-keyboard-response","163","202100","0.0-6.0-3.22","535","","","","","rectangles with change","null","null","","","catch","sh","sw","l","184","174","182","219","201","289","trueblood","null","null","null","null","null","null","null","null","null","null","null","","180","200","260","200","36000","52000","[1,3]","497.7128938611189","474.6255460401743","392.0239118559787"
"","canvas-keyboard-response","164","202119","0.0-6.0-4.22","535","","","","","clear_screen","null","null","","","catch","sh","sw","l","184","174","182","219","201","289","trueblood","null","null","null","null","null","null","null","null","null","null","null","","180","200","260","200","36000","52000","[1,3]","497.7128938611189","474.6255460401743","392.0239118559787"
"","canvas-keyboard-response","165","202620","0.0-6.0-5.22","535","","","","","make choice","496","3","","","catch","sh","sw","l","184","174","182","219","201","289","trueblood","null","null","null","null","null","null","null","null","null","null","null","","180","200","260","200","36000","52000","[1,3]","","",""
"","canvas-keyboard-response","166","202639","0.0-6.0-6.22","535","","","","","clear_screen","null","null","","","catch","sh","sw","l","184","174","182","219","201","289","trueblood","null","null","null","null","null","null","null","null","null","null","null","","180","200","260","200","36000","52000","[1,3]","","",""
"","canvas-keyboard-response","167","202840","0.0-6.0-0.23","535","","","","","pre trial waiting period","null","null","","","critical","c","t","d","164","240","240","164","237.1485","162.6685","trueblood","0.02","w","240","164","164","240","237.1485","162.6685","39360","39360","38576.5967","dc","null","null","null","null","null","null","[3,1]","446.5568819277245","499.83418764114333","474.4009598991083"
"","canvas-keyboard-response","168","202860","0.0-6.0-1.23","535","","","","","clear_screen","null","null","","","critical","c","t","d","164","240","240","164","237.1485","162.6685","trueblood","0.02","w","240","164","164","240","237.1485","162.6685","39360","39360","38576.5967","dc","null","null","null","null","null","null","[3,1]","446.5568819277245","499.83418764114333","474.4009598991083"
"","canvas-keyboard-response","169","203370","0.0-6.0-2.23","535","","","","","rectangles no change","null","null","","","critical","c","t","d","164","240","240","164","237.1485","162.6685","trueblood","0.02","w","240","164","164","240","237.1485","162.6685","39360","39360","38576.5967","dc","null","null","null","null","null","null","[3,1]","446.5568819277245","499.83418764114333","474.4009598991083"
"","canvas-keyboard-response","170","204706","0.0-6.0-3.23","535","","","","","rectangles with change","null","null","","","critical","c","t","d","164","240","240","164","237.1485","162.6685","trueblood","0.02","w","240","164","164","240","237.1485","162.6685","39360","39360","38576.5967","dc","null","null","null","null","null","null","[3,1]","446.5568819277245","499.83418764114333","474.4009598991083"
"","canvas-keyboard-response","171","204724","0.0-6.0-4.23","535","","","","","clear_screen","null","null","","","critical","c","t","d","164","240","240","164","237.1485","162.6685","trueblood","0.02","w","240","164","164","240","237.1485","162.6685","39360","39360","38576.5967","dc","null","null","null","null","null","null","[3,1]","446.5568819277245","499.83418764114333","474.4009598991083"
"","canvas-keyboard-response","172","205309","0.0-6.0-5.23","535","","","","","make choice","577","3","","","critical","c","t","d","164","240","240","164","237.1485","162.6685","trueblood","0.02","w","240","164","164","240","237.1485","162.6685","39360","39360","38576.5967","dc","null","null","null","null","null","null","[3,1]","","",""
"","canvas-keyboard-response","173","205328","0.0-6.0-6.23","535","","","","","clear_screen","null","null","","","critical","c","t","d","164","240","240","164","237.1485","162.6685","trueblood","0.02","w","240","164","164","240","237.1485","162.6685","39360","39360","38576.5967","dc","null","null","null","null","null","null","[3,1]","","",""
"","canvas-keyboard-response","174","205530","0.0-6.0-0.24","535","","","","","pre trial waiting period","null","null","","","critical","t","d","c","164","240","160.6713","232.8713","240","164","trueblood","0.05","h","164","240","240","164","160.6713","232.8713","39360","39360","37415.7294","td","null","null","null","null","null","null","[1,2]","422.72393136295153","466.2405690256933","517.9262193234548"
"","canvas-keyboard-response","175","205549","0.0-6.0-1.24","535","","","","","clear_screen","null","null","","","critical","t","d","c","164","240","160.6713","232.8713","240","164","trueblood","0.05","h","164","240","240","164","160.6713","232.8713","39360","39360","37415.7294","td","null","null","null","null","null","null","[1,2]","422.72393136295153","466.2405690256933","517.9262193234548"
"","canvas-keyboard-response","176","206060","0.0-6.0-2.24","535","","","","","rectangles no change","null","null","","","critical","t","d","c","164","240","160.6713","232.8713","240","164","trueblood","0.05","h","164","240","240","164","160.6713","232.8713","39360","39360","37415.7294","td","null","null","null","null","null","null","[1,2]","422.72393136295153","466.2405690256933","517.9262193234548"
"","canvas-keyboard-response","177","207395","0.0-6.0-3.24","535","","","","","rectangles with change","null","null","","","critical","t","d","c","164","240","160.6713","232.8713","240","164","trueblood","0.05","h","164","240","240","164","160.6713","232.8713","39360","39360","37415.7294","td","null","null","null","null","null","null","[1,2]","422.72393136295153","466.2405690256933","517.9262193234548"
"","canvas-keyboard-response","178","207418","0.0-6.0-4.24","535","","","","","clear_screen","null","null","","","critical","t","d","c","164","240","160.6713","232.8713","240","164","trueblood","0.05","h","164","240","240","164","160.6713","232.8713","39360","39360","37415.7294","td","null","null","null","null","null","null","[1,2]","422.72393136295153","466.2405690256933","517.9262193234548"
"","canvas-keyboard-response","179","208861","0.0-6.0-5.24","535","","","","","make choice","1436","2","","","critical","t","d","c","164","240","160.6713","232.8713","240","164","trueblood","0.05","h","164","240","240","164","160.6713","232.8713","39360","39360","37415.7294","td","null","null","null","null","null","null","[1,2]","","",""
"","canvas-keyboard-response","180","208880","0.0-6.0-6.24","535","","","","","clear_screen","null","null","","","critical","t","d","c","164","240","160.6713","232.8713","240","164","trueblood","0.05","h","164","240","240","164","160.6713","232.8713","39360","39360","37415.7294","td","null","null","null","null","null","null","[1,2]","","",""
"","canvas-keyboard-response","181","209080","0.0-6.0-0.25","535","","","","","pre trial waiting period","null","null","","","critical","t","c","d","240","164","164","240","220.0396","154.6796","trueblood","0.14","w","240","164","164","240","220.0396","154.6796","39360","39360","34035.6388","dc","null","null","null","null","null","null","[3,2]","491.25523615220794","467.3998729719756","484.5969621689294"
"","canvas-keyboard-response","182","209101","0.0-6.0-1.25","535","","","","","clear_screen","null","null","","","critical","t","c","d","240","164","164","240","220.0396","154.6796","trueblood","0.14","w","240","164","164","240","220.0396","154.6796","39360","39360","34035.6388","dc","null","null","null","null","null","null","[3,2]","491.25523615220794","467.3998729719756","484.5969621689294"
"","canvas-keyboard-response","183","209611","0.0-6.0-2.25","535","","","","","rectangles no change","null","null","","","critical","t","c","d","240","164","164","240","220.0396","154.6796","trueblood","0.14","w","240","164","164","240","220.0396","154.6796","39360","39360","34035.6388","dc","null","null","null","null","null","null","[3,2]","491.25523615220794","467.3998729719756","484.5969621689294"
"","canvas-keyboard-response","184","210946","0.0-6.0-3.25","535","","","","","rectangles with change","null","null","","","critical","t","c","d","240","164","164","240","220.0396","154.6796","trueblood","0.14","w","240","164","164","240","220.0396","154.6796","39360","39360","34035.6388","dc","null","null","null","null","null","null","[3,2]","491.25523615220794","467.3998729719756","484.5969621689294"
"","canvas-keyboard-response","185","210964","0.0-6.0-4.25","535","","","","","clear_screen","null","null","","","critical","t","c","d","240","164","164","240","220.0396","154.6796","trueblood","0.14","w","240","164","164","240","220.0396","154.6796","39360","39360","34035.6388","dc","null","null","null","null","null","null","[3,2]","491.25523615220794","467.3998729719756","484.5969621689294"
"","canvas-keyboard-response","186","212101","0.0-6.0-5.25","535","","","","","make choice","1128","2","","","critical","t","c","d","240","164","164","240","220.0396","154.6796","trueblood","0.14","w","240","164","164","240","220.0396","154.6796","39360","39360","34035.6388","dc","null","null","null","null","null","null","[3,2]","","",""
"","canvas-keyboard-response","187","212119","0.0-6.0-6.25","535","","","","","clear_screen","null","null","","","critical","t","c","d","240","164","164","240","220.0396","154.6796","trueblood","0.14","w","240","164","164","240","220.0396","154.6796","39360","39360","34035.6388","dc","null","null","null","null","null","null","[3,2]","","",""
"","canvas-keyboard-response","188","212320","0.0-6.0-0.26","535","","","","","pre trial waiting period","null","null","","","catch","sw","l","sh","180","200","214","254","191","163","trueblood","null","null","null","null","null","null","null","null","null","null","null","","180","200","260","200","36000","52000","[1,2]","484.2596834671381","439.8287602040113","472.78817338440905"
"","canvas-keyboard-response","189","212339","0.0-6.0-1.26","535","","","","","clear_screen","null","null","","","catch","sw","l","sh","180","200","214","254","191","163","trueblood","null","null","null","null","null","null","null","null","null","null","null","","180","200","260","200","36000","52000","[1,2]","484.2596834671381","439.8287602040113","472.78817338440905"
"","canvas-keyboard-response","190","212849","0.0-6.0-2.26","535","","","","","rectangles no change","null","null","","","catch","sw","l","sh","180","200","214","254","191","163","trueblood","null","null","null","null","null","null","null","null","null","null","null","","180","200","260","200","36000","52000","[1,2]","484.2596834671381","439.8287602040113","472.78817338440905"
"","canvas-keyboard-response","191","214189","0.0-6.0-3.26","535","","","","","rectangles with change","null","null","","","catch","sw","l","sh","180","200","214","254","191","163","trueblood","null","null","null","null","null","null","null","null","null","null","null","","180","200","260","200","36000","52000","[1,2]","484.2596834671381","439.8287602040113","472.78817338440905"
"","canvas-keyboard-response","192","214207","0.0-6.0-4.26","535","","","","","clear_screen","null","null","","","catch","sw","l","sh","180","200","214","254","191","163","trueblood","null","null","null","null","null","null","null","null","null","null","null","","180","200","260","200","36000","52000","[1,2]","484.2596834671381","439.8287602040113","472.78817338440905"
"","canvas-keyboard-response","193","214445","0.0-6.0-5.26","535","","","","","make choice","229","2","","","catch","sw","l","sh","180","200","214","254","191","163","trueblood","null","null","null","null","null","null","null","null","null","null","null","","180","200","260","200","36000","52000","[1,2]","","",""
"","canvas-keyboard-response","194","214464","0.0-6.0-6.26","535","","","","","clear_screen","null","null","","","catch","sw","l","sh","180","200","214","254","191","163","trueblood","null","null","null","null","null","null","null","null","null","null","null","","180","200","260","200","36000","52000","[1,2]","","",""
"","canvas-keyboard-response","195","214665","0.0-6.0-0.27","535","","","","","pre trial waiting period","null","null","","","critical","c","d","t","164","240","232.8713","160.6713","240","164","trueblood","0.05","w","240","164","164","240","232.8713","160.6713","39360","39360","37415.7294","dc","null","null","null","null","null","null","[2,1]","455.63858351732364","472.2001399393514","492.8027095488871"
"","canvas-keyboard-response","196","214685","0.0-6.0-1.27","535","","","","","clear_screen","null","null","","","critical","c","d","t","164","240","232.8713","160.6713","240","164","trueblood","0.05","w","240","164","164","240","232.8713","160.6713","39360","39360","37415.7294","dc","null","null","null","null","null","null","[2,1]","455.63858351732364","472.2001399393514","492.8027095488871"
"","canvas-keyboard-response","197","215199","0.0-6.0-2.27","535","","","","","rectangles no change","null","null","","","critical","c","d","t","164","240","232.8713","160.6713","240","164","trueblood","0.05","w","240","164","164","240","232.8713","160.6713","39360","39360","37415.7294","dc","null","null","null","null","null","null","[2,1]","455.63858351732364","472.2001399393514","492.8027095488871"
"","canvas-keyboard-response","198","216535","0.0-6.0-3.27","535","","","","","rectangles with change","null","null","","","critical","c","d","t","164","240","232.8713","160.6713","240","164","trueblood","0.05","w","240","164","164","240","232.8713","160.6713","39360","39360","37415.7294","dc","null","null","null","null","null","null","[2,1]","455.63858351732364","472.2001399393514","492.8027095488871"
"","canvas-keyboard-response","199","216554","0.0-6.0-4.27","535","","","","","clear_screen","null","null","","","critical","c","d","t","164","240","232.8713","160.6713","240","164","trueblood","0.05","w","240","164","164","240","232.8713","160.6713","39360","39360","37415.7294","dc","null","null","null","null","null","null","[2,1]","455.63858351732364","472.2001399393514","492.8027095488871"
"","canvas-keyboard-response","200","216829","0.0-6.0-5.27","535","","","","","make choice","264","1","","","critical","c","d","t","164","240","232.8713","160.6713","240","164","trueblood","0.05","w","240","164","164","240","232.8713","160.6713","39360","39360","37415.7294","dc","null","null","null","null","null","null","[2,1]","","",""
"","canvas-keyboard-response","201","216847","0.0-6.0-6.27","535","","","","","clear_screen","null","null","","","critical","c","d","t","164","240","232.8713","160.6713","240","164","trueblood","0.05","w","240","164","164","240","232.8713","160.6713","39360","39360","37415.7294","dc","null","null","null","null","null","null","[2,1]","","",""
"","canvas-keyboard-response","202","217049","0.0-6.0-0.28","535","","","","","pre trial waiting period","null","null","","","critical","t","d","c","164","240","162.6685","237.1485","240","164","trueblood","0.02","h","164","240","240","164","162.6685","237.1485","39360","39360","38576.5967","tc","null","null","null","null","null","null","[1,3]","430.59653457263505","423.6797397076332","486.9751307834724"
"","canvas-keyboard-response","203","217069","0.0-6.0-1.28","535","","","","","clear_screen","null","null","","","critical","t","d","c","164","240","162.6685","237.1485","240","164","trueblood","0.02","h","164","240","240","164","162.6685","237.1485","39360","39360","38576.5967","tc","null","null","null","null","null","null","[1,3]","430.59653457263505","423.6797397076332","486.9751307834724"
"","canvas-keyboard-response","204","217581","0.0-6.0-2.28","535","","","","","rectangles no change","null","null","","","critical","t","d","c","164","240","162.6685","237.1485","240","164","trueblood","0.02","h","164","240","240","164","162.6685","237.1485","39360","39360","38576.5967","tc","null","null","null","null","null","null","[1,3]","430.59653457263505","423.6797397076332","486.9751307834724"
"","canvas-keyboard-response","205","218916","0.0-6.0-3.28","535","","","","","rectangles with change","null","null","","","critical","t","d","c","164","240","162.6685","237.1485","240","164","trueblood","0.02","h","164","240","240","164","162.6685","237.1485","39360","39360","38576.5967","tc","null","null","null","null","null","null","[1,3]","430.59653457263505","423.6797397076332","486.9751307834724"
"","canvas-keyboard-response","206","218934","0.0-6.0-4.28","535","","","","","clear_screen","null","null","","","critical","t","d","c","164","240","162.6685","237.1485","240","164","trueblood","0.02","h","164","240","240","164","162.6685","237.1485","39360","39360","38576.5967","tc","null","null","null","null","null","null","[1,3]","430.59653457263505","423.6797397076332","486.9751307834724"
"","canvas-keyboard-response","207","219349","0.0-6.0-5.28","535","","","","","make choice","407","3","","","critical","t","d","c","164","240","162.6685","237.1485","240","164","trueblood","0.02","h","164","240","240","164","162.6685","237.1485","39360","39360","38576.5967","tc","null","null","null","null","null","null","[1,3]","","",""
"","canvas-keyboard-response","208","219367","0.0-6.0-6.28","535","","","","","clear_screen","null","null","","","critical","t","d","c","164","240","162.6685","237.1485","240","164","trueblood","0.02","h","164","240","240","164","162.6685","237.1485","39360","39360","38576.5967","tc","null","null","null","null","null","null","[1,3]","","",""
"","canvas-keyboard-response","209","219568","0.0-6.0-0.29","535","","","","","pre trial waiting period","null","null","","","critical","t","d","c","240","164","240","164","164","240","trueblood","0","w","240","164","164","240","240","164","39360","39360","39360","tc","null","null","null","null","null","null","[1,3]","477.1292311972316","511.8572313821164","427.26508813105636"
"","canvas-keyboard-response","210","219587","0.0-6.0-1.29","535","","","","","clear_screen","null","null","","","critical","t","d","c","240","164","240","164","164","240","trueblood","0","w","240","164","164","240","240","164","39360","39360","39360","tc","null","null","null","null","null","null","[1,3]","477.1292311972316","511.8572313821164","427.26508813105636"
"","canvas-keyboard-response","211","220097","0.0-6.0-2.29","535","","","","","rectangles no change","null","null","","","critical","t","d","c","240","164","240","164","164","240","trueblood","0","w","240","164","164","240","240","164","39360","39360","39360","tc","null","null","null","null","null","null","[1,3]","477.1292311972316","511.8572313821164","427.26508813105636"
"","canvas-keyboard-response","212","221431","0.0-6.0-3.29","535","","","","","rectangles with change","null","null","","","critical","t","d","c","240","164","240","164","164","240","trueblood","0","w","240","164","164","240","240","164","39360","39360","39360","tc","null","null","null","null","null","null","[1,3]","477.1292311972316","511.8572313821164","427.26508813105636"
"","canvas-keyboard-response","213","221449","0.0-6.0-4.29","535","","","","","clear_screen","null","null","","","critical","t","d","c","240","164","240","164","164","240","trueblood","0","w","240","164","164","240","240","164","39360","39360","39360","tc","null","null","null","null","null","null","[1,3]","477.1292311972316","511.8572313821164","427.26508813105636"
"","canvas-keyboard-response","214","221909","0.0-6.0-5.29","535","","","","","make choice","447","1","","","critical","t","d","c","240","164","240","164","164","240","trueblood","0","w","240","164","164","240","240","164","39360","39360","39360","tc","null","null","null","null","null","null","[1,3]","","",""
"","canvas-keyboard-response","215","221927","0.0-6.0-6.29","535","","","","","clear_screen","null","null","","","critical","t","d","c","240","164","240","164","164","240","trueblood","0","w","240","164","164","240","240","164","39360","39360","39360","tc","null","null","null","null","null","null","[1,3]","","",""
"","canvas-keyboard-response","216","222129","0.0-6.0-0.30","535","","","","","pre trial waiting period","null","null","","","catch","l","sh","sw","268","196","217","196","174","199","spektor","null","null","null","null","null","null","null","null","null","null","null","","180","200","260","200","36000","52000","[1,2]","480.23661979756076","186.15337708579472","521.5763298263967"
"","canvas-keyboard-response","217","222150","0.0-6.0-1.30","535","","","","","clear_screen","null","null","","","catch","l","sh","sw","268","196","217","196","174","199","spektor","null","null","null","null","null","null","null","null","null","null","null","","180","200","260","200","36000","52000","[1,2]","480.23661979756076","186.15337708579472","521.5763298263967"
"","canvas-keyboard-response","218","222661","0.0-6.0-2.30","535","","","","","rectangles no change","null","null","","","catch","l","sh","sw","268","196","217","196","174","199","spektor","null","null","null","null","null","null","null","null","null","null","null","","180","200","260","200","36000","52000","[1,2]","480.23661979756076","186.15337708579472","521.5763298263967"
"","canvas-keyboard-response","219","223996","0.0-6.0-3.30","535","","","","","rectangles with change","null","null","","","catch","l","sh","sw","268","196","217","196","174","199","spektor","null","null","null","null","null","null","null","null","null","null","null","","180","200","260","200","36000","52000","[1,2]","480.23661979756076","186.15337708579472","521.5763298263967"
"","canvas-keyboard-response","220","224015","0.0-6.0-4.30","535","","","","","clear_screen","null","null","","","catch","l","sh","sw","268","196","217","196","174","199","spektor","null","null","null","null","null","null","null","null","null","null","null","","180","200","260","200","36000","52000","[1,2]","480.23661979756076","186.15337708579472","521.5763298263967"
"","canvas-keyboard-response","221","224437","0.0-6.0-5.30","535","","","","","make choice","413","1","","","catch","l","sh","sw","268","196","217","196","174","199","spektor","null","null","null","null","null","null","null","null","null","null","null","","180","200","260","200","36000","52000","[1,2]","","",""
"","canvas-keyboard-response","222","224455","0.0-6.0-6.30","535","","","","","clear_screen","null","null","","","catch","l","sh","sw","268","196","217","196","174","199","spektor","null","null","null","null","null","null","null","null","null","null","null","","180","200","260","200","36000","52000","[1,2]","","",""
"","canvas-keyboard-response","223","224658","0.0-6.0-0.31","535","","","","","pre trial waiting period","null","null","","","catch","sw","sh","l","180","200","161","197","283","229","trueblood","null","null","null","null","null","null","null","null","null","null","null","","180","200","260","200","36000","52000","[2,3]","456.80042607449144","478.2207777031269","430.22943017787065"
"","canvas-keyboard-response","224","224677","0.0-6.0-1.31","535","","","","","clear_screen","null","null","","","catch","sw","sh","l","180","200","161","197","283","229","trueblood","null","null","null","null","null","null","null","null","null","null","null","","180","200","260","200","36000","52000","[2,3]","456.80042607449144","478.2207777031269","430.22943017787065"
"","canvas-keyboard-response","225","225187","0.0-6.0-2.31","535","","","","","rectangles no change","null","null","","","catch","sw","sh","l","180","200","161","197","283","229","trueblood","null","null","null","null","null","null","null","null","null","null","null","","180","200","260","200","36000","52000","[2,3]","456.80042607449144","478.2207777031269","430.22943017787065"
"","canvas-keyboard-response","226","226523","0.0-6.0-3.31","535","","","","","rectangles with change","null","null","","","catch","sw","sh","l","180","200","161","197","283","229","trueblood","null","null","null","null","null","null","null","null","null","null","null","","180","200","260","200","36000","52000","[2,3]","456.80042607449144","478.2207777031269","430.22943017787065"
"","canvas-keyboard-response","227","226542","0.0-6.0-4.31","535","","","","","clear_screen","null","null","","","catch","sw","sh","l","180","200","161","197","283","229","trueblood","null","null","null","null","null","null","null","null","null","null","null","","180","200","260","200","36000","52000","[2,3]","456.80042607449144","478.2207777031269","430.22943017787065"
"","canvas-keyboard-response","228","226853","0.0-6.0-5.31","535","","","","","make choice","303","3","","","catch","sw","sh","l","180","200","161","197","283","229","trueblood","null","null","null","null","null","null","null","null","null","null","null","","180","200","260","200","36000","52000","[2,3]","","",""
"","canvas-keyboard-response","229","226871","0.0-6.0-6.31","535","","","","","clear_screen","null","null","","","catch","sw","sh","l","180","200","161","197","283","229","trueblood","null","null","null","null","null","null","null","null","null","null","null","","180","200","260","200","36000","52000","[2,3]","","",""
"","canvas-keyboard-response","230","227072","0.0-6.0-0.32","535","","","","","pre trial waiting period","null","null","","","catch","sw","sh","l","180","200","203","177","269","220","trueblood","null","null","null","null","null","null","null","null","null","null","null","","180","200","260","200","36000","52000","[2,3]","478.8911811627598","460.6789464538156","479.67431677275334"
"","canvas-keyboard-response","231","227092","0.0-6.0-1.32","535","","","","","clear_screen","null","null","","","catch","sw","sh","l","180","200","203","177","269","220","trueblood","null","null","null","null","null","null","null","null","null","null","null","","180","200","260","200","36000","52000","[2,3]","478.8911811627598","460.6789464538156","479.67431677275334"
"","canvas-keyboard-response","232","227603","0.0-6.0-2.32","535","","","","","rectangles no change","null","null","","","catch","sw","sh","l","180","200","203","177","269","220","trueblood","null","null","null","null","null","null","null","null","null","null","null","","180","200","260","200","36000","52000","[2,3]","478.8911811627598","460.6789464538156","479.67431677275334"
"","canvas-keyboard-response","233","228937","0.0-6.0-3.32","535","","","","","rectangles with change","null","null","","","catch","sw","sh","l","180","200","203","177","269","220","trueblood","null","null","null","null","null","null","null","null","null","null","null","","180","200","260","200","36000","52000","[2,3]","478.8911811627598","460.6789464538156","479.67431677275334"
"","canvas-keyboard-response","234","228955","0.0-6.0-4.32","535","","","","","clear_screen","null","null","","","catch","sw","sh","l","180","200","203","177","269","220","trueblood","null","null","null","null","null","null","null","null","null","null","null","","180","200","260","200","36000","52000","[2,3]","478.8911811627598","460.6789464538156","479.67431677275334"
"","canvas-keyboard-response","235","229125","0.0-6.0-5.32","535","","","","","make choice","163","3","","","catch","sw","sh","l","180","200","203","177","269","220","trueblood","null","null","null","null","null","null","null","null","null","null","null","","180","200","260","200","36000","52000","[2,3]","","",""
"","canvas-keyboard-response","236","229144","0.0-6.0-6.32","535","","","","","clear_screen","null","null","","","catch","sw","sh","l","180","200","203","177","269","220","trueblood","null","null","null","null","null","null","null","null","null","null","null","","180","200","260","200","36000","52000","[2,3]","","",""
"","canvas-keyboard-response","237","229344","0.0-6.0-0.33","535","","","","","pre trial waiting period","null","null","","","critical","c","d","t","240","164","154.6796","220.0396","164","240","spektor","0.14","h","164","240","240","164","154.6796","220.0396","39360","39360","34035.6388","dc","null","null","null","null","null","null","[2,1]","500.1687217326393","112.96267192271792","489.93471615157097"
"","canvas-keyboard-response","238","229368","0.0-6.0-1.33","535","","","","","clear_screen","null","null","","","critical","c","d","t","240","164","154.6796","220.0396","164","240","spektor","0.14","h","164","240","240","164","154.6796","220.0396","39360","39360","34035.6388","dc","null","null","null","null","null","null","[2,1]","500.1687217326393","112.96267192271792","489.93471615157097"
"","canvas-keyboard-response","239","229884","0.0-6.0-2.33","535","","","","","rectangles no change","null","null","","","critical","c","d","t","240","164","154.6796","220.0396","164","240","spektor","0.14","h","164","240","240","164","154.6796","220.0396","39360","39360","34035.6388","dc","null","null","null","null","null","null","[2,1]","500.1687217326393","112.96267192271792","489.93471615157097"
"","canvas-keyboard-response","240","231219","0.0-6.0-3.33","535","","","","","rectangles with change","null","null","","","critical","c","d","t","240","164","154.6796","220.0396","164","240","spektor","0.14","h","164","240","240","164","154.6796","220.0396","39360","39360","34035.6388","dc","null","null","null","null","null","null","[2,1]","500.1687217326393","112.96267192271792","489.93471615157097"
"","canvas-keyboard-response","241","231238","0.0-6.0-4.33","535","","","","","clear_screen","null","null","","","critical","c","d","t","240","164","154.6796","220.0396","164","240","spektor","0.14","h","164","240","240","164","154.6796","220.0396","39360","39360","34035.6388","dc","null","null","null","null","null","null","[2,1]","500.1687217326393","112.96267192271792","489.93471615157097"
"","canvas-keyboard-response","242","235069","0.0-6.0-5.33","535","","","","","make choice","3826","1","","","critical","c","d","t","240","164","154.6796","220.0396","164","240","spektor","0.14","h","164","240","240","164","154.6796","220.0396","39360","39360","34035.6388","dc","null","null","null","null","null","null","[2,1]","","",""
"","canvas-keyboard-response","243","235087","0.0-6.0-6.33","535","","","","","clear_screen","null","null","","","critical","c","d","t","240","164","154.6796","220.0396","164","240","spektor","0.14","h","164","240","240","164","154.6796","220.0396","39360","39360","34035.6388","dc","null","null","null","null","null","null","[2,1]","","",""
"","canvas-keyboard-response","244","235289","0.0-6.0-0.34","535","","","","","pre trial waiting period","null","null","","","critical","t","c","d","240","164","164","240","220.0396","154.6796","trueblood","0.14","w","240","164","164","240","220.0396","154.6796","39360","39360","34035.6388","td","null","null","null","null","null","null","[1,3]","509.7032571389051","455.7812235873061","512.1681754795399"
"","canvas-keyboard-response","245","235308","0.0-6.0-1.34","535","","","","","clear_screen","null","null","","","critical","t","c","d","240","164","164","240","220.0396","154.6796","trueblood","0.14","w","240","164","164","240","220.0396","154.6796","39360","39360","34035.6388","td","null","null","null","null","null","null","[1,3]","509.7032571389051","455.7812235873061","512.1681754795399"
"","canvas-keyboard-response","246","235818","0.0-6.0-2.34","535","","","","","rectangles no change","null","null","","","critical","t","c","d","240","164","164","240","220.0396","154.6796","trueblood","0.14","w","240","164","164","240","220.0396","154.6796","39360","39360","34035.6388","td","null","null","null","null","null","null","[1,3]","509.7032571389051","455.7812235873061","512.1681754795399"
"","canvas-keyboard-response","247","237153","0.0-6.0-3.34","535","","","","","rectangles with change","null","null","","","critical","t","c","d","240","164","164","240","220.0396","154.6796","trueblood","0.14","w","240","164","164","240","220.0396","154.6796","39360","39360","34035.6388","td","null","null","null","null","null","null","[1,3]","509.7032571389051","455.7812235873061","512.1681754795399"
"","canvas-keyboard-response","248","237171","0.0-6.0-4.34","535","","","","","clear_screen","null","null","","","critical","t","c","d","240","164","164","240","220.0396","154.6796","trueblood","0.14","w","240","164","164","240","220.0396","154.6796","39360","39360","34035.6388","td","null","null","null","null","null","null","[1,3]","509.7032571389051","455.7812235873061","512.1681754795399"
"","canvas-keyboard-response","249","237813","0.0-6.0-5.34","535","","","","","make choice","634","1","","","critical","t","c","d","240","164","164","240","220.0396","154.6796","trueblood","0.14","w","240","164","164","240","220.0396","154.6796","39360","39360","34035.6388","td","null","null","null","null","null","null","[1,3]","","",""
"","canvas-keyboard-response","250","237832","0.0-6.0-6.34","535","","","","","clear_screen","null","null","","","critical","t","c","d","240","164","164","240","220.0396","154.6796","trueblood","0.14","w","240","164","164","240","220.0396","154.6796","39360","39360","34035.6388","td","null","null","null","null","null","null","[1,3]","","",""
"","canvas-keyboard-response","251","238034","0.0-6.0-0.35","535","","","","","pre trial waiting period","null","null","","","critical","c","d","t","164","240","232.8713","160.6713","240","164","trueblood","0.05","w","240","164","164","240","232.8713","160.6713","39360","39360","37415.7294","tc","null","null","null","null","null","null","[3,1]","432.03739550946597","477.31840053481403","483.9998543722056"
"","canvas-keyboard-response","252","238057","0.0-6.0-1.35","535","","","","","clear_screen","null","null","","","critical","c","d","t","164","240","232.8713","160.6713","240","164","trueblood","0.05","w","240","164","164","240","232.8713","160.6713","39360","39360","37415.7294","tc","null","null","null","null","null","null","[3,1]","432.03739550946597","477.31840053481403","483.9998543722056"
"","canvas-keyboard-response","253","238570","0.0-6.0-2.35","535","","","","","rectangles no change","null","null","","","critical","c","d","t","164","240","232.8713","160.6713","240","164","trueblood","0.05","w","240","164","164","240","232.8713","160.6713","39360","39360","37415.7294","tc","null","null","null","null","null","null","[3,1]","432.03739550946597","477.31840053481403","483.9998543722056"
"","canvas-keyboard-response","254","239909","0.0-6.0-3.35","535","","","","","rectangles with change","null","null","","","critical","c","d","t","164","240","232.8713","160.6713","240","164","trueblood","0.05","w","240","164","164","240","232.8713","160.6713","39360","39360","37415.7294","tc","null","null","null","null","null","null","[3,1]","432.03739550946597","477.31840053481403","483.9998543722056"
"","canvas-keyboard-response","255","239929","0.0-6.0-4.35","535","","","","","clear_screen","null","null","","","critical","c","d","t","164","240","232.8713","160.6713","240","164","trueblood","0.05","w","240","164","164","240","232.8713","160.6713","39360","39360","37415.7294","tc","null","null","null","null","null","null","[3,1]","432.03739550946597","477.31840053481403","483.9998543722056"
"","canvas-keyboard-response","256","241453","0.0-6.0-5.35","535","","","","","make choice","1516","3","","","critical","c","d","t","164","240","232.8713","160.6713","240","164","trueblood","0.05","w","240","164","164","240","232.8713","160.6713","39360","39360","37415.7294","tc","null","null","null","null","null","null","[3,1]","","",""
"","canvas-keyboard-response","257","241472","0.0-6.0-6.35","535","","","","","clear_screen","null","null","","","critical","c","d","t","164","240","232.8713","160.6713","240","164","trueblood","0.05","w","240","164","164","240","232.8713","160.6713","39360","39360","37415.7294","tc","null","null","null","null","null","null","[3,1]","","",""
"","canvas-keyboard-response","258","241674","0.0-6.0-0.36","535","","","","","pre trial waiting period","null","null","","","critical","c","t","d","240","164","164","240","158.0083","227.1683","spektor","0.09","h","164","240","240","164","158.0083","227.1683","39360","39360","35894.4834","tc","null","null","null","null","null","null","[2,1]","525.5519236526981","138.92744316240137","501.3289243721597"
"","canvas-keyboard-response","259","241697","0.0-6.0-1.36","535","","","","","clear_screen","null","null","","","critical","c","t","d","240","164","164","240","158.0083","227.1683","spektor","0.09","h","164","240","240","164","158.0083","227.1683","39360","39360","35894.4834","tc","null","null","null","null","null","null","[2,1]","525.5519236526981","138.92744316240137","501.3289243721597"
"","canvas-keyboard-response","260","242207","0.0-6.0-2.36","535","","","","","rectangles no change","null","null","","","critical","c","t","d","240","164","164","240","158.0083","227.1683","spektor","0.09","h","164","240","240","164","158.0083","227.1683","39360","39360","35894.4834","tc","null","null","null","null","null","null","[2,1]","525.5519236526981","138.92744316240137","501.3289243721597"
"","canvas-keyboard-response","261","243544","0.0-6.0-3.36","535","","","","","rectangles with change","null","null","","","critical","c","t","d","240","164","164","240","158.0083","227.1683","spektor","0.09","h","164","240","240","164","158.0083","227.1683","39360","39360","35894.4834","tc","null","null","null","null","null","null","[2,1]","525.5519236526981","138.92744316240137","501.3289243721597"
"","canvas-keyboard-response","262","243564","0.0-6.0-4.36","535","","","","","clear_screen","null","null","","","critical","c","t","d","240","164","164","240","158.0083","227.1683","spektor","0.09","h","164","240","240","164","158.0083","227.1683","39360","39360","35894.4834","tc","null","null","null","null","null","null","[2,1]","525.5519236526981","138.92744316240137","501.3289243721597"
"","canvas-keyboard-response","263","244333","0.0-6.0-5.36","535","","","","","make choice","759","1","","","critical","c","t","d","240","164","164","240","158.0083","227.1683","spektor","0.09","h","164","240","240","164","158.0083","227.1683","39360","39360","35894.4834","tc","null","null","null","null","null","null","[2,1]","","",""
"","canvas-keyboard-response","264","244352","0.0-6.0-6.36","535","","","","","clear_screen","null","null","","","critical","c","t","d","240","164","164","240","158.0083","227.1683","spektor","0.09","h","164","240","240","164","158.0083","227.1683","39360","39360","35894.4834","tc","null","null","null","null","null","null","[2,1]","","",""
"","canvas-keyboard-response","265","244552","0.0-6.0-0.37","535","","","","","pre trial waiting period","null","null","","","critical","d","t","c","164","240","164","240","240","164","trueblood","0","h","164","240","240","164","164","240","39360","39360","39360","td","null","null","null","null","null","null","[2,1]","465.56611184942454","454.47459799906585","509.7597029151596"
"","canvas-keyboard-response","266","244573","0.0-6.0-1.37","535","","","","","clear_screen","null","null","","","critical","d","t","c","164","240","164","240","240","164","trueblood","0","h","164","240","240","164","164","240","39360","39360","39360","td","null","null","null","null","null","null","[2,1]","465.56611184942454","454.47459799906585","509.7597029151596"
"","canvas-keyboard-response","267","245085","0.0-6.0-2.37","535","","","","","rectangles no change","null","null","","","critical","d","t","c","164","240","164","240","240","164","trueblood","0","h","164","240","240","164","164","240","39360","39360","39360","td","null","null","null","null","null","null","[2,1]","465.56611184942454","454.47459799906585","509.7597029151596"
