"success","trial_type","trial_index","time_elapsed","internal_node_id","sub_n","timeout","failed_images","failed_audio","failed_video","screen_id","rt","response","stimulus","view_history","trial","r1","r2","r3","w1","h1","w2","h2","w3","h3","display","tdd","tdo","tw","th","cw","ch","dw","dh","ta","ca","da","probe","csls","csss","clls","clss","sa","la","probe_rects","r1yloc","r2yloc","r3yloc"
"true","fullscreen","0","1731","0.0-0.0","579","","","","","","","","","","","","","","","","","","","","","","","","","","","","","","","","","","","","","","","","","",""
"true","preload","1","1766","0.0-1.0","579","false","[]","[]","[]","img preload","","","","","","","","","","","","","","","","","","","","","","","","","","","","","","","","","","","","",""
"","survey-html-form","2","3721","0.0-2.0","579","","","","","enter-sub-number","1942","{""response"":""579""}","","","","","","","","","","","","","","","","","","","","","","","","","","","","","","","","","","",""
"","image-button-response","3","22974","0.0-3.0","579","","","","","","19142","0","consent.png","","","","","","","","","","","","","","","","","","","","","","","","","","","","","","","","","",""
"","html-button-response","4","27405","0.0-4.0","579","","","","","intro mssg","4427","0","<div style= ""font-size:25px;"" <p> <strong> Welcome! </strong><br> <p style=""color:#8B0000; font-size:25px;""><strong> Please do NOT exit full screen until you are done with the experiment. </strong> </p><p style=""font-size:25px;color:#8B0000;""> <strong> Your data will be lost <br> if you try to go back or refresh the page after the experiment starts. Feel free to click ""previous"" during the instructions, however.</strong> </p><br><p> <strong> Thanks in advance for your contribution to our research! </strong></p>","","","","","","","","","","","","","","","","","","","","","","","","","","","","","","","","","",""
"","instructions","5","73478","0.0-5.0","579","","","","","instructions","46068","","","[{""page_index"":0,""viewing_time"":8075},{""page_index"":1,""viewing_time"":6304},{""page_index"":2,""viewing_time"":4016},{""page_index"":3,""viewing_time"":14040},{""page_index"":4,""viewing_time"":7344},{""page_index"":5,""viewing_time"":2136},{""page_index"":6,""viewing_time"":2776},{""page_index"":7,""viewing_time"":1376}]","","","","","","","","","","","","","","","","","","","","","","","","","","","","","","","","",""
"","canvas-keyboard-response","6","73683","0.0-6.0-0.0","579","","","","","pre trial waiting period","null","null","","","critical","c","d","t","240","164","164","240","164","240","trueblood","0","h","164","240","240","164","164","240","39360","39360","39360","td","null","null","null","null","null","null","[3,2]","507.2983252759861","435.1559202769828","456.37741617620304"
"","canvas-keyboard-response","7","73708","0.0-6.0-1.0","579","","","","","clear_screen","null","null","","","critical","c","d","t","240","164","164","240","164","240","trueblood","0","h","164","240","240","164","164","240","39360","39360","39360","td","null","null","null","null","null","null","[3,2]","507.2983252759861","435.1559202769828","456.37741617620304"
"","canvas-keyboard-response","8","74225","0.0-6.0-2.0","579","","","","","rectangles no change","null","null","","","critical","c","d","t","240","164","164","240","164","240","trueblood","0","h","164","240","240","164","164","240","39360","39360","39360","td","null","null","null","null","null","null","[3,2]","507.2983252759861","435.1559202769828","456.37741617620304"
"","canvas-keyboard-response","9","75563","0.0-6.0-3.0","579","","","","","rectangles with change","null","null","","","critical","c","d","t","240","164","164","240","164","240","trueblood","0","h","164","240","240","164","164","240","39360","39360","39360","td","null","null","null","null","null","null","[3,2]","507.2983252759861","435.1559202769828","456.37741617620304"
"","canvas-keyboard-response","10","75583","0.0-6.0-4.0","579","","","","","clear_screen","null","null","","","critical","c","d","t","240","164","164","240","164","240","trueblood","0","h","164","240","240","164","164","240","39360","39360","39360","td","null","null","null","null","null","null","[3,2]","507.2983252759861","435.1559202769828","456.37741617620304"
"","canvas-keyboard-response","11","76651","0.0-6.0-5.0","579","","","","","make choice","1059","2","","","critical","c","d","t","240","164","164","240","164","240","trueblood","0","h","164","240","240","164","164","240","39360","39360","39360","td","null","null","null","null","null","null","[3,2]","","",""
"","canvas-keyboard-response","12","76671","0.0-6.0-6.0","579","","","","","clear_screen","null","null","","","critical","c","d","t","240","164","164","240","164","240","trueblood","0","h","164","240","240","164","164","240","39360","39360","39360","td","null","null","null","null","null","null","[3,2]","","",""
"","canvas-keyboard-response","13","76872","0.0-6.0-0.1","579","","","","","pre trial waiting period","null","null","","","catch","sw","sh","l","180","200","215","185","193","274","trueblood","null","null","null","null","null","null","null","null","null","null","null","","180","200","260","200","36000","52000","[2,3]","478.05857201499504","457.87462899176285","413.2781915093153"
"","canvas-keyboard-response","14","76893","0.0-6.0-1.1","579","","","","","clear_screen","null","null","","","catch","sw","sh","l","180","200","215","185","193","274","trueblood","null","null","null","null","null","null","null","null","null","null","null","","180","200","260","200","36000","52000","[2,3]","478.05857201499504","457.87462899176285","413.2781915093153"
"","canvas-keyboard-response","15","77404","0.0-6.0-2.1","579","","","","","rectangles no change","null","null","","","catch","sw","sh","l","180","200","215","185","193","274","trueblood","null","null","null","null","null","null","null","null","null","null","null","","180","200","260","200","36000","52000","[2,3]","478.05857201499504","457.87462899176285","413.2781915093153"
"","canvas-keyboard-response","16","78739","0.0-6.0-3.1","579","","","","","rectangles with change","null","null","","","catch","sw","sh","l","180","200","215","185","193","274","trueblood","null","null","null","null","null","null","null","null","null","null","null","","180","200","260","200","36000","52000","[2,3]","478.05857201499504","457.87462899176285","413.2781915093153"
"","canvas-keyboard-response","17","78763","0.0-6.0-4.1","579","","","","","clear_screen","null","null","","","catch","sw","sh","l","180","200","215","185","193","274","trueblood","null","null","null","null","null","null","null","null","null","null","null","","180","200","260","200","36000","52000","[2,3]","478.05857201499504","457.87462899176285","413.2781915093153"
"","canvas-keyboard-response","18","79530","0.0-6.0-5.1","579","","","","","make choice","759","3","","","catch","sw","sh","l","180","200","215","185","193","274","trueblood","null","null","null","null","null","null","null","null","null","null","null","","180","200","260","200","36000","52000","[2,3]","","",""
"","canvas-keyboard-response","19","79549","0.0-6.0-6.1","579","","","","","clear_screen","null","null","","","catch","sw","sh","l","180","200","215","185","193","274","trueblood","null","null","null","null","null","null","null","null","null","null","null","","180","200","260","200","36000","52000","[2,3]","","",""
"","canvas-keyboard-response","20","79751","0.0-6.0-0.2","579","","","","","pre trial waiting period","null","null","","","critical","t","c","d","164","240","240","164","158.0083","227.1683","spektor","0.09","h","164","240","240","164","158.0083","227.1683","39360","39360","35894.4834","tc","null","null","null","null","null","null","[1,2]","464.6052926964618","178.98010346971668","463.31852287767595"
"","canvas-keyboard-response","21","79771","0.0-6.0-1.2","579","","","","","clear_screen","null","null","","","critical","t","c","d","164","240","240","164","158.0083","227.1683","spektor","0.09","h","164","240","240","164","158.0083","227.1683","39360","39360","35894.4834","tc","null","null","null","null","null","null","[1,2]","464.6052926964618","178.98010346971668","463.31852287767595"
"","canvas-keyboard-response","22","80285","0.0-6.0-2.2","579","","","","","rectangles no change","null","null","","","critical","t","c","d","164","240","240","164","158.0083","227.1683","spektor","0.09","h","164","240","240","164","158.0083","227.1683","39360","39360","35894.4834","tc","null","null","null","null","null","null","[1,2]","464.6052926964618","178.98010346971668","463.31852287767595"
"","canvas-keyboard-response","23","81621","0.0-6.0-3.2","579","","","","","rectangles with change","null","null","","","critical","t","c","d","164","240","240","164","158.0083","227.1683","spektor","0.09","h","164","240","240","164","158.0083","227.1683","39360","39360","35894.4834","tc","null","null","null","null","null","null","[1,2]","464.6052926964618","178.98010346971668","463.31852287767595"
"","canvas-keyboard-response","24","81641","0.0-6.0-4.2","579","","","","","clear_screen","null","null","","","critical","t","c","d","164","240","240","164","158.0083","227.1683","spektor","0.09","h","164","240","240","164","158.0083","227.1683","39360","39360","35894.4834","tc","null","null","null","null","null","null","[1,2]","464.6052926964618","178.98010346971668","463.31852287767595"
"","canvas-keyboard-response","25","82347","0.0-6.0-5.2","579","","","","","make choice","697","2","","","critical","t","c","d","164","240","240","164","158.0083","227.1683","spektor","0.09","h","164","240","240","164","158.0083","227.1683","39360","39360","35894.4834","tc","null","null","null","null","null","null","[1,2]","","",""
"","canvas-keyboard-response","26","82366","0.0-6.0-6.2","579","","","","","clear_screen","null","null","","","critical","t","c","d","164","240","240","164","158.0083","227.1683","spektor","0.09","h","164","240","240","164","158.0083","227.1683","39360","39360","35894.4834","tc","null","null","null","null","null","null","[1,2]","","",""
"","canvas-keyboard-response","27","82567","0.0-6.0-0.3","579","","","","","pre trial waiting period","null","null","","","critical","t","c","d","240","164","164","240","220.0396","154.6796","spektor","0.14","w","240","164","164","240","220.0396","154.6796","39360","39360","34035.6388","tc","null","null","null","null","null","null","[1,2]","512.4596885590482","115.81180080789947","532.6294395065195"
"","canvas-keyboard-response","28","82586","0.0-6.0-1.3","579","","","","","clear_screen","null","null","","","critical","t","c","d","240","164","164","240","220.0396","154.6796","spektor","0.14","w","240","164","164","240","220.0396","154.6796","39360","39360","34035.6388","tc","null","null","null","null","null","null","[1,2]","512.4596885590482","115.81180080789947","532.6294395065195"
"","canvas-keyboard-response","29","83100","0.0-6.0-2.3","579","","","","","rectangles no change","null","null","","","critical","t","c","d","240","164","164","240","220.0396","154.6796","spektor","0.14","w","240","164","164","240","220.0396","154.6796","39360","39360","34035.6388","tc","null","null","null","null","null","null","[1,2]","512.4596885590482","115.81180080789947","532.6294395065195"
"","canvas-keyboard-response","30","84437","0.0-6.0-3.3","579","","","","","rectangles with change","null","null","","","critical","t","c","d","240","164","164","240","220.0396","154.6796","spektor","0.14","w","240","164","164","240","220.0396","154.6796","39360","39360","34035.6388","tc","null","null","null","null","null","null","[1,2]","512.4596885590482","115.81180080789947","532.6294395065195"
"","canvas-keyboard-response","31","84456","0.0-6.0-4.3","579","","","","","clear_screen","null","null","","","critical","t","c","d","240","164","164","240","220.0396","154.6796","spektor","0.14","w","240","164","164","240","220.0396","154.6796","39360","39360","34035.6388","tc","null","null","null","null","null","null","[1,2]","512.4596885590482","115.81180080789947","532.6294395065195"
"","canvas-keyboard-response","32","85219","0.0-6.0-5.3","579","","","","","make choice","755","1","","","critical","t","c","d","240","164","164","240","220.0396","154.6796","spektor","0.14","w","240","164","164","240","220.0396","154.6796","39360","39360","34035.6388","tc","null","null","null","null","null","null","[1,2]","","",""
"","canvas-keyboard-response","33","85238","0.0-6.0-6.3","579","","","","","clear_screen","null","null","","","critical","t","c","d","240","164","164","240","220.0396","154.6796","spektor","0.14","w","240","164","164","240","220.0396","154.6796","39360","39360","34035.6388","tc","null","null","null","null","null","null","[1,2]","","",""
"","canvas-keyboard-response","34","85439","0.0-6.0-0.4","579","","","","","pre trial waiting period","null","null","","","critical","c","d","t","164","240","240","164","240","164","trueblood","0","w","240","164","164","240","240","164","39360","39360","39360","dc","null","null","null","null","null","null","[2,1]","458.3509681327169","507.189881498967","512.0544414233236"
"","canvas-keyboard-response","35","85458","0.0-6.0-1.4","579","","","","","clear_screen","null","null","","","critical","c","d","t","164","240","240","164","240","164","trueblood","0","w","240","164","164","240","240","164","39360","39360","39360","dc","null","null","null","null","null","null","[2,1]","458.3509681327169","507.189881498967","512.0544414233236"
"","canvas-keyboard-response","36","85969","0.0-6.0-2.4","579","","","","","rectangles no change","null","null","","","critical","c","d","t","164","240","240","164","240","164","trueblood","0","w","240","164","164","240","240","164","39360","39360","39360","dc","null","null","null","null","null","null","[2,1]","458.3509681327169","507.189881498967","512.0544414233236"
"","canvas-keyboard-response","37","87303","0.0-6.0-3.4","579","","","","","rectangles with change","null","null","","","critical","c","d","t","164","240","240","164","240","164","trueblood","0","w","240","164","164","240","240","164","39360","39360","39360","dc","null","null","null","null","null","null","[2,1]","458.3509681327169","507.189881498967","512.0544414233236"
"","canvas-keyboard-response","38","87321","0.0-6.0-4.4","579","","","","","clear_screen","null","null","","","critical","c","d","t","164","240","240","164","240","164","trueblood","0","w","240","164","164","240","240","164","39360","39360","39360","dc","null","null","null","null","null","null","[2,1]","458.3509681327169","507.189881498967","512.0544414233236"
"","canvas-keyboard-response","39","88099","0.0-6.0-5.4","579","","","","","make choice","769","2","","","critical","c","d","t","164","240","240","164","240","164","trueblood","0","w","240","164","164","240","240","164","39360","39360","39360","dc","null","null","null","null","null","null","[2,1]","","",""
"","canvas-keyboard-response","40","88118","0.0-6.0-6.4","579","","","","","clear_screen","null","null","","","critical","c","d","t","164","240","240","164","240","164","trueblood","0","w","240","164","164","240","240","164","39360","39360","39360","dc","null","null","null","null","null","null","[2,1]","","",""
"","canvas-keyboard-response","41","88320","0.0-6.0-0.5","579","","","","","pre trial waiting period","null","null","","","catch","sw","l","sh","180","200","222","188","234","212","trueblood","null","null","null","null","null","null","null","null","null","null","null","","180","200","260","200","36000","52000","[1,2]","483.84126119492237","457.3636020290778","478.64679913472355"
"","canvas-keyboard-response","42","88341","0.0-6.0-1.5","579","","","","","clear_screen","null","null","","","catch","sw","l","sh","180","200","222","188","234","212","trueblood","null","null","null","null","null","null","null","null","null","null","null","","180","200","260","200","36000","52000","[1,2]","483.84126119492237","457.3636020290778","478.64679913472355"
"","canvas-keyboard-response","43","88851","0.0-6.0-2.5","579","","","","","rectangles no change","null","null","","","catch","sw","l","sh","180","200","222","188","234","212","trueblood","null","null","null","null","null","null","null","null","null","null","null","","180","200","260","200","36000","52000","[1,2]","483.84126119492237","457.3636020290778","478.64679913472355"
"","canvas-keyboard-response","44","90187","0.0-6.0-3.5","579","","","","","rectangles with change","null","null","","","catch","sw","l","sh","180","200","222","188","234","212","trueblood","null","null","null","null","null","null","null","null","null","null","null","","180","200","260","200","36000","52000","[1,2]","483.84126119492237","457.3636020290778","478.64679913472355"
"","canvas-keyboard-response","45","90206","0.0-6.0-4.5","579","","","","","clear_screen","null","null","","","catch","sw","l","sh","180","200","222","188","234","212","trueblood","null","null","null","null","null","null","null","null","null","null","null","","180","200","260","200","36000","52000","[1,2]","483.84126119492237","457.3636020290778","478.64679913472355"
"","canvas-keyboard-response","46","90747","0.0-6.0-5.5","579","","","","","make choice","532","2","","","catch","sw","l","sh","180","200","222","188","234","212","trueblood","null","null","null","null","null","null","null","null","null","null","null","","180","200","260","200","36000","52000","[1,2]","","",""
"","canvas-keyboard-response","47","90765","0.0-6.0-6.5","579","","","","","clear_screen","null","null","","","catch","sw","l","sh","180","200","222","188","234","212","trueblood","null","null","null","null","null","null","null","null","null","null","null","","180","200","260","200","36000","52000","[1,2]","","",""
"","canvas-keyboard-response","48","90967","0.0-6.0-0.6","579","","","","","pre trial waiting period","null","null","","","catch","sw","l","sh","180","200","231","173","180","154","trueblood","null","null","null","null","null","null","null","null","null","null","null","","180","200","260","200","36000","52000","[1,2]","467.37749921605996","463.9055243953825","523.1019836865482"
"","canvas-keyboard-response","49","90985","0.0-6.0-1.6","579","","","","","clear_screen","null","null","","","catch","sw","l","sh","180","200","231","173","180","154","trueblood","null","null","null","null","null","null","null","null","null","null","null","","180","200","260","200","36000","52000","[1,2]","467.37749921605996","463.9055243953825","523.1019836865482"
"","canvas-keyboard-response","50","91498","0.0-6.0-2.6","579","","","","","rectangles no change","null","null","","","catch","sw","l","sh","180","200","231","173","180","154","trueblood","null","null","null","null","null","null","null","null","null","null","null","","180","200","260","200","36000","52000","[1,2]","467.37749921605996","463.9055243953825","523.1019836865482"
"","canvas-keyboard-response","51","92834","0.0-6.0-3.6","579","","","","","rectangles with change","null","null","","","catch","sw","l","sh","180","200","231","173","180","154","trueblood","null","null","null","null","null","null","null","null","null","null","null","","180","200","260","200","36000","52000","[1,2]","467.37749921605996","463.9055243953825","523.1019836865482"
"","canvas-keyboard-response","52","92852","0.0-6.0-4.6","579","","","","","clear_screen","null","null","","","catch","sw","l","sh","180","200","231","173","180","154","trueblood","null","null","null","null","null","null","null","null","null","null","null","","180","200","260","200","36000","52000","[1,2]","467.37749921605996","463.9055243953825","523.1019836865482"
"","canvas-keyboard-response","53","93483","0.0-6.0-5.6","579","","","","","make choice","625","2","","","catch","sw","l","sh","180","200","231","173","180","154","trueblood","null","null","null","null","null","null","null","null","null","null","null","","180","200","260","200","36000","52000","[1,2]","","",""
"","canvas-keyboard-response","54","93501","0.0-6.0-6.6","579","","","","","clear_screen","null","null","","","catch","sw","l","sh","180","200","231","173","180","154","trueblood","null","null","null","null","null","null","null","null","null","null","null","","180","200","260","200","36000","52000","[1,2]","","",""
"","canvas-keyboard-response","55","93703","0.0-6.0-0.7","579","","","","","pre trial waiting period","null","null","","","critical","c","t","d","240","164","164","240","160.6713","232.8713","trueblood","0.05","h","164","240","240","164","160.6713","232.8713","39360","39360","37415.7294","td","null","null","null","null","null","null","[2,3]","482.427932240884","465.2152197763417","448.14332715808274"
"","canvas-keyboard-response","56","93723","0.0-6.0-1.7","579","","","","","clear_screen","null","null","","","critical","c","t","d","240","164","164","240","160.6713","232.8713","trueblood","0.05","h","164","240","240","164","160.6713","232.8713","39360","39360","37415.7294","td","null","null","null","null","null","null","[2,3]","482.427932240884","465.2152197763417","448.14332715808274"
"","canvas-keyboard-response","57","94235","0.0-6.0-2.7","579","","","","","rectangles no change","null","null","","","critical","c","t","d","240","164","164","240","160.6713","232.8713","trueblood","0.05","h","164","240","240","164","160.6713","232.8713","39360","39360","37415.7294","td","null","null","null","null","null","null","[2,3]","482.427932240884","465.2152197763417","448.14332715808274"
"","canvas-keyboard-response","58","95570","0.0-6.0-3.7","579","","","","","rectangles with change","null","null","","","critical","c","t","d","240","164","164","240","160.6713","232.8713","trueblood","0.05","h","164","240","240","164","160.6713","232.8713","39360","39360","37415.7294","td","null","null","null","null","null","null","[2,3]","482.427932240884","465.2152197763417","448.14332715808274"
"","canvas-keyboard-response","59","95590","0.0-6.0-4.7","579","","","","","clear_screen","null","null","","","critical","c","t","d","240","164","164","240","160.6713","232.8713","trueblood","0.05","h","164","240","240","164","160.6713","232.8713","39360","39360","37415.7294","td","null","null","null","null","null","null","[2,3]","482.427932240884","465.2152197763417","448.14332715808274"
"","canvas-keyboard-response","60","96314","0.0-6.0-5.7","579","","","","","make choice","717","2","","","critical","c","t","d","240","164","164","240","160.6713","232.8713","trueblood","0.05","h","164","240","240","164","160.6713","232.8713","39360","39360","37415.7294","td","null","null","null","null","null","null","[2,3]","","",""
"","canvas-keyboard-response","61","96333","0.0-6.0-6.7","579","","","","","clear_screen","null","null","","","critical","c","t","d","240","164","164","240","160.6713","232.8713","trueblood","0.05","h","164","240","240","164","160.6713","232.8713","39360","39360","37415.7294","td","null","null","null","null","null","null","[2,3]","","",""
"","canvas-keyboard-response","62","96534","0.0-6.0-0.8","579","","","","","pre trial waiting period","null","null","","","critical","t","d","c","240","164","232.8713","160.6713","164","240","trueblood","0.05","w","240","164","164","240","232.8713","160.6713","39360","39360","37415.7294","dc","null","null","null","null","null","null","[2,3]","501.0656354103021","495.5334994387987","467.60138545494067"
"","canvas-keyboard-response","63","96553","0.0-6.0-1.8","579","","","","","clear_screen","null","null","","","critical","t","d","c","240","164","232.8713","160.6713","164","240","trueblood","0.05","w","240","164","164","240","232.8713","160.6713","39360","39360","37415.7294","dc","null","null","null","null","null","null","[2,3]","501.0656354103021","495.5334994387987","467.60138545494067"
"","canvas-keyboard-response","64","97065","0.0-6.0-2.8","579","","","","","rectangles no change","null","null","","","critical","t","d","c","240","164","232.8713","160.6713","164","240","trueblood","0.05","w","240","164","164","240","232.8713","160.6713","39360","39360","37415.7294","dc","null","null","null","null","null","null","[2,3]","501.0656354103021","495.5334994387987","467.60138545494067"
"","canvas-keyboard-response","65","98400","0.0-6.0-3.8","579","","","","","rectangles with change","null","null","","","critical","t","d","c","240","164","232.8713","160.6713","164","240","trueblood","0.05","w","240","164","164","240","232.8713","160.6713","39360","39360","37415.7294","dc","null","null","null","null","null","null","[2,3]","501.0656354103021","495.5334994387987","467.60138545494067"
"","canvas-keyboard-response","66","98419","0.0-6.0-4.8","579","","","","","clear_screen","null","null","","","critical","t","d","c","240","164","232.8713","160.6713","164","240","trueblood","0.05","w","240","164","164","240","232.8713","160.6713","39360","39360","37415.7294","dc","null","null","null","null","null","null","[2,3]","501.0656354103021","495.5334994387987","467.60138545494067"
"","canvas-keyboard-response","67","99107","0.0-6.0-5.8","579","","","","","make choice","677","3","","","critical","t","d","c","240","164","232.8713","160.6713","164","240","trueblood","0.05","w","240","164","164","240","232.8713","160.6713","39360","39360","37415.7294","dc","null","null","null","null","null","null","[2,3]","","",""
"","canvas-keyboard-response","68","99126","0.0-6.0-6.8","579","","","","","clear_screen","null","null","","","critical","t","d","c","240","164","232.8713","160.6713","164","240","trueblood","0.05","w","240","164","164","240","232.8713","160.6713","39360","39360","37415.7294","dc","null","null","null","null","null","null","[2,3]","","",""
"","canvas-keyboard-response","69","99326","0.0-6.0-0.9","579","","","","","pre trial waiting period","null","null","","","critical","c","t","d","240","164","164","240","160.6713","232.8713","trueblood","0.05","h","164","240","240","164","160.6713","232.8713","39360","39360","37415.7294","tc","null","null","null","null","null","null","[2,1]","510.0753691309839","438.75156028989255","441.3245749515578"
"","canvas-keyboard-response","70","99346","0.0-6.0-1.9","579","","","","","clear_screen","null","null","","","critical","c","t","d","240","164","164","240","160.6713","232.8713","trueblood","0.05","h","164","240","240","164","160.6713","232.8713","39360","39360","37415.7294","tc","null","null","null","null","null","null","[2,1]","510.0753691309839","438.75156028989255","441.3245749515578"
"","canvas-keyboard-response","71","99856","0.0-6.0-2.9","579","","","","","rectangles no change","null","null","","","critical","c","t","d","240","164","164","240","160.6713","232.8713","trueblood","0.05","h","164","240","240","164","160.6713","232.8713","39360","39360","37415.7294","tc","null","null","null","null","null","null","[2,1]","510.0753691309839","438.75156028989255","441.3245749515578"
"","canvas-keyboard-response","72","101191","0.0-6.0-3.9","579","","","","","rectangles with change","null","null","","","critical","c","t","d","240","164","164","240","160.6713","232.8713","trueblood","0.05","h","164","240","240","164","160.6713","232.8713","39360","39360","37415.7294","tc","null","null","null","null","null","null","[2,1]","510.0753691309839","438.75156028989255","441.3245749515578"
"","canvas-keyboard-response","73","101211","0.0-6.0-4.9","579","","","","","clear_screen","null","null","","","critical","c","t","d","240","164","164","240","160.6713","232.8713","trueblood","0.05","h","164","240","240","164","160.6713","232.8713","39360","39360","37415.7294","tc","null","null","null","null","null","null","[2,1]","510.0753691309839","438.75156028989255","441.3245749515578"
"","canvas-keyboard-response","74","101898","0.0-6.0-5.9","579","","","","","make choice","678","2","","","critical","c","t","d","240","164","164","240","160.6713","232.8713","trueblood","0.05","h","164","240","240","164","160.6713","232.8713","39360","39360","37415.7294","tc","null","null","null","null","null","null","[2,1]","","",""
"","canvas-keyboard-response","75","101916","0.0-6.0-6.9","579","","","","","clear_screen","null","null","","","critical","c","t","d","240","164","164","240","160.6713","232.8713","trueblood","0.05","h","164","240","240","164","160.6713","232.8713","39360","39360","37415.7294","tc","null","null","null","null","null","null","[2,1]","","",""
"","canvas-keyboard-response","76","102117","0.0-6.0-0.10","579","","","","","pre trial waiting period","null","null","","","catch","l","sh","sw","297","196","161","207","203","195","spektor","null","null","null","null","null","null","null","null","null","null","null","","180","200","260","200","36000","52000","[1,3]","496.43274614660385","128.87965823376152","515.7685559421424"
"","canvas-keyboard-response","77","102137","0.0-6.0-1.10","579","","","","","clear_screen","null","null","","","catch","l","sh","sw","297","196","161","207","203","195","spektor","null","null","null","null","null","null","null","null","null","null","null","","180","200","260","200","36000","52000","[1,3]","496.43274614660385","128.87965823376152","515.7685559421424"
"","canvas-keyboard-response","78","102650","0.0-6.0-2.10","579","","","","","rectangles no change","null","null","","","catch","l","sh","sw","297","196","161","207","203","195","spektor","null","null","null","null","null","null","null","null","null","null","null","","180","200","260","200","36000","52000","[1,3]","496.43274614660385","128.87965823376152","515.7685559421424"
"","canvas-keyboard-response","79","103987","0.0-6.0-3.10","579","","","","","rectangles with change","null","null","","","catch","l","sh","sw","297","196","161","207","203","195","spektor","null","null","null","null","null","null","null","null","null","null","null","","180","200","260","200","36000","52000","[1,3]","496.43274614660385","128.87965823376152","515.7685559421424"
"","canvas-keyboard-response","80","104008","0.0-6.0-4.10","579","","","","","clear_screen","null","null","","","catch","l","sh","sw","297","196","161","207","203","195","spektor","null","null","null","null","null","null","null","null","null","null","null","","180","200","260","200","36000","52000","[1,3]","496.43274614660385","128.87965823376152","515.7685559421424"
"","canvas-keyboard-response","81","104579","0.0-6.0-5.10","579","","","","","make choice","560","1","","","catch","l","sh","sw","297","196","161","207","203","195","spektor","null","null","null","null","null","null","null","null","null","null","null","","180","200","260","200","36000","52000","[1,3]","","",""
"","canvas-keyboard-response","82","104597","0.0-6.0-6.10","579","","","","","clear_screen","null","null","","","catch","l","sh","sw","297","196","161","207","203","195","spektor","null","null","null","null","null","null","null","null","null","null","null","","180","200","260","200","36000","52000","[1,3]","","",""
"","canvas-keyboard-response","83","104798","0.0-6.0-0.11","579","","","","","pre trial waiting period","null","null","","","critical","c","d","t","164","240","237.1485","162.6685","240","164","spektor","0.02","w","240","164","164","240","237.1485","162.6685","39360","39360","38576.5967","dc","null","null","null","null","null","null","[2,1]","486.56096402069824","181.46762466616383","531.5256839735425"
"","canvas-keyboard-response","84","104817","0.0-6.0-1.11","579","","","","","clear_screen","null","null","","","critical","c","d","t","164","240","237.1485","162.6685","240","164","spektor","0.02","w","240","164","164","240","237.1485","162.6685","39360","39360","38576.5967","dc","null","null","null","null","null","null","[2,1]","486.56096402069824","181.46762466616383","531.5256839735425"
"","canvas-keyboard-response","85","105328","0.0-6.0-2.11","579","","","","","rectangles no change","null","null","","","critical","c","d","t","164","240","237.1485","162.6685","240","164","spektor","0.02","w","240","164","164","240","237.1485","162.6685","39360","39360","38576.5967","dc","null","null","null","null","null","null","[2,1]","486.56096402069824","181.46762466616383","531.5256839735425"
"","canvas-keyboard-response","86","106663","0.0-6.0-3.11","579","","","","","rectangles with change","null","null","","","critical","c","d","t","164","240","237.1485","162.6685","240","164","spektor","0.02","w","240","164","164","240","237.1485","162.6685","39360","39360","38576.5967","dc","null","null","null","null","null","null","[2,1]","486.56096402069824","181.46762466616383","531.5256839735425"
"","canvas-keyboard-response","87","106681","0.0-6.0-4.11","579","","","","","clear_screen","null","null","","","critical","c","d","t","164","240","237.1485","162.6685","240","164","spektor","0.02","w","240","164","164","240","237.1485","162.6685","39360","39360","38576.5967","dc","null","null","null","null","null","null","[2,1]","486.56096402069824","181.46762466616383","531.5256839735425"
"","canvas-keyboard-response","88","107306","0.0-6.0-5.11","579","","","","","make choice","619","1","","","critical","c","d","t","164","240","237.1485","162.6685","240","164","spektor","0.02","w","240","164","164","240","237.1485","162.6685","39360","39360","38576.5967","dc","null","null","null","null","null","null","[2,1]","","",""
"","canvas-keyboard-response","89","107325","0.0-6.0-6.11","579","","","","","clear_screen","null","null","","","critical","c","d","t","164","240","237.1485","162.6685","240","164","spektor","0.02","w","240","164","164","240","237.1485","162.6685","39360","39360","38576.5967","dc","null","null","null","null","null","null","[2,1]","","",""
"","canvas-keyboard-response","90","107525","0.0-6.0-0.12","579","","","","","pre trial waiting period","null","null","","","critical","t","c","d","164","240","240","164","160.6713","232.8713","spektor","0.05","h","164","240","240","164","160.6713","232.8713","39360","39360","37415.7294","tc","null","null","null","null","null","null","[1,2]","478.18700583223017","170.95473627418485","472.92580334018766"
"","canvas-keyboard-response","91","107545","0.0-6.0-1.12","579","","","","","clear_screen","null","null","","","critical","t","c","d","164","240","240","164","160.6713","232.8713","spektor","0.05","h","164","240","240","164","160.6713","232.8713","39360","39360","37415.7294","tc","null","null","null","null","null","null","[1,2]","478.18700583223017","170.95473627418485","472.92580334018766"
"","canvas-keyboard-response","92","108060","0.0-6.0-2.12","579","","","","","rectangles no change","null","null","","","critical","t","c","d","164","240","240","164","160.6713","232.8713","spektor","0.05","h","164","240","240","164","160.6713","232.8713","39360","39360","37415.7294","tc","null","null","null","null","null","null","[1,2]","478.18700583223017","170.95473627418485","472.92580334018766"
"","canvas-keyboard-response","93","109396","0.0-6.0-3.12","579","","","","","rectangles with change","null","null","","","critical","t","c","d","164","240","240","164","160.6713","232.8713","spektor","0.05","h","164","240","240","164","160.6713","232.8713","39360","39360","37415.7294","tc","null","null","null","null","null","null","[1,2]","478.18700583223017","170.95473627418485","472.92580334018766"
"","canvas-keyboard-response","94","109414","0.0-6.0-4.12","579","","","","","clear_screen","null","null","","","critical","t","c","d","164","240","240","164","160.6713","232.8713","spektor","0.05","h","164","240","240","164","160.6713","232.8713","39360","39360","37415.7294","tc","null","null","null","null","null","null","[1,2]","478.18700583223017","170.95473627418485","472.92580334018766"
"","canvas-keyboard-response","95","109978","0.0-6.0-5.12","579","","","","","make choice","558","2","","","critical","t","c","d","164","240","240","164","160.6713","232.8713","spektor","0.05","h","164","240","240","164","160.6713","232.8713","39360","39360","37415.7294","tc","null","null","null","null","null","null","[1,2]","","",""
"","canvas-keyboard-response","96","109997","0.0-6.0-6.12","579","","","","","clear_screen","null","null","","","critical","t","c","d","164","240","240","164","160.6713","232.8713","spektor","0.05","h","164","240","240","164","160.6713","232.8713","39360","39360","37415.7294","tc","null","null","null","null","null","null","[1,2]","","",""
"","canvas-keyboard-response","97","110198","0.0-6.0-0.13","579","","","","","pre trial waiting period","null","null","","","catch","sw","sh","l","180","200","172","157","257","228","trueblood","null","null","null","null","null","null","null","null","null","null","null","","180","200","260","200","36000","52000","[1,3]","487.4239928401715","504.7839949459599","443.6450717943502"
"","canvas-keyboard-response","98","110217","0.0-6.0-1.13","579","","","","","clear_screen","null","null","","","catch","sw","sh","l","180","200","172","157","257","228","trueblood","null","null","null","null","null","null","null","null","null","null","null","","180","200","260","200","36000","52000","[1,3]","487.4239928401715","504.7839949459599","443.6450717943502"
"","canvas-keyboard-response","99","110729","0.0-6.0-2.13","579","","","","","rectangles no change","null","null","","","catch","sw","sh","l","180","200","172","157","257","228","trueblood","null","null","null","null","null","null","null","null","null","null","null","","180","200","260","200","36000","52000","[1,3]","487.4239928401715","504.7839949459599","443.6450717943502"
"","canvas-keyboard-response","100","112064","0.0-6.0-3.13","579","","","","","rectangles with change","null","null","","","catch","sw","sh","l","180","200","172","157","257","228","trueblood","null","null","null","null","null","null","null","null","null","null","null","","180","200","260","200","36000","52000","[1,3]","487.4239928401715","504.7839949459599","443.6450717943502"
"","canvas-keyboard-response","101","112083","0.0-6.0-4.13","579","","","","","clear_screen","null","null","","","catch","sw","sh","l","180","200","172","157","257","228","trueblood","null","null","null","null","null","null","null","null","null","null","null","","180","200","260","200","36000","52000","[1,3]","487.4239928401715","504.7839949459599","443.6450717943502"
"","canvas-keyboard-response","102","112546","0.0-6.0-5.13","579","","","","","make choice","456","3","","","catch","sw","sh","l","180","200","172","157","257","228","trueblood","null","null","null","null","null","null","null","null","null","null","null","","180","200","260","200","36000","52000","[1,3]","","",""
"","canvas-keyboard-response","103","112565","0.0-6.0-6.13","579","","","","","clear_screen","null","null","","","catch","sw","sh","l","180","200","172","157","257","228","trueblood","null","null","null","null","null","null","null","null","null","null","null","","180","200","260","200","36000","52000","[1,3]","","",""
"","canvas-keyboard-response","104","112765","0.0-6.0-0.14","579","","","","","pre trial waiting period","null","null","","","critical","d","t","c","240","164","240","164","164","240","trueblood","0","w","240","164","164","240","240","164","39360","39360","39360","td","null","null","null","null","null","null","[2,1]","474.429355206649","503.57125180485934","434.9151372889844"
"","canvas-keyboard-response","105","112785","0.0-6.0-1.14","579","","","","","clear_screen","null","null","","","critical","d","t","c","240","164","240","164","164","240","trueblood","0","w","240","164","164","240","240","164","39360","39360","39360","td","null","null","null","null","null","null","[2,1]","474.429355206649","503.57125180485934","434.9151372889844"
"","canvas-keyboard-response","106","113295","0.0-6.0-2.14","579","","","","","rectangles no change","null","null","","","critical","d","t","c","240","164","240","164","164","240","trueblood","0","w","240","164","164","240","240","164","39360","39360","39360","td","null","null","null","null","null","null","[2,1]","474.429355206649","503.57125180485934","434.9151372889844"
"","canvas-keyboard-response","107","114631","0.0-6.0-3.14","579","","","","","rectangles with change","null","null","","","critical","d","t","c","240","164","240","164","164","240","trueblood","0","w","240","164","164","240","240","164","39360","39360","39360","td","null","null","null","null","null","null","[2,1]","474.429355206649","503.57125180485934","434.9151372889844"
"","canvas-keyboard-response","108","114649","0.0-6.0-4.14","579","","","","","clear_screen","null","null","","","critical","d","t","c","240","164","240","164","164","240","trueblood","0","w","240","164","164","240","240","164","39360","39360","39360","td","null","null","null","null","null","null","[2,1]","474.429355206649","503.57125180485934","434.9151372889844"
"","canvas-keyboard-response","109","115046","0.0-6.0-5.14","579","","","","","make choice","389","1","","","critical","d","t","c","240","164","240","164","164","240","trueblood","0","w","240","164","164","240","240","164","39360","39360","39360","td","null","null","null","null","null","null","[2,1]","","",""
"","canvas-keyboard-response","110","115063","0.0-6.0-6.14","579","","","","","clear_screen","null","null","","","critical","d","t","c","240","164","240","164","164","240","trueblood","0","w","240","164","164","240","240","164","39360","39360","39360","td","null","null","null","null","null","null","[2,1]","","",""
"","canvas-keyboard-response","111","115264","0.0-6.0-0.15","579","","","","","pre trial waiting period","null","null","","","catch","sh","sw","l","199","149","216","202","276","219","trueblood","null","null","null","null","null","null","null","null","null","null","null","","180","200","260","200","36000","52000","[2,3]","485.39657665514466","481.09485240162724","473.5096340167553"
"","canvas-keyboard-response","112","115283","0.0-6.0-1.15","579","","","","","clear_screen","null","null","","","catch","sh","sw","l","199","149","216","202","276","219","trueblood","null","null","null","null","null","null","null","null","null","null","null","","180","200","260","200","36000","52000","[2,3]","485.39657665514466","481.09485240162724","473.5096340167553"
"","canvas-keyboard-response","113","115793","0.0-6.0-2.15","579","","","","","rectangles no change","null","null","","","catch","sh","sw","l","199","149","216","202","276","219","trueblood","null","null","null","null","null","null","null","null","null","null","null","","180","200","260","200","36000","52000","[2,3]","485.39657665514466","481.09485240162724","473.5096340167553"
"","canvas-keyboard-response","114","117129","0.0-6.0-3.15","579","","","","","rectangles with change","null","null","","","catch","sh","sw","l","199","149","216","202","276","219","trueblood","null","null","null","null","null","null","null","null","null","null","null","","180","200","260","200","36000","52000","[2,3]","485.39657665514466","481.09485240162724","473.5096340167553"
"","canvas-keyboard-response","115","117151","0.0-6.0-4.15","579","","","","","clear_screen","null","null","","","catch","sh","sw","l","199","149","216","202","276","219","trueblood","null","null","null","null","null","null","null","null","null","null","null","","180","200","260","200","36000","52000","[2,3]","485.39657665514466","481.09485240162724","473.5096340167553"
"","canvas-keyboard-response","116","117434","0.0-6.0-5.15","579","","","","","make choice","276","3","","","catch","sh","sw","l","199","149","216","202","276","219","trueblood","null","null","null","null","null","null","null","null","null","null","null","","180","200","260","200","36000","52000","[2,3]","","",""
"","canvas-keyboard-response","117","117452","0.0-6.0-6.15","579","","","","","clear_screen","null","null","","","catch","sh","sw","l","199","149","216","202","276","219","trueblood","null","null","null","null","null","null","null","null","null","null","null","","180","200","260","200","36000","52000","[2,3]","","",""
"","canvas-keyboard-response","118","117653","0.0-6.0-0.16","579","","","","","pre trial waiting period","null","null","","","critical","t","d","c","240","164","232.8713","160.6713","164","240","trueblood","0.05","w","240","164","164","240","232.8713","160.6713","39360","39360","37415.7294","td","null","null","null","null","null","null","[1,2]","502.7060346317364","515.7301242692043","450.6265319502185"
"","canvas-keyboard-response","119","117673","0.0-6.0-1.16","579","","","","","clear_screen","null","null","","","critical","t","d","c","240","164","232.8713","160.6713","164","240","trueblood","0.05","w","240","164","164","240","232.8713","160.6713","39360","39360","37415.7294","td","null","null","null","null","null","null","[1,2]","502.7060346317364","515.7301242692043","450.6265319502185"
"","canvas-keyboard-response","120","118184","0.0-6.0-2.16","579","","","","","rectangles no change","null","null","","","critical","t","d","c","240","164","232.8713","160.6713","164","240","trueblood","0.05","w","240","164","164","240","232.8713","160.6713","39360","39360","37415.7294","td","null","null","null","null","null","null","[1,2]","502.7060346317364","515.7301242692043","450.6265319502185"
"","canvas-keyboard-response","121","119518","0.0-6.0-3.16","579","","","","","rectangles with change","null","null","","","critical","t","d","c","240","164","232.8713","160.6713","164","240","trueblood","0.05","w","240","164","164","240","232.8713","160.6713","39360","39360","37415.7294","td","null","null","null","null","null","null","[1,2]","502.7060346317364","515.7301242692043","450.6265319502185"
"","canvas-keyboard-response","122","119536","0.0-6.0-4.16","579","","","","","clear_screen","null","null","","","critical","t","d","c","240","164","232.8713","160.6713","164","240","trueblood","0.05","w","240","164","164","240","232.8713","160.6713","39360","39360","37415.7294","td","null","null","null","null","null","null","[1,2]","502.7060346317364","515.7301242692043","450.6265319502185"
"","canvas-keyboard-response","123","119922","0.0-6.0-5.16","579","","","","","make choice","378","1","","","critical","t","d","c","240","164","232.8713","160.6713","164","240","trueblood","0.05","w","240","164","164","240","232.8713","160.6713","39360","39360","37415.7294","td","null","null","null","null","null","null","[1,2]","","",""
"","canvas-keyboard-response","124","119941","0.0-6.0-6.16","579","","","","","clear_screen","null","null","","","critical","t","d","c","240","164","232.8713","160.6713","164","240","trueblood","0.05","w","240","164","164","240","232.8713","160.6713","39360","39360","37415.7294","td","null","null","null","null","null","null","[1,2]","","",""
"","canvas-keyboard-response","125","120142","0.0-6.0-0.17","579","","","","","pre trial waiting period","null","null","","","catch","l","sh","sw","193","272","169","195","215","234","trueblood","null","null","null","null","null","null","null","null","null","null","null","","180","200","260","200","36000","52000","[1,3]","430.9613872825832","490.0371017759136","429.5092867280502"
"","canvas-keyboard-response","126","120161","0.0-6.0-1.17","579","","","","","clear_screen","null","null","","","catch","l","sh","sw","193","272","169","195","215","234","trueblood","null","null","null","null","null","null","null","null","null","null","null","","180","200","260","200","36000","52000","[1,3]","430.9613872825832","490.0371017759136","429.5092867280502"
"","canvas-keyboard-response","127","120673","0.0-6.0-2.17","579","","","","","rectangles no change","null","null","","","catch","l","sh","sw","193","272","169","195","215","234","trueblood","null","null","null","null","null","null","null","null","null","null","null","","180","200","260","200","36000","52000","[1,3]","430.9613872825832","490.0371017759136","429.5092867280502"
"","canvas-keyboard-response","128","122010","0.0-6.0-3.17","579","","","","","rectangles with change","null","null","","","catch","l","sh","sw","193","272","169","195","215","234","trueblood","null","null","null","null","null","null","null","null","null","null","null","","180","200","260","200","36000","52000","[1,3]","430.9613872825832","490.0371017759136","429.5092867280502"
"","canvas-keyboard-response","129","122032","0.0-6.0-4.17","579","","","","","clear_screen","null","null","","","catch","l","sh","sw","193","272","169","195","215","234","trueblood","null","null","null","null","null","null","null","null","null","null","null","","180","200","260","200","36000","52000","[1,3]","430.9613872825832","490.0371017759136","429.5092867280502"
"","canvas-keyboard-response","130","122634","0.0-6.0-5.17","579","","","","","make choice","594","1","","","catch","l","sh","sw","193","272","169","195","215","234","trueblood","null","null","null","null","null","null","null","null","null","null","null","","180","200","260","200","36000","52000","[1,3]","","",""
"","canvas-keyboard-response","131","122654","0.0-6.0-6.17","579","","","","","clear_screen","null","null","","","catch","l","sh","sw","193","272","169","195","215","234","trueblood","null","null","null","null","null","null","null","null","null","null","null","","180","200","260","200","36000","52000","[1,3]","","",""
"","canvas-keyboard-response","132","122856","0.0-6.0-0.18","579","","","","","pre trial waiting period","null","null","","","critical","t","d","c","240","164","232.8713","160.6713","164","240","spektor","0.05","w","240","164","164","240","232.8713","160.6713","39360","39360","37415.7294","td","null","null","null","null","null","null","[1,2]","538.4604718767179","189.5530158920314","466.2229478833553"
"","canvas-keyboard-response","133","122877","0.0-6.0-1.18","579","","","","","clear_screen","null","null","","","critical","t","d","c","240","164","232.8713","160.6713","164","240","spektor","0.05","w","240","164","164","240","232.8713","160.6713","39360","39360","37415.7294","td","null","null","null","null","null","null","[1,2]","538.4604718767179","189.5530158920314","466.2229478833553"
"","canvas-keyboard-response","134","123388","0.0-6.0-2.18","579","","","","","rectangles no change","null","null","","","critical","t","d","c","240","164","232.8713","160.6713","164","240","spektor","0.05","w","240","164","164","240","232.8713","160.6713","39360","39360","37415.7294","td","null","null","null","null","null","null","[1,2]","538.4604718767179","189.5530158920314","466.2229478833553"
"","canvas-keyboard-response","135","124725","0.0-6.0-3.18","579","","","","","rectangles with change","null","null","","","critical","t","d","c","240","164","232.8713","160.6713","164","240","spektor","0.05","w","240","164","164","240","232.8713","160.6713","39360","39360","37415.7294","td","null","null","null","null","null","null","[1,2]","538.4604718767179","189.5530158920314","466.2229478833553"
"","canvas-keyboard-response","136","124744","0.0-6.0-4.18","579","","","","","clear_screen","null","null","","","critical","t","d","c","240","164","232.8713","160.6713","164","240","spektor","0.05","w","240","164","164","240","232.8713","160.6713","39360","39360","37415.7294","td","null","null","null","null","null","null","[1,2]","538.4604718767179","189.5530158920314","466.2229478833553"
"","canvas-keyboard-response","137","125163","0.0-6.0-5.18","579","","","","","make choice","411","1","","","critical","t","d","c","240","164","232.8713","160.6713","164","240","spektor","0.05","w","240","164","164","240","232.8713","160.6713","39360","39360","37415.7294","td","null","null","null","null","null","null","[1,2]","","",""
"","canvas-keyboard-response","138","125182","0.0-6.0-6.18","579","","","","","clear_screen","null","null","","","critical","t","d","c","240","164","232.8713","160.6713","164","240","spektor","0.05","w","240","164","164","240","232.8713","160.6713","39360","39360","37415.7294","td","null","null","null","null","null","null","[1,2]","","",""
"","canvas-keyboard-response","139","125383","0.0-6.0-0.19","579","","","","","pre trial waiting period","null","null","","","critical","t","c","d","164","240","240","164","162.6685","237.1485","trueblood","0.02","h","164","240","240","164","162.6685","237.1485","39360","39360","38576.5967","td","null","null","null","null","null","null","[1,3]","452.119197698518","517.442199893751","450.85292077719214"
"","canvas-keyboard-response","140","125403","0.0-6.0-1.19","579","","","","","clear_screen","null","null","","","critical","t","c","d","164","240","240","164","162.6685","237.1485","trueblood","0.02","h","164","240","240","164","162.6685","237.1485","39360","39360","38576.5967","td","null","null","null","null","null","null","[1,3]","452.119197698518","517.442199893751","450.85292077719214"
"","canvas-keyboard-response","141","125914","0.0-6.0-2.19","579","","","","","rectangles no change","null","null","","","critical","t","c","d","164","240","240","164","162.6685","237.1485","trueblood","0.02","h","164","240","240","164","162.6685","237.1485","39360","39360","38576.5967","td","null","null","null","null","null","null","[1,3]","452.119197698518","517.442199893751","450.85292077719214"
"","canvas-keyboard-response","142","127250","0.0-6.0-3.19","579","","","","","rectangles with change","null","null","","","critical","t","c","d","164","240","240","164","162.6685","237.1485","trueblood","0.02","h","164","240","240","164","162.6685","237.1485","39360","39360","38576.5967","td","null","null","null","null","null","null","[1,3]","452.119197698518","517.442199893751","450.85292077719214"
"","canvas-keyboard-response","143","127268","0.0-6.0-4.19","579","","","","","clear_screen","null","null","","","critical","t","c","d","164","240","240","164","162.6685","237.1485","trueblood","0.02","h","164","240","240","164","162.6685","237.1485","39360","39360","38576.5967","td","null","null","null","null","null","null","[1,3]","452.119197698518","517.442199893751","450.85292077719214"
"","canvas-keyboard-response","144","127915","0.0-6.0-5.19","579","","","","","make choice","637","1","","","critical","t","c","d","164","240","240","164","162.6685","237.1485","trueblood","0.02","h","164","240","240","164","162.6685","237.1485","39360","39360","38576.5967","td","null","null","null","null","null","null","[1,3]","","",""
"","canvas-keyboard-response","145","127934","0.0-6.0-6.19","579","","","","","clear_screen","null","null","","","critical","t","c","d","164","240","240","164","162.6685","237.1485","trueblood","0.02","h","164","240","240","164","162.6685","237.1485","39360","39360","38576.5967","td","null","null","null","null","null","null","[1,3]","","",""
"","canvas-keyboard-response","146","128135","0.0-6.0-0.20","579","","","","","pre trial waiting period","null","null","","","critical","c","t","d","240","164","164","240","158.0083","227.1683","spektor","0.09","h","164","240","240","164","158.0083","227.1683","39360","39360","35894.4834","td","null","null","null","null","null","null","[2,3]","520.5023786215124","126.25735475925296","465.4961650880848"
"","canvas-keyboard-response","147","128155","0.0-6.0-1.20","579","","","","","clear_screen","null","null","","","critical","c","t","d","240","164","164","240","158.0083","227.1683","spektor","0.09","h","164","240","240","164","158.0083","227.1683","39360","39360","35894.4834","td","null","null","null","null","null","null","[2,3]","520.5023786215124","126.25735475925296","465.4961650880848"
"","canvas-keyboard-response","148","128666","0.0-6.0-2.20","579","","","","","rectangles no change","null","null","","","critical","c","t","d","240","164","164","240","158.0083","227.1683","spektor","0.09","h","164","240","240","164","158.0083","227.1683","39360","39360","35894.4834","td","null","null","null","null","null","null","[2,3]","520.5023786215124","126.25735475925296","465.4961650880848"
"","canvas-keyboard-response","149","130002","0.0-6.0-3.20","579","","","","","rectangles with change","null","null","","","critical","c","t","d","240","164","164","240","158.0083","227.1683","spektor","0.09","h","164","240","240","164","158.0083","227.1683","39360","39360","35894.4834","td","null","null","null","null","null","null","[2,3]","520.5023786215124","126.25735475925296","465.4961650880848"
"","canvas-keyboard-response","150","130021","0.0-6.0-4.20","579","","","","","clear_screen","null","null","","","critical","c","t","d","240","164","164","240","158.0083","227.1683","spektor","0.09","h","164","240","240","164","158.0083","227.1683","39360","39360","35894.4834","td","null","null","null","null","null","null","[2,3]","520.5023786215124","126.25735475925296","465.4961650880848"
"","canvas-keyboard-response","151","130030","0.0-6.0-5.20","579","","","","","make choice","1","2","","","critical","c","t","d","240","164","164","240","158.0083","227.1683","spektor","0.09","h","164","240","240","164","158.0083","227.1683","39360","39360","35894.4834","td","null","null","null","null","null","null","[2,3]","","",""
"","canvas-keyboard-response","152","130047","0.0-6.0-6.20","579","","","","","clear_screen","null","null","","","critical","c","t","d","240","164","164","240","158.0083","227.1683","spektor","0.09","h","164","240","240","164","158.0083","227.1683","39360","39360","35894.4834","td","null","null","null","null","null","null","[2,3]","","",""
"","canvas-keyboard-response","153","130249","0.0-6.0-0.21","579","","","","","pre trial waiting period","null","null","","","catch","sw","sh","l","180","200","194","203","259","228","spektor","null","null","null","null","null","null","null","null","null","null","null","","180","200","260","200","36000","52000","[2,3]","504.775105207758","131.76447002627205","466.6761278432322"
"","canvas-keyboard-response","154","130270","0.0-6.0-1.21","579","","","","","clear_screen","null","null","","","catch","sw","sh","l","180","200","194","203","259","228","spektor","null","null","null","null","null","null","null","null","null","null","null","","180","200","260","200","36000","52000","[2,3]","504.775105207758","131.76447002627205","466.6761278432322"
"","canvas-keyboard-response","155","130784","0.0-6.0-2.21","579","","","","","rectangles no change","null","null","","","catch","sw","sh","l","180","200","194","203","259","228","spektor","null","null","null","null","null","null","null","null","null","null","null","","180","200","260","200","36000","52000","[2,3]","504.775105207758","131.76447002627205","466.6761278432322"
"","canvas-keyboard-response","156","132119","0.0-6.0-3.21","579","","","","","rectangles with change","null","null","","","catch","sw","sh","l","180","200","194","203","259","228","spektor","null","null","null","null","null","null","null","null","null","null","null","","180","200","260","200","36000","52000","[2,3]","504.775105207758","131.76447002627205","466.6761278432322"
"","canvas-keyboard-response","157","132138","0.0-6.0-4.21","579","","","","","clear_screen","null","null","","","catch","sw","sh","l","180","200","194","203","259","228","spektor","null","null","null","null","null","null","null","null","null","null","null","","180","200","260","200","36000","52000","[2,3]","504.775105207758","131.76447002627205","466.6761278432322"
"","canvas-keyboard-response","158","132410","0.0-6.0-5.21","579","","","","","make choice","264","3","","","catch","sw","sh","l","180","200","194","203","259","228","spektor","null","null","null","null","null","null","null","null","null","null","null","","180","200","260","200","36000","52000","[2,3]","","",""
"","canvas-keyboard-response","159","132429","0.0-6.0-6.21","579","","","","","clear_screen","null","null","","","catch","sw","sh","l","180","200","194","203","259","228","spektor","null","null","null","null","null","null","null","null","null","null","null","","180","200","260","200","36000","52000","[2,3]","","",""
"","canvas-keyboard-response","160","132630","0.0-6.0-0.22","579","","","","","pre trial waiting period","null","null","","","catch","sw","l","sh","180","200","198","263","194","218","trueblood","null","null","null","null","null","null","null","null","null","null","null","","180","200","260","200","36000","52000","[2,3]","450.93907936991934","432.9904899631524","451.7846960612773"
"","canvas-keyboard-response","161","132650","0.0-6.0-1.22","579","","","","","clear_screen","null","null","","","catch","sw","l","sh","180","200","198","263","194","218","trueblood","null","null","null","null","null","null","null","null","null","null","null","","180","200","260","200","36000","52000","[2,3]","450.93907936991934","432.9904899631524","451.7846960612773"
"","canvas-keyboard-response","162","133160","0.0-6.0-2.22","579","","","","","rectangles no change","null","null","","","catch","sw","l","sh","180","200","198","263","194","218","trueblood","null","null","null","null","null","null","null","null","null","null","null","","180","200","260","200","36000","52000","[2,3]","450.93907936991934","432.9904899631524","451.7846960612773"
"","canvas-keyboard-response","163","134497","0.0-6.0-3.22","579","","","","","rectangles with change","null","null","","","catch","sw","l","sh","180","200","198","263","194","218","trueblood","null","null","null","null","null","null","null","null","null","null","null","","180","200","260","200","36000","52000","[2,3]","450.93907936991934","432.9904899631524","451.7846960612773"
"","canvas-keyboard-response","164","134516","0.0-6.0-4.22","579","","","","","clear_screen","null","null","","","catch","sw","l","sh","180","200","198","263","194","218","trueblood","null","null","null","null","null","null","null","null","null","null","null","","180","200","260","200","36000","52000","[2,3]","450.93907936991934","432.9904899631524","451.7846960612773"
"","canvas-keyboard-response","165","134770","0.0-6.0-5.22","579","","","","","make choice","246","2","","","catch","sw","l","sh","180","200","198","263","194","218","trueblood","null","null","null","null","null","null","null","null","null","null","null","","180","200","260","200","36000","52000","[2,3]","","",""
"","canvas-keyboard-response","166","134790","0.0-6.0-6.22","579","","","","","clear_screen","null","null","","","catch","sw","l","sh","180","200","198","263","194","218","trueblood","null","null","null","null","null","null","null","null","null","null","null","","180","200","260","200","36000","52000","[2,3]","","",""
"","canvas-keyboard-response","167","134992","0.0-6.0-0.23","579","","","","","pre trial waiting period","null","null","","","critical","c","t","d","164","240","240","164","227.1683","158.0083","trueblood","0.09","w","240","164","164","240","227.1683","158.0083","39360","39360","35894.4834","td","null","null","null","null","null","null","[2,3]","442.40469866375236","502.38122722994547","495.3646140314312"
"","canvas-keyboard-response","168","135011","0.0-6.0-1.23","579","","","","","clear_screen","null","null","","","critical","c","t","d","164","240","240","164","227.1683","158.0083","trueblood","0.09","w","240","164","164","240","227.1683","158.0083","39360","39360","35894.4834","td","null","null","null","null","null","null","[2,3]","442.40469866375236","502.38122722994547","495.3646140314312"
"","canvas-keyboard-response","169","135521","0.0-6.0-2.23","579","","","","","rectangles no change","null","null","","","critical","c","t","d","164","240","240","164","227.1683","158.0083","trueblood","0.09","w","240","164","164","240","227.1683","158.0083","39360","39360","35894.4834","td","null","null","null","null","null","null","[2,3]","442.40469866375236","502.38122722994547","495.3646140314312"
"","canvas-keyboard-response","170","136855","0.0-6.0-3.23","579","","","","","rectangles with change","null","null","","","critical","c","t","d","164","240","240","164","227.1683","158.0083","trueblood","0.09","w","240","164","164","240","227.1683","158.0083","39360","39360","35894.4834","td","null","null","null","null","null","null","[2,3]","442.40469866375236","502.38122722994547","495.3646140314312"
"","canvas-keyboard-response","171","136874","0.0-6.0-4.23","579","","","","","clear_screen","null","null","","","critical","c","t","d","164","240","240","164","227.1683","158.0083","trueblood","0.09","w","240","164","164","240","227.1683","158.0083","39360","39360","35894.4834","td","null","null","null","null","null","null","[2,3]","442.40469866375236","502.38122722994547","495.3646140314312"
"","canvas-keyboard-response","172","139547","0.0-6.0-5.23","579","","","","","make choice","2664","3","","","critical","c","t","d","164","240","240","164","227.1683","158.0083","trueblood","0.09","w","240","164","164","240","227.1683","158.0083","39360","39360","35894.4834","td","null","null","null","null","null","null","[2,3]","","",""
"","canvas-keyboard-response","173","139567","0.0-6.0-6.23","579","","","","","clear_screen","null","null","","","critical","c","t","d","164","240","240","164","227.1683","158.0083","trueblood","0.09","w","240","164","164","240","227.1683","158.0083","39360","39360","35894.4834","td","null","null","null","null","null","null","[2,3]","","",""
"","canvas-keyboard-response","174","139770","0.0-6.0-0.24","579","","","","","pre trial waiting period","null","null","","","critical","c","t","d","164","240","240","164","237.1485","162.6685","trueblood","0.02","w","240","164","164","240","237.1485","162.6685","39360","39360","38576.5967","td","null","null","null","null","null","null","[2,3]","455.8688021528985","510.28702269974167","511.4725746549093"
"","canvas-keyboard-response","175","139793","0.0-6.0-1.24","579","","","","","clear_screen","null","null","","","critical","c","t","d","164","240","240","164","237.1485","162.6685","trueblood","0.02","w","240","164","164","240","237.1485","162.6685","39360","39360","38576.5967","td","null","null","null","null","null","null","[2,3]","455.8688021528985","510.28702269974167","511.4725746549093"
"","canvas-keyboard-response","176","140303","0.0-6.0-2.24","579","","","","","rectangles no change","null","null","","","critical","c","t","d","164","240","240","164","237.1485","162.6685","trueblood","0.02","w","240","164","164","240","237.1485","162.6685","39360","39360","38576.5967","td","null","null","null","null","null","null","[2,3]","455.8688021528985","510.28702269974167","511.4725746549093"
"","canvas-keyboard-response","177","141639","0.0-6.0-3.24","579","","","","","rectangles with change","null","null","","","critical","c","t","d","164","240","240","164","237.1485","162.6685","trueblood","0.02","w","240","164","164","240","237.1485","162.6685","39360","39360","38576.5967","td","null","null","null","null","null","null","[2,3]","455.8688021528985","510.28702269974167","511.4725746549093"
"","canvas-keyboard-response","178","141658","0.0-6.0-4.24","579","","","","","clear_screen","null","null","","","critical","c","t","d","164","240","240","164","237.1485","162.6685","trueblood","0.02","w","240","164","164","240","237.1485","162.6685","39360","39360","38576.5967","td","null","null","null","null","null","null","[2,3]","455.8688021528985","510.28702269974167","511.4725746549093"
"","canvas-keyboard-response","179","144314","0.0-6.0-5.24","579","","","","","make choice","2646","3","","","critical","c","t","d","164","240","240","164","237.1485","162.6685","trueblood","0.02","w","240","164","164","240","237.1485","162.6685","39360","39360","38576.5967","td","null","null","null","null","null","null","[2,3]","","",""
"","canvas-keyboard-response","180","144334","0.0-6.0-6.24","579","","","","","clear_screen","null","null","","","critical","c","t","d","164","240","240","164","237.1485","162.6685","trueblood","0.02","w","240","164","164","240","237.1485","162.6685","39360","39360","38576.5967","td","null","null","null","null","null","null","[2,3]","","",""
"","canvas-keyboard-response","181","144535","0.0-6.0-0.25","579","","","","","pre trial waiting period","null","null","","","critical","t","d","c","240","164","220.0396","154.6796","164","240","trueblood","0.14","w","240","164","164","240","220.0396","154.6796","39360","39360","34035.6388","tc","null","null","null","null","null","null","[1,3]","470.31986625451054","512.0971937099191","450.5497914777354"
"","canvas-keyboard-response","182","144557","0.0-6.0-1.25","579","","","","","clear_screen","null","null","","","critical","t","d","c","240","164","220.0396","154.6796","164","240","trueblood","0.14","w","240","164","164","240","220.0396","154.6796","39360","39360","34035.6388","tc","null","null","null","null","null","null","[1,3]","470.31986625451054","512.0971937099191","450.5497914777354"
"","canvas-keyboard-response","183","145068","0.0-6.0-2.25","579","","","","","rectangles no change","null","null","","","critical","t","d","c","240","164","220.0396","154.6796","164","240","trueblood","0.14","w","240","164","164","240","220.0396","154.6796","39360","39360","34035.6388","tc","null","null","null","null","null","null","[1,3]","470.31986625451054","512.0971937099191","450.5497914777354"
"","canvas-keyboard-response","184","146403","0.0-6.0-3.25","579","","","","","rectangles with change","null","null","","","critical","t","d","c","240","164","220.0396","154.6796","164","240","trueblood","0.14","w","240","164","164","240","220.0396","154.6796","39360","39360","34035.6388","tc","null","null","null","null","null","null","[1,3]","470.31986625451054","512.0971937099191","450.5497914777354"
"","canvas-keyboard-response","185","146428","0.0-6.0-4.25","579","","","","","clear_screen","null","null","","","critical","t","d","c","240","164","220.0396","154.6796","164","240","trueblood","0.14","w","240","164","164","240","220.0396","154.6796","39360","39360","34035.6388","tc","null","null","null","null","null","null","[1,3]","470.31986625451054","512.0971937099191","450.5497914777354"
"","canvas-keyboard-response","186","148210","0.0-6.0-5.25","579","","","","","make choice","1776","1","","","critical","t","d","c","240","164","220.0396","154.6796","164","240","trueblood","0.14","w","240","164","164","240","220.0396","154.6796","39360","39360","34035.6388","tc","null","null","null","null","null","null","[1,3]","","",""
"","canvas-keyboard-response","187","148229","0.0-6.0-6.25","579","","","","","clear_screen","null","null","","","critical","t","d","c","240","164","220.0396","154.6796","164","240","trueblood","0.14","w","240","164","164","240","220.0396","154.6796","39360","39360","34035.6388","tc","null","null","null","null","null","null","[1,3]","","",""
"","canvas-keyboard-response","188","148430","0.0-6.0-0.26","579","","","","","pre trial waiting period","null","null","","","critical","t","d","c","164","240","164","240","240","164","trueblood","0","h","164","240","240","164","164","240","39360","39360","39360","dc","null","null","null","null","null","null","[2,3]","468.41500395938715","445.7829273667265","478.2223216015085"
"","canvas-keyboard-response","189","148451","0.0-6.0-1.26","579","","","","","clear_screen","null","null","","","critical","t","d","c","164","240","164","240","240","164","trueblood","0","h","164","240","240","164","164","240","39360","39360","39360","dc","null","null","null","null","null","null","[2,3]","468.41500395938715","445.7829273667265","478.2223216015085"
"","canvas-keyboard-response","190","148962","0.0-6.0-2.26","579","","","","","rectangles no change","null","null","","","critical","t","d","c","164","240","164","240","240","164","trueblood","0","h","164","240","240","164","164","240","39360","39360","39360","dc","null","null","null","null","null","null","[2,3]","468.41500395938715","445.7829273667265","478.2223216015085"
"","canvas-keyboard-response","191","150296","0.0-6.0-3.26","579","","","","","rectangles with change","null","null","","","critical","t","d","c","164","240","164","240","240","164","trueblood","0","h","164","240","240","164","164","240","39360","39360","39360","dc","null","null","null","null","null","null","[2,3]","468.41500395938715","445.7829273667265","478.2223216015085"
"","canvas-keyboard-response","192","150316","0.0-6.0-4.26","579","","","","","clear_screen","null","null","","","critical","t","d","c","164","240","164","240","240","164","trueblood","0","h","164","240","240","164","164","240","39360","39360","39360","dc","null","null","null","null","null","null","[2,3]","468.41500395938715","445.7829273667265","478.2223216015085"
"","canvas-keyboard-response","193","151027","0.0-6.0-5.26","579","","","","","make choice","702","3","","","critical","t","d","c","164","240","164","240","240","164","trueblood","0","h","164","240","240","164","164","240","39360","39360","39360","dc","null","null","null","null","null","null","[2,3]","","",""
"","canvas-keyboard-response","194","151045","0.0-6.0-6.26","579","","","","","clear_screen","null","null","","","critical","t","d","c","164","240","164","240","240","164","trueblood","0","h","164","240","240","164","164","240","39360","39360","39360","dc","null","null","null","null","null","null","[2,3]","","",""
"","canvas-keyboard-response","195","151247","0.0-6.0-0.27","579","","","","","pre trial waiting period","null","null","","","catch","sh","l","sw","228","206","184","242","168","190","spektor","null","null","null","null","null","null","null","null","null","null","null","","180","200","260","200","36000","52000","[1,2]","517.0279129439626","109.83059235865288","514.5425849046321"
"","canvas-keyboard-response","196","151267","0.0-6.0-1.27","579","","","","","clear_screen","null","null","","","catch","sh","l","sw","228","206","184","242","168","190","spektor","null","null","null","null","null","null","null","null","null","null","null","","180","200","260","200","36000","52000","[1,2]","517.0279129439626","109.83059235865288","514.5425849046321"
"","canvas-keyboard-response","197","151778","0.0-6.0-2.27","579","","","","","rectangles no change","null","null","","","catch","sh","l","sw","228","206","184","242","168","190","spektor","null","null","null","null","null","null","null","null","null","null","null","","180","200","260","200","36000","52000","[1,2]","517.0279129439626","109.83059235865288","514.5425849046321"
"","canvas-keyboard-response","198","153113","0.0-6.0-3.27","579","","","","","rectangles with change","null","null","","","catch","sh","l","sw","228","206","184","242","168","190","spektor","null","null","null","null","null","null","null","null","null","null","null","","180","200","260","200","36000","52000","[1,2]","517.0279129439626","109.83059235865288","514.5425849046321"
"","canvas-keyboard-response","199","153132","0.0-6.0-4.27","579","","","","","clear_screen","null","null","","","catch","sh","l","sw","228","206","184","242","168","190","spektor","null","null","null","null","null","null","null","null","null","null","null","","180","200","260","200","36000","52000","[1,2]","517.0279129439626","109.83059235865288","514.5425849046321"
"","canvas-keyboard-response","200","153283","0.0-6.0-5.27","579","","","","","make choice","142","1","","","catch","sh","l","sw","228","206","184","242","168","190","spektor","null","null","null","null","null","null","null","null","null","null","null","","180","200","260","200","36000","52000","[1,2]","","",""
"","canvas-keyboard-response","201","153301","0.0-6.0-6.27","579","","","","","clear_screen","null","null","","","catch","sh","l","sw","228","206","184","242","168","190","spektor","null","null","null","null","null","null","null","null","null","null","null","","180","200","260","200","36000","52000","[1,2]","","",""
"","canvas-keyboard-response","202","153502","0.0-6.0-0.28","579","","","","","pre trial waiting period","null","null","","","critical","c","d","t","240","164","154.6796","220.0396","164","240","trueblood","0.14","h","164","240","240","164","154.6796","220.0396","39360","39360","34035.6388","tc","null","null","null","null","null","null","[3,1]","513.6546828746084","436.428500674416","461.541203874885"
"","canvas-keyboard-response","203","153522","0.0-6.0-1.28","579","","","","","clear_screen","null","null","","","critical","c","d","t","240","164","154.6796","220.0396","164","240","trueblood","0.14","h","164","240","240","164","154.6796","220.0396","39360","39360","34035.6388","tc","null","null","null","null","null","null","[3,1]","513.6546828746084","436.428500674416","461.541203874885"
"","canvas-keyboard-response","204","154033","0.0-6.0-2.28","579","","","","","rectangles no change","null","null","","","critical","c","d","t","240","164","154.6796","220.0396","164","240","trueblood","0.14","h","164","240","240","164","154.6796","220.0396","39360","39360","34035.6388","tc","null","null","null","null","null","null","[3,1]","513.6546828746084","436.428500674416","461.541203874885"
"","canvas-keyboard-response","205","155370","0.0-6.0-3.28","579","","","","","rectangles with change","null","null","","","critical","c","d","t","240","164","154.6796","220.0396","164","240","trueblood","0.14","h","164","240","240","164","154.6796","220.0396","39360","39360","34035.6388","tc","null","null","null","null","null","null","[3,1]","513.6546828746084","436.428500674416","461.541203874885"
"","canvas-keyboard-response","206","155396","0.0-6.0-4.28","579","","","","","clear_screen","null","null","","","critical","c","d","t","240","164","154.6796","220.0396","164","240","trueblood","0.14","h","164","240","240","164","154.6796","220.0396","39360","39360","34035.6388","tc","null","null","null","null","null","null","[3,1]","513.6546828746084","436.428500674416","461.541203874885"
"","canvas-keyboard-response","207","155539","0.0-6.0-5.28","579","","","","","make choice","136","1","","","critical","c","d","t","240","164","154.6796","220.0396","164","240","trueblood","0.14","h","164","240","240","164","154.6796","220.0396","39360","39360","34035.6388","tc","null","null","null","null","null","null","[3,1]","","",""
"","canvas-keyboard-response","208","155563","0.0-6.0-6.28","579","","","","","clear_screen","null","null","","","critical","c","d","t","240","164","154.6796","220.0396","164","240","trueblood","0.14","h","164","240","240","164","154.6796","220.0396","39360","39360","34035.6388","tc","null","null","null","null","null","null","[3,1]","","",""
"","canvas-keyboard-response","209","155764","0.0-6.0-0.29","579","","","","","pre trial waiting period","null","null","","","critical","d","t","c","220.0396","154.6796","240","164","164","240","trueblood","0.14","w","240","164","164","240","220.0396","154.6796","39360","39360","34035.6388","td","null","null","null","null","null","null","[2,1]","499.75576388512314","490.45297446701767","456.4920875022227"
"","canvas-keyboard-response","210","155791","0.0-6.0-1.29","579","","","","","clear_screen","null","null","","","critical","d","t","c","220.0396","154.6796","240","164","164","240","trueblood","0.14","w","240","164","164","240","220.0396","154.6796","39360","39360","34035.6388","td","null","null","null","null","null","null","[2,1]","499.75576388512314","490.45297446701767","456.4920875022227"
"","canvas-keyboard-response","211","156300","0.0-6.0-2.29","579","","","","","rectangles no change","null","null","","","critical","d","t","c","220.0396","154.6796","240","164","164","240","trueblood","0.14","w","240","164","164","240","220.0396","154.6796","39360","39360","34035.6388","td","null","null","null","null","null","null","[2,1]","499.75576388512314","490.45297446701767","456.4920875022227"
"","canvas-keyboard-response","212","157635","0.0-6.0-3.29","579","","","","","rectangles with change","null","null","","","critical","d","t","c","220.0396","154.6796","240","164","164","240","trueblood","0.14","w","240","164","164","240","220.0396","154.6796","39360","39360","34035.6388","td","null","null","null","null","null","null","[2,1]","499.75576388512314","490.45297446701767","456.4920875022227"
"","canvas-keyboard-response","213","157653","0.0-6.0-4.29","579","","","","","clear_screen","null","null","","","critical","d","t","c","220.0396","154.6796","240","164","164","240","trueblood","0.14","w","240","164","164","240","220.0396","154.6796","39360","39360","34035.6388","td","null","null","null","null","null","null","[2,1]","499.75576388512314","490.45297446701767","456.4920875022227"
"","canvas-keyboard-response","214","159674","0.0-6.0-5.29","579","","","","","make choice","2014","2","","","critical","d","t","c","220.0396","154.6796","240","164","164","240","trueblood","0.14","w","240","164","164","240","220.0396","154.6796","39360","39360","34035.6388","td","null","null","null","null","null","null","[2,1]","","",""
"","canvas-keyboard-response","215","159693","0.0-6.0-6.29","579","","","","","clear_screen","null","null","","","critical","d","t","c","220.0396","154.6796","240","164","164","240","trueblood","0.14","w","240","164","164","240","220.0396","154.6796","39360","39360","34035.6388","td","null","null","null","null","null","null","[2,1]","","",""
"","canvas-keyboard-response","216","159894","0.0-6.0-0.30","579","","","","","pre trial waiting period","null","null","","","critical","c","d","t","164","240","240","164","240","164","spektor","0","w","240","164","164","240","240","164","39360","39360","39360","dc","null","null","null","null","null","null","[2,1]","488.89109212095775","194.3056095067984","509.3476002747071"
"","canvas-keyboard-response","217","159913","0.0-6.0-1.30","579","","","","","clear_screen","null","null","","","critical","c","d","t","164","240","240","164","240","164","spektor","0","w","240","164","164","240","240","164","39360","39360","39360","dc","null","null","null","null","null","null","[2,1]","488.89109212095775","194.3056095067984","509.3476002747071"
"","canvas-keyboard-response","218","160425","0.0-6.0-2.30","579","","","","","rectangles no change","null","null","","","critical","c","d","t","164","240","240","164","240","164","spektor","0","w","240","164","164","240","240","164","39360","39360","39360","dc","null","null","null","null","null","null","[2,1]","488.89109212095775","194.3056095067984","509.3476002747071"
"","canvas-keyboard-response","219","161761","0.0-6.0-3.30","579","","","","","rectangles with change","null","null","","","critical","c","d","t","164","240","240","164","240","164","spektor","0","w","240","164","164","240","240","164","39360","39360","39360","dc","null","null","null","null","null","null","[2,1]","488.89109212095775","194.3056095067984","509.3476002747071"
"","canvas-keyboard-response","220","161780","0.0-6.0-4.30","579","","","","","clear_screen","null","null","","","critical","c","d","t","164","240","240","164","240","164","spektor","0","w","240","164","164","240","240","164","39360","39360","39360","dc","null","null","null","null","null","null","[2,1]","488.89109212095775","194.3056095067984","509.3476002747071"
"","canvas-keyboard-response","221","162242","0.0-6.0-5.30","579","","","","","make choice","455","2","","","critical","c","d","t","164","240","240","164","240","164","spektor","0","w","240","164","164","240","240","164","39360","39360","39360","dc","null","null","null","null","null","null","[2,1]","","",""
"","canvas-keyboard-response","222","162261","0.0-6.0-6.30","579","","","","","clear_screen","null","null","","","critical","c","d","t","164","240","240","164","240","164","spektor","0","w","240","164","164","240","240","164","39360","39360","39360","dc","null","null","null","null","null","null","[2,1]","","",""
"","canvas-keyboard-response","223","162462","0.0-6.0-0.31","579","","","","","pre trial waiting period","null","null","","","critical","c","t","d","240","164","164","240","154.6796","220.0396","spektor","0.14","h","164","240","240","164","154.6796","220.0396","39360","39360","34035.6388","tc","null","null","null","null","null","null","[2,1]","524.3415125197138","132.8317359326488","506.23959171655525"
"","canvas-keyboard-response","224","162481","0.0-6.0-1.31","579","","","","","clear_screen","null","null","","","critical","c","t","d","240","164","164","240","154.6796","220.0396","spektor","0.14","h","164","240","240","164","154.6796","220.0396","39360","39360","34035.6388","tc","null","null","null","null","null","null","[2,1]","524.3415125197138","132.8317359326488","506.23959171655525"
"","canvas-keyboard-response","225","162994","0.0-6.0-2.31","579","","","","","rectangles no change","null","null","","","critical","c","t","d","240","164","164","240","154.6796","220.0396","spektor","0.14","h","164","240","240","164","154.6796","220.0396","39360","39360","34035.6388","tc","null","null","null","null","null","null","[2,1]","524.3415125197138","132.8317359326488","506.23959171655525"
"","canvas-keyboard-response","226","164329","0.0-6.0-3.31","579","","","","","rectangles with change","null","null","","","critical","c","t","d","240","164","164","240","154.6796","220.0396","spektor","0.14","h","164","240","240","164","154.6796","220.0396","39360","39360","34035.6388","tc","null","null","null","null","null","null","[2,1]","524.3415125197138","132.8317359326488","506.23959171655525"
"","canvas-keyboard-response","227","164348","0.0-6.0-4.31","579","","","","","clear_screen","null","null","","","critical","c","t","d","240","164","164","240","154.6796","220.0396","spektor","0.14","h","164","240","240","164","154.6796","220.0396","39360","39360","34035.6388","tc","null","null","null","null","null","null","[2,1]","524.3415125197138","132.8317359326488","506.23959171655525"
"","canvas-keyboard-response","228","165298","0.0-6.0-5.31","579","","","","","make choice","942","1","","","critical","c","t","d","240","164","164","240","154.6796","220.0396","spektor","0.14","h","164","240","240","164","154.6796","220.0396","39360","39360","34035.6388","tc","null","null","null","null","null","null","[2,1]","","",""
"","canvas-keyboard-response","229","165317","0.0-6.0-6.31","579","","","","","clear_screen","null","null","","","critical","c","t","d","240","164","164","240","154.6796","220.0396","spektor","0.14","h","164","240","240","164","154.6796","220.0396","39360","39360","34035.6388","tc","null","null","null","null","null","null","[2,1]","","",""
"","canvas-keyboard-response","230","165518","0.0-6.0-0.32","579","","","","","pre trial waiting period","null","null","","","critical","t","d","c","240","164","227.1683","158.0083","164","240","spektor","0.09","w","240","164","164","240","227.1683","158.0083","39360","39360","35894.4834","dc","null","null","null","null","null","null","[2,3]","528.1750792760513","191.04328259132043","468.8205407502354"
"","canvas-keyboard-response","231","165537","0.0-6.0-1.32","579","","","","","clear_screen","null","null","","","critical","t","d","c","240","164","227.1683","158.0083","164","240","spektor","0.09","w","240","164","164","240","227.1683","158.0083","39360","39360","35894.4834","dc","null","null","null","null","null","null","[2,3]","528.1750792760513","191.04328259132043","468.8205407502354"
"","canvas-keyboard-response","232","166048","0.0-6.0-2.32","579","","","","","rectangles no change","null","null","","","critical","t","d","c","240","164","227.1683","158.0083","164","240","spektor","0.09","w","240","164","164","240","227.1683","158.0083","39360","39360","35894.4834","dc","null","null","null","null","null","null","[2,3]","528.1750792760513","191.04328259132043","468.8205407502354"
"","canvas-keyboard-response","233","167383","0.0-6.0-3.32","579","","","","","rectangles with change","null","null","","","critical","t","d","c","240","164","227.1683","158.0083","164","240","spektor","0.09","w","240","164","164","240","227.1683","158.0083","39360","39360","35894.4834","dc","null","null","null","null","null","null","[2,3]","528.1750792760513","191.04328259132043","468.8205407502354"
"","canvas-keyboard-response","234","167403","0.0-6.0-4.32","579","","","","","clear_screen","null","null","","","critical","t","d","c","240","164","227.1683","158.0083","164","240","spektor","0.09","w","240","164","164","240","227.1683","158.0083","39360","39360","35894.4834","dc","null","null","null","null","null","null","[2,3]","528.1750792760513","191.04328259132043","468.8205407502354"
"","canvas-keyboard-response","235","167506","0.0-6.0-5.32","579","","","","","make choice","94","3","","","critical","t","d","c","240","164","227.1683","158.0083","164","240","spektor","0.09","w","240","164","164","240","227.1683","158.0083","39360","39360","35894.4834","dc","null","null","null","null","null","null","[2,3]","","",""
"","canvas-keyboard-response","236","167535","0.0-6.0-6.32","579","","","","","clear_screen","null","null","","","critical","t","d","c","240","164","227.1683","158.0083","164","240","spektor","0.09","w","240","164","164","240","227.1683","158.0083","39360","39360","35894.4834","dc","null","null","null","null","null","null","[2,3]","","",""
"","canvas-keyboard-response","237","167735","0.0-6.0-0.33","579","","","","","pre trial waiting period","null","null","","","critical","d","t","c","220.0396","154.6796","240","164","164","240","spektor","0.14","w","240","164","164","240","220.0396","154.6796","39360","39360","34035.6388","dc","null","null","null","null","null","null","[1,3]","543.820047431837","195.93894236065782","469.7266015737976"
"","canvas-keyboard-response","238","167755","0.0-6.0-1.33","579","","","","","clear_screen","null","null","","","critical","d","t","c","220.0396","154.6796","240","164","164","240","spektor","0.14","w","240","164","164","240","220.0396","154.6796","39360","39360","34035.6388","dc","null","null","null","null","null","null","[1,3]","543.820047431837","195.93894236065782","469.7266015737976"
"","canvas-keyboard-response","239","168266","0.0-6.0-2.33","579","","","","","rectangles no change","null","null","","","critical","d","t","c","220.0396","154.6796","240","164","164","240","spektor","0.14","w","240","164","164","240","220.0396","154.6796","39360","39360","34035.6388","dc","null","null","null","null","null","null","[1,3]","543.820047431837","195.93894236065782","469.7266015737976"
"","canvas-keyboard-response","240","169600","0.0-6.0-3.33","579","","","","","rectangles with change","null","null","","","critical","d","t","c","220.0396","154.6796","240","164","164","240","spektor","0.14","w","240","164","164","240","220.0396","154.6796","39360","39360","34035.6388","dc","null","null","null","null","null","null","[1,3]","543.820047431837","195.93894236065782","469.7266015737976"
"","canvas-keyboard-response","241","169619","0.0-6.0-4.33","579","","","","","clear_screen","null","null","","","critical","d","t","c","220.0396","154.6796","240","164","164","240","spektor","0.14","w","240","164","164","240","220.0396","154.6796","39360","39360","34035.6388","dc","null","null","null","null","null","null","[1,3]","543.820047431837","195.93894236065782","469.7266015737976"
"","canvas-keyboard-response","242","169634","0.0-6.0-5.33","579","","","","","make choice","7","3","","","critical","d","t","c","220.0396","154.6796","240","164","164","240","spektor","0.14","w","240","164","164","240","220.0396","154.6796","39360","39360","34035.6388","dc","null","null","null","null","null","null","[1,3]","","",""
"","canvas-keyboard-response","243","169652","0.0-6.0-6.33","579","","","","","clear_screen","null","null","","","critical","d","t","c","220.0396","154.6796","240","164","164","240","spektor","0.14","w","240","164","164","240","220.0396","154.6796","39360","39360","34035.6388","dc","null","null","null","null","null","null","[1,3]","","",""
"","canvas-keyboard-response","244","169853","0.0-6.0-0.34","579","","","","","pre trial waiting period","null","null","","","critical","t","d","c","164","240","154.6796","220.0396","240","164","trueblood","0.14","h","164","240","240","164","154.6796","220.0396","39360","39360","34035.6388","dc","null","null","null","null","null","null","[2,3]","459.9362694755292","471.39958074487197","495.3414959037993"
"","canvas-keyboard-response","245","169872","0.0-6.0-1.34","579","","","","","clear_screen","null","null","","","critical","t","d","c","164","240","154.6796","220.0396","240","164","trueblood","0.14","h","164","240","240","164","154.6796","220.0396","39360","39360","34035.6388","dc","null","null","null","null","null","null","[2,3]","459.9362694755292","471.39958074487197","495.3414959037993"
"","canvas-keyboard-response","246","170383","0.0-6.0-2.34","579","","","","","rectangles no change","null","null","","","critical","t","d","c","164","240","154.6796","220.0396","240","164","trueblood","0.14","h","164","240","240","164","154.6796","220.0396","39360","39360","34035.6388","dc","null","null","null","null","null","null","[2,3]","459.9362694755292","471.39958074487197","495.3414959037993"
"","canvas-keyboard-response","247","171718","0.0-6.0-3.34","579","","","","","rectangles with change","null","null","","","critical","t","d","c","164","240","154.6796","220.0396","240","164","trueblood","0.14","h","164","240","240","164","154.6796","220.0396","39360","39360","34035.6388","dc","null","null","null","null","null","null","[2,3]","459.9362694755292","471.39958074487197","495.3414959037993"
"","canvas-keyboard-response","248","171737","0.0-6.0-4.34","579","","","","","clear_screen","null","null","","","critical","t","d","c","164","240","154.6796","220.0396","240","164","trueblood","0.14","h","164","240","240","164","154.6796","220.0396","39360","39360","34035.6388","dc","null","null","null","null","null","null","[2,3]","459.9362694755292","471.39958074487197","495.3414959037993"
"","canvas-keyboard-response","249","173498","0.0-6.0-5.34","579","","","","","make choice","1754","3","","","critical","t","d","c","164","240","154.6796","220.0396","240","164","trueblood","0.14","h","164","240","240","164","154.6796","220.0396","39360","39360","34035.6388","dc","null","null","null","null","null","null","[2,3]","","",""
"","canvas-keyboard-response","250","173516","0.0-6.0-6.34","579","","","","","clear_screen","null","null","","","critical","t","d","c","164","240","154.6796","220.0396","240","164","trueblood","0.14","h","164","240","240","164","154.6796","220.0396","39360","39360","34035.6388","dc","null","null","null","null","null","null","[2,3]","","",""
"","canvas-keyboard-response","251","173717","0.0-6.0-0.35","579","","","","","pre trial waiting period","null","null","","","critical","c","t","d","164","240","240","164","227.1683","158.0083","trueblood","0.09","w","240","164","164","240","227.1683","158.0083","39360","39360","35894.4834","tc","null","null","null","null","null","null","[2,1]","421.2942674645304","491.60653455817527","486.2331252398025"
"","canvas-keyboard-response","252","173737","0.0-6.0-1.35","579","","","","","clear_screen","null","null","","","critical","c","t","d","164","240","240","164","227.1683","158.0083","trueblood","0.09","w","240","164","164","240","227.1683","158.0083","39360","39360","35894.4834","tc","null","null","null","null","null","null","[2,1]","421.2942674645304","491.60653455817527","486.2331252398025"
"","canvas-keyboard-response","253","174247","0.0-6.0-2.35","579","","","","","rectangles no change","null","null","","","critical","c","t","d","164","240","240","164","227.1683","158.0083","trueblood","0.09","w","240","164","164","240","227.1683","158.0083","39360","39360","35894.4834","tc","null","null","null","null","null","null","[2,1]","421.2942674645304","491.60653455817527","486.2331252398025"
"","canvas-keyboard-response","254","175581","0.0-6.0-3.35","579","","","","","rectangles with change","null","null","","","critical","c","t","d","164","240","240","164","227.1683","158.0083","trueblood","0.09","w","240","164","164","240","227.1683","158.0083","39360","39360","35894.4834","tc","null","null","null","null","null","null","[2,1]","421.2942674645304","491.60653455817527","486.2331252398025"
"","canvas-keyboard-response","255","175599","0.0-6.0-4.35","579","","","","","clear_screen","null","null","","","critical","c","t","d","164","240","240","164","227.1683","158.0083","trueblood","0.09","w","240","164","164","240","227.1683","158.0083","39360","39360","35894.4834","tc","null","null","null","null","null","null","[2,1]","421.2942674645304","491.60653455817527","486.2331252398025"
"","canvas-keyboard-response","256","175643","0.0-6.0-5.35","579","","","","","make choice","35","2","","","critical","c","t","d","164","240","240","164","227.1683","158.0083","trueblood","0.09","w","240","164","164","240","227.1683","158.0083","39360","39360","35894.4834","tc","null","null","null","null","null","null","[2,1]","","",""
"","canvas-keyboard-response","257","175660","0.0-6.0-6.35","579","","","","","clear_screen","null","null","","","critical","c","t","d","164","240","240","164","227.1683","158.0083","trueblood","0.09","w","240","164","164","240","227.1683","158.0083","39360","39360","35894.4834","tc","null","null","null","null","null","null","[2,1]","","",""
"","canvas-keyboard-response","258","175862","0.0-6.0-0.36","579","","","","","pre trial waiting period","null","null","","","critical","c","d","t","240","164","164","240","164","240","spektor","0","h","164","240","240","164","164","240","39360","39360","39360","dc","null","null","null","null","null","null","[2,1]","533.8959944359348","139.1698995068718","501.28594281159184"
"","canvas-keyboard-response","259","175882","0.0-6.0-1.36","579","","","","","clear_screen","null","null","","","critical","c","d","t","240","164","164","240","164","240","spektor","0","h","164","240","240","164","164","240","39360","39360","39360","dc","null","null","null","null","null","null","[2,1]","533.8959944359348","139.1698995068718","501.28594281159184"
"","canvas-keyboard-response","260","176397","0.0-6.0-2.36","579","","","","","rectangles no change","null","null","","","critical","c","d","t","240","164","164","240","164","240","spektor","0","h","164","240","240","164","164","240","39360","39360","39360","dc","null","null","null","null","null","null","[2,1]","533.8959944359348","139.1698995068718","501.28594281159184"
"","canvas-keyboard-response","261","177732","0.0-6.0-3.36","579","","","","","rectangles with change","null","null","","","critical","c","d","t","240","164","164","240","164","240","spektor","0","h","164","240","240","164","164","240","39360","39360","39360","dc","null","null","null","null","null","null","[2,1]","533.8959944359348","139.1698995068718","501.28594281159184"
"","canvas-keyboard-response","262","177750","0.0-6.0-4.36","579","","","","","clear_screen","null","null","","","critical","c","d","t","240","164","164","240","164","240","spektor","0","h","164","240","240","164","164","240","39360","39360","39360","dc","null","null","null","null","null","null","[2,1]","533.8959944359348","139.1698995068718","501.28594281159184"
"","canvas-keyboard-response","263","178553","0.0-6.0-5.36","579","","","","","make choice","794","1","","","critical","c","d","t","240","164","164","240","164","240","spektor","0","h","164","240","240","164","164","240","39360","39360","39360","dc","null","null","null","null","null","null","[2,1]","","",""
"","canvas-keyboard-response","264","178579","0.0-6.0-6.36","579","","","","","clear_screen","null","null","","","critical","c","d","t","240","164","164","240","164","240","spektor","0","h","164","240","240","164","164","240","39360","39360","39360","dc","null","null","null","null","null","null","[2,1]","","",""
"","canvas-keyboard-response","265","178779","0.0-6.0-0.37","579","","","","","pre trial waiting period","null","null","","","critical","t","c","d","164","240","240","164","164","240","trueblood","0","h","164","240","240","164","164","240","39360","39360","39360","tc","null","null","null","null","null","null","[1,2]","461.71318466702036","505.05761891142737","439.1959967056638"
"","canvas-keyboard-response","266","178799","0.0-6.0-1.37","579","","","","","clear_screen","null","null","","","critical","t","c","d","164","240","240","164","164","240","trueblood","0","h","164","240","240","164","164","240","39360","39360","39360","tc","null","null","null","null","null","null","[1,2]","461.71318466702036","505.05761891142737","439.1959967056638"
