"success","trial_type","trial_index","time_elapsed","internal_node_id","sub_n","timeout","failed_images","failed_audio","failed_video","screen_id","rt","response","stimulus","view_history","trial","r1","r2","r3","w1","h1","w2","h2","w3","h3","display","tdd","tdo","tw","th","cw","ch","dw","dh","ta","ca","da","probe","csls","csss","clls","clss","sa","la","probe_rects","r1yloc","r2yloc","r3yloc"
"true","fullscreen","0","2605","0.0-0.0","534","","","","","","","","","","","","","","","","","","","","","","","","","","","","","","","","","","","","","","","","","",""
"true","preload","1","2620","0.0-1.0","534","false","[]","[]","[]","img preload","","","","","","","","","","","","","","","","","","","","","","","","","","","","","","","","","","","","",""
"","survey-html-form","2","24336","0.0-2.0","534","","","","","enter-sub-number","21704","{""response"":""534""}","","","","","","","","","","","","","","","","","","","","","","","","","","","","","","","","","","",""
"","image-button-response","3","28405","0.0-3.0","534","","","","","","4004","0","consent.png","","","","","","","","","","","","","","","","","","","","","","","","","","","","","","","","","",""
"","html-button-response","4","33356","0.0-4.0","534","","","","","intro mssg","4946","0","<div style= ""font-size:25px;"" <p> <strong> Welcome! </strong><br> <p style=""color:#8B0000; font-size:25px;""><strong> Please do NOT exit full screen until you are done with the experiment. </strong> </p><p style=""font-size:25px;color:#8B0000;""> <strong> Your data will be lost <br> if you try to go back or refresh the page after the experiment starts. Feel free to click ""previous"" during the instructions, however.</strong> </p><br><p> <strong> Thanks in advance for your contribution to our research! </strong></p>","","","","","","","","","","","","","","","","","","","","","","","","","","","","","","","","","",""
"","instructions","5","90366","0.0-5.0","534","","","","","instructions","57004","","","[{""page_index"":0,""viewing_time"":10036},{""page_index"":1,""viewing_time"":12096},{""page_index"":2,""viewing_time"":3808},{""page_index"":3,""viewing_time"":15240},{""page_index"":4,""viewing_time"":6929},{""page_index"":5,""viewing_time"":3854},{""page_index"":6,""viewing_time"":3234},{""page_index"":7,""viewing_time"":1807}]","","","","","","","","","","","","","","","","","","","","","","","","","","","","","","","","",""
"","canvas-keyboard-response","6","90571","0.0-6.0-0.0","534","","","","","pre trial waiting period","null","null","","","catch","sw","sh","l","180","200","211","195","204","264","trueblood","null","null","null","null","null","null","null","null","null","null","null","","180","200","260","200","36000","52000","[2,3]","480.85930630951407","497.1810114126053","432.959190071602"
"","canvas-keyboard-response","7","90598","0.0-6.0-1.0","534","","","","","clear_screen","null","null","","","catch","sw","sh","l","180","200","211","195","204","264","trueblood","null","null","null","null","null","null","null","null","null","null","null","","180","200","260","200","36000","52000","[2,3]","480.85930630951407","497.1810114126053","432.959190071602"
"","canvas-keyboard-response","8","91108","0.0-6.0-2.0","534","","","","","rectangles no change","null","null","","","catch","sw","sh","l","180","200","211","195","204","264","trueblood","null","null","null","null","null","null","null","null","null","null","null","","180","200","260","200","36000","52000","[2,3]","480.85930630951407","497.1810114126053","432.959190071602"
"","canvas-keyboard-response","9","92446","0.0-6.0-3.0","534","","","","","rectangles with change","null","null","","","catch","sw","sh","l","180","200","211","195","204","264","trueblood","null","null","null","null","null","null","null","null","null","null","null","","180","200","260","200","36000","52000","[2,3]","480.85930630951407","497.1810114126053","432.959190071602"
"","canvas-keyboard-response","10","92465","0.0-6.0-4.0","534","","","","","clear_screen","null","null","","","catch","sw","sh","l","180","200","211","195","204","264","trueblood","null","null","null","null","null","null","null","null","null","null","null","","180","200","260","200","36000","52000","[2,3]","480.85930630951407","497.1810114126053","432.959190071602"
"","canvas-keyboard-response","11","98613","0.0-6.0-5.0","534","","","","","make choice","6141","3","","","catch","sw","sh","l","180","200","211","195","204","264","trueblood","null","null","null","null","null","null","null","null","null","null","null","","180","200","260","200","36000","52000","[2,3]","","",""
"","canvas-keyboard-response","12","98633","0.0-6.0-6.0","534","","","","","clear_screen","null","null","","","catch","sw","sh","l","180","200","211","195","204","264","trueblood","null","null","null","null","null","null","null","null","null","null","null","","180","200","260","200","36000","52000","[2,3]","","",""
"","canvas-keyboard-response","13","98836","0.0-6.0-0.1","534","","","","","pre trial waiting period","null","null","","","catch","l","sh","sw","198","242","180","170","210","234","trueblood","null","null","null","null","null","null","null","null","null","null","null","","180","200","260","200","36000","52000","[1,2]","460.7068050663886","511.7757402655552","439.3256388740747"
"","canvas-keyboard-response","14","98859","0.0-6.0-1.1","534","","","","","clear_screen","null","null","","","catch","l","sh","sw","198","242","180","170","210","234","trueblood","null","null","null","null","null","null","null","null","null","null","null","","180","200","260","200","36000","52000","[1,2]","460.7068050663886","511.7757402655552","439.3256388740747"
"","canvas-keyboard-response","15","99364","0.0-6.0-2.1","534","","","","","rectangles no change","null","null","","","catch","l","sh","sw","198","242","180","170","210","234","trueblood","null","null","null","null","null","null","null","null","null","null","null","","180","200","260","200","36000","52000","[1,2]","460.7068050663886","511.7757402655552","439.3256388740747"
"","canvas-keyboard-response","16","100699","0.0-6.0-3.1","534","","","","","rectangles with change","null","null","","","catch","l","sh","sw","198","242","180","170","210","234","trueblood","null","null","null","null","null","null","null","null","null","null","null","","180","200","260","200","36000","52000","[1,2]","460.7068050663886","511.7757402655552","439.3256388740747"
"","canvas-keyboard-response","17","100723","0.0-6.0-4.1","534","","","","","clear_screen","null","null","","","catch","l","sh","sw","198","242","180","170","210","234","trueblood","null","null","null","null","null","null","null","null","null","null","null","","180","200","260","200","36000","52000","[1,2]","460.7068050663886","511.7757402655552","439.3256388740747"
"","canvas-keyboard-response","18","102941","0.0-6.0-5.1","534","","","","","make choice","2210","1","","","catch","l","sh","sw","198","242","180","170","210","234","trueblood","null","null","null","null","null","null","null","null","null","null","null","","180","200","260","200","36000","52000","[1,2]","","",""
"","canvas-keyboard-response","19","102959","0.0-6.0-6.1","534","","","","","clear_screen","null","null","","","catch","l","sh","sw","198","242","180","170","210","234","trueblood","null","null","null","null","null","null","null","null","null","null","null","","180","200","260","200","36000","52000","[1,2]","","",""
"","canvas-keyboard-response","20","103161","0.0-6.0-0.2","534","","","","","pre trial waiting period","null","null","","","critical","c","d","t","240","164","158.0083","227.1683","164","240","trueblood","0.09","h","164","240","240","164","158.0083","227.1683","39360","39360","35894.4834","tc","null","null","null","null","null","null","[3,1]","512.1067429996862","452.97239569965024","429.0279065537024"
"","canvas-keyboard-response","21","103180","0.0-6.0-1.2","534","","","","","clear_screen","null","null","","","critical","c","d","t","240","164","158.0083","227.1683","164","240","trueblood","0.09","h","164","240","240","164","158.0083","227.1683","39360","39360","35894.4834","tc","null","null","null","null","null","null","[3,1]","512.1067429996862","452.97239569965024","429.0279065537024"
"","canvas-keyboard-response","22","103688","0.0-6.0-2.2","534","","","","","rectangles no change","null","null","","","critical","c","d","t","240","164","158.0083","227.1683","164","240","trueblood","0.09","h","164","240","240","164","158.0083","227.1683","39360","39360","35894.4834","tc","null","null","null","null","null","null","[3,1]","512.1067429996862","452.97239569965024","429.0279065537024"
"","canvas-keyboard-response","23","105023","0.0-6.0-3.2","534","","","","","rectangles with change","null","null","","","critical","c","d","t","240","164","158.0083","227.1683","164","240","trueblood","0.09","h","164","240","240","164","158.0083","227.1683","39360","39360","35894.4834","tc","null","null","null","null","null","null","[3,1]","512.1067429996862","452.97239569965024","429.0279065537024"
"","canvas-keyboard-response","24","105044","0.0-6.0-4.2","534","","","","","clear_screen","null","null","","","critical","c","d","t","240","164","158.0083","227.1683","164","240","trueblood","0.09","h","164","240","240","164","158.0083","227.1683","39360","39360","35894.4834","tc","null","null","null","null","null","null","[3,1]","512.1067429996862","452.97239569965024","429.0279065537024"
"","canvas-keyboard-response","25","106956","0.0-6.0-5.2","534","","","","","make choice","1907","3","","","critical","c","d","t","240","164","158.0083","227.1683","164","240","trueblood","0.09","h","164","240","240","164","158.0083","227.1683","39360","39360","35894.4834","tc","null","null","null","null","null","null","[3,1]","","",""
"","canvas-keyboard-response","26","106973","0.0-6.0-6.2","534","","","","","clear_screen","null","null","","","critical","c","d","t","240","164","158.0083","227.1683","164","240","trueblood","0.09","h","164","240","240","164","158.0083","227.1683","39360","39360","35894.4834","tc","null","null","null","null","null","null","[3,1]","","",""
"","canvas-keyboard-response","27","107174","0.0-6.0-0.3","534","","","","","pre trial waiting period","null","null","","","critical","d","t","c","240","164","240","164","164","240","spektor","0","w","240","164","164","240","240","164","39360","39360","39360","dc","null","null","null","null","null","null","[1,3]","514.0104346743747","170.1331417493432","462.2468546341936"
"","canvas-keyboard-response","28","107196","0.0-6.0-1.3","534","","","","","clear_screen","null","null","","","critical","d","t","c","240","164","240","164","164","240","spektor","0","w","240","164","164","240","240","164","39360","39360","39360","dc","null","null","null","null","null","null","[1,3]","514.0104346743747","170.1331417493432","462.2468546341936"
"","canvas-keyboard-response","29","107704","0.0-6.0-2.3","534","","","","","rectangles no change","null","null","","","critical","d","t","c","240","164","240","164","164","240","spektor","0","w","240","164","164","240","240","164","39360","39360","39360","dc","null","null","null","null","null","null","[1,3]","514.0104346743747","170.1331417493432","462.2468546341936"
"","canvas-keyboard-response","30","109039","0.0-6.0-3.3","534","","","","","rectangles with change","null","null","","","critical","d","t","c","240","164","240","164","164","240","spektor","0","w","240","164","164","240","240","164","39360","39360","39360","dc","null","null","null","null","null","null","[1,3]","514.0104346743747","170.1331417493432","462.2468546341936"
"","canvas-keyboard-response","31","109053","0.0-6.0-4.3","534","","","","","clear_screen","null","null","","","critical","d","t","c","240","164","240","164","164","240","spektor","0","w","240","164","164","240","240","164","39360","39360","39360","dc","null","null","null","null","null","null","[1,3]","514.0104346743747","170.1331417493432","462.2468546341936"
"","canvas-keyboard-response","32","110948","0.0-6.0-5.3","534","","","","","make choice","1890","3","","","critical","d","t","c","240","164","240","164","164","240","spektor","0","w","240","164","164","240","240","164","39360","39360","39360","dc","null","null","null","null","null","null","[1,3]","","",""
"","canvas-keyboard-response","33","110970","0.0-6.0-6.3","534","","","","","clear_screen","null","null","","","critical","d","t","c","240","164","240","164","164","240","spektor","0","w","240","164","164","240","240","164","39360","39360","39360","dc","null","null","null","null","null","null","[1,3]","","",""
"","canvas-keyboard-response","34","111171","0.0-6.0-0.4","534","","","","","pre trial waiting period","null","null","","","critical","d","c","t","240","164","164","240","240","164","spektor","0","w","240","164","164","240","240","164","39360","39360","39360","tc","null","null","null","null","null","null","[3,2]","507.69179972872126","149.20256413409138","523.373114170446"
"","canvas-keyboard-response","35","111193","0.0-6.0-1.4","534","","","","","clear_screen","null","null","","","critical","d","c","t","240","164","164","240","240","164","spektor","0","w","240","164","164","240","240","164","39360","39360","39360","tc","null","null","null","null","null","null","[3,2]","507.69179972872126","149.20256413409138","523.373114170446"
"","canvas-keyboard-response","36","111698","0.0-6.0-2.4","534","","","","","rectangles no change","null","null","","","critical","d","c","t","240","164","164","240","240","164","spektor","0","w","240","164","164","240","240","164","39360","39360","39360","tc","null","null","null","null","null","null","[3,2]","507.69179972872126","149.20256413409138","523.373114170446"
"","canvas-keyboard-response","37","113034","0.0-6.0-3.4","534","","","","","rectangles with change","null","null","","","critical","d","c","t","240","164","164","240","240","164","spektor","0","w","240","164","164","240","240","164","39360","39360","39360","tc","null","null","null","null","null","null","[3,2]","507.69179972872126","149.20256413409138","523.373114170446"
"","canvas-keyboard-response","38","113055","0.0-6.0-4.4","534","","","","","clear_screen","null","null","","","critical","d","c","t","240","164","164","240","240","164","spektor","0","w","240","164","164","240","240","164","39360","39360","39360","tc","null","null","null","null","null","null","[3,2]","507.69179972872126","149.20256413409138","523.373114170446"
"","canvas-keyboard-response","39","114228","0.0-6.0-5.4","534","","","","","make choice","1166","3","","","critical","d","c","t","240","164","164","240","240","164","spektor","0","w","240","164","164","240","240","164","39360","39360","39360","tc","null","null","null","null","null","null","[3,2]","","",""
"","canvas-keyboard-response","40","114248","0.0-6.0-6.4","534","","","","","clear_screen","null","null","","","critical","d","c","t","240","164","164","240","240","164","spektor","0","w","240","164","164","240","240","164","39360","39360","39360","tc","null","null","null","null","null","null","[3,2]","","",""
"","canvas-keyboard-response","41","114449","0.0-6.0-0.5","534","","","","","pre trial waiting period","null","null","","","critical","t","d","c","164","240","160.6713","232.8713","240","164","trueblood","0.05","h","164","240","240","164","160.6713","232.8713","39360","39360","37415.7294","dc","null","null","null","null","null","null","[2,3]","430.2191541753175","467.9569330092503","508.43614592264726"
"","canvas-keyboard-response","42","114468","0.0-6.0-1.5","534","","","","","clear_screen","null","null","","","critical","t","d","c","164","240","160.6713","232.8713","240","164","trueblood","0.05","h","164","240","240","164","160.6713","232.8713","39360","39360","37415.7294","dc","null","null","null","null","null","null","[2,3]","430.2191541753175","467.9569330092503","508.43614592264726"
"","canvas-keyboard-response","43","114980","0.0-6.0-2.5","534","","","","","rectangles no change","null","null","","","critical","t","d","c","164","240","160.6713","232.8713","240","164","trueblood","0.05","h","164","240","240","164","160.6713","232.8713","39360","39360","37415.7294","dc","null","null","null","null","null","null","[2,3]","430.2191541753175","467.9569330092503","508.43614592264726"
"","canvas-keyboard-response","44","116317","0.0-6.0-3.5","534","","","","","rectangles with change","null","null","","","critical","t","d","c","164","240","160.6713","232.8713","240","164","trueblood","0.05","h","164","240","240","164","160.6713","232.8713","39360","39360","37415.7294","dc","null","null","null","null","null","null","[2,3]","430.2191541753175","467.9569330092503","508.43614592264726"
"","canvas-keyboard-response","45","116340","0.0-6.0-4.5","534","","","","","clear_screen","null","null","","","critical","t","d","c","164","240","160.6713","232.8713","240","164","trueblood","0.05","h","164","240","240","164","160.6713","232.8713","39360","39360","37415.7294","dc","null","null","null","null","null","null","[2,3]","430.2191541753175","467.9569330092503","508.43614592264726"
"","canvas-keyboard-response","46","118132","0.0-6.0-5.5","534","","","","","make choice","1787","3","","","critical","t","d","c","164","240","160.6713","232.8713","240","164","trueblood","0.05","h","164","240","240","164","160.6713","232.8713","39360","39360","37415.7294","dc","null","null","null","null","null","null","[2,3]","","",""
"","canvas-keyboard-response","47","118151","0.0-6.0-6.5","534","","","","","clear_screen","null","null","","","critical","t","d","c","164","240","160.6713","232.8713","240","164","trueblood","0.05","h","164","240","240","164","160.6713","232.8713","39360","39360","37415.7294","dc","null","null","null","null","null","null","[2,3]","","",""
"","canvas-keyboard-response","48","118352","0.0-6.0-0.6","534","","","","","pre trial waiting period","null","null","","","critical","d","c","t","164","240","240","164","164","240","trueblood","0","h","164","240","240","164","164","240","39360","39360","39360","td","null","null","null","null","null","null","[3,1]","430.5022940069932","507.07961412333486","462.8527345269716"
"","canvas-keyboard-response","49","118376","0.0-6.0-1.6","534","","","","","clear_screen","null","null","","","critical","d","c","t","164","240","240","164","164","240","trueblood","0","h","164","240","240","164","164","240","39360","39360","39360","td","null","null","null","null","null","null","[3,1]","430.5022940069932","507.07961412333486","462.8527345269716"
"","canvas-keyboard-response","50","118883","0.0-6.0-2.6","534","","","","","rectangles no change","null","null","","","critical","d","c","t","164","240","240","164","164","240","trueblood","0","h","164","240","240","164","164","240","39360","39360","39360","td","null","null","null","null","null","null","[3,1]","430.5022940069932","507.07961412333486","462.8527345269716"
"","canvas-keyboard-response","51","120218","0.0-6.0-3.6","534","","","","","rectangles with change","null","null","","","critical","d","c","t","164","240","240","164","164","240","trueblood","0","h","164","240","240","164","164","240","39360","39360","39360","td","null","null","null","null","null","null","[3,1]","430.5022940069932","507.07961412333486","462.8527345269716"
"","canvas-keyboard-response","52","120240","0.0-6.0-4.6","534","","","","","clear_screen","null","null","","","critical","d","c","t","164","240","240","164","164","240","trueblood","0","h","164","240","240","164","164","240","39360","39360","39360","td","null","null","null","null","null","null","[3,1]","430.5022940069932","507.07961412333486","462.8527345269716"
"","canvas-keyboard-response","53","123340","0.0-6.0-5.6","534","","","","","make choice","3093","1","","","critical","d","c","t","164","240","240","164","164","240","trueblood","0","h","164","240","240","164","164","240","39360","39360","39360","td","null","null","null","null","null","null","[3,1]","","",""
"","canvas-keyboard-response","54","123360","0.0-6.0-6.6","534","","","","","clear_screen","null","null","","","critical","d","c","t","164","240","240","164","164","240","trueblood","0","h","164","240","240","164","164","240","39360","39360","39360","td","null","null","null","null","null","null","[3,1]","","",""
"","canvas-keyboard-response","55","123562","0.0-6.0-0.7","534","","","","","pre trial waiting period","null","null","","","catch","l","sw","sh","236","243","211","168","201","163","trueblood","null","null","null","null","null","null","null","null","null","null","null","","180","200","260","200","36000","52000","[1,3]","447.05320864410106","470.0126792164935","498.97377687958544"
"","canvas-keyboard-response","56","123581","0.0-6.0-1.7","534","","","","","clear_screen","null","null","","","catch","l","sw","sh","236","243","211","168","201","163","trueblood","null","null","null","null","null","null","null","null","null","null","null","","180","200","260","200","36000","52000","[1,3]","447.05320864410106","470.0126792164935","498.97377687958544"
"","canvas-keyboard-response","57","124089","0.0-6.0-2.7","534","","","","","rectangles no change","null","null","","","catch","l","sw","sh","236","243","211","168","201","163","trueblood","null","null","null","null","null","null","null","null","null","null","null","","180","200","260","200","36000","52000","[1,3]","447.05320864410106","470.0126792164935","498.97377687958544"
"","canvas-keyboard-response","58","125426","0.0-6.0-3.7","534","","","","","rectangles with change","null","null","","","catch","l","sw","sh","236","243","211","168","201","163","trueblood","null","null","null","null","null","null","null","null","null","null","null","","180","200","260","200","36000","52000","[1,3]","447.05320864410106","470.0126792164935","498.97377687958544"
"","canvas-keyboard-response","59","125448","0.0-6.0-4.7","534","","","","","clear_screen","null","null","","","catch","l","sw","sh","236","243","211","168","201","163","trueblood","null","null","null","null","null","null","null","null","null","null","null","","180","200","260","200","36000","52000","[1,3]","447.05320864410106","470.0126792164935","498.97377687958544"
"","canvas-keyboard-response","60","126451","0.0-6.0-5.7","534","","","","","make choice","999","1","","","catch","l","sw","sh","236","243","211","168","201","163","trueblood","null","null","null","null","null","null","null","null","null","null","null","","180","200","260","200","36000","52000","[1,3]","","",""
"","canvas-keyboard-response","61","126468","0.0-6.0-6.7","534","","","","","clear_screen","null","null","","","catch","l","sw","sh","236","243","211","168","201","163","trueblood","null","null","null","null","null","null","null","null","null","null","null","","180","200","260","200","36000","52000","[1,3]","","",""
"","canvas-keyboard-response","62","126668","0.0-6.0-0.8","534","","","","","pre trial waiting period","null","null","","","critical","c","t","d","164","240","240","164","220.0396","154.6796","spektor","0.14","w","240","164","164","240","220.0396","154.6796","39360","39360","34035.6388","td","null","null","null","null","null","null","[2,3]","476.29220684962615","175.88298791412387","529.7654475858662"
"","canvas-keyboard-response","63","126692","0.0-6.0-1.8","534","","","","","clear_screen","null","null","","","critical","c","t","d","164","240","240","164","220.0396","154.6796","spektor","0.14","w","240","164","164","240","220.0396","154.6796","39360","39360","34035.6388","td","null","null","null","null","null","null","[2,3]","476.29220684962615","175.88298791412387","529.7654475858662"
"","canvas-keyboard-response","64","127200","0.0-6.0-2.8","534","","","","","rectangles no change","null","null","","","critical","c","t","d","164","240","240","164","220.0396","154.6796","spektor","0.14","w","240","164","164","240","220.0396","154.6796","39360","39360","34035.6388","td","null","null","null","null","null","null","[2,3]","476.29220684962615","175.88298791412387","529.7654475858662"
"","canvas-keyboard-response","65","128534","0.0-6.0-3.8","534","","","","","rectangles with change","null","null","","","critical","c","t","d","164","240","240","164","220.0396","154.6796","spektor","0.14","w","240","164","164","240","220.0396","154.6796","39360","39360","34035.6388","td","null","null","null","null","null","null","[2,3]","476.29220684962615","175.88298791412387","529.7654475858662"
"","canvas-keyboard-response","66","128553","0.0-6.0-4.8","534","","","","","clear_screen","null","null","","","critical","c","t","d","164","240","240","164","220.0396","154.6796","spektor","0.14","w","240","164","164","240","220.0396","154.6796","39360","39360","34035.6388","td","null","null","null","null","null","null","[2,3]","476.29220684962615","175.88298791412387","529.7654475858662"
"","canvas-keyboard-response","67","131732","0.0-6.0-5.8","534","","","","","make choice","3170","3","","","critical","c","t","d","164","240","240","164","220.0396","154.6796","spektor","0.14","w","240","164","164","240","220.0396","154.6796","39360","39360","34035.6388","td","null","null","null","null","null","null","[2,3]","","",""
"","canvas-keyboard-response","68","131752","0.0-6.0-6.8","534","","","","","clear_screen","null","null","","","critical","c","t","d","164","240","240","164","220.0396","154.6796","spektor","0.14","w","240","164","164","240","220.0396","154.6796","39360","39360","34035.6388","td","null","null","null","null","null","null","[2,3]","","",""
"","canvas-keyboard-response","69","131953","0.0-6.0-0.9","534","","","","","pre trial waiting period","null","null","","","catch","sw","sh","l","180","200","230","157","296","221","trueblood","null","null","null","null","null","null","null","null","null","null","null","","180","200","260","200","36000","52000","[2,3]","474.824035232918","521.9011618695426","456.3359028902122"
"","canvas-keyboard-response","70","131973","0.0-6.0-1.9","534","","","","","clear_screen","null","null","","","catch","sw","sh","l","180","200","230","157","296","221","trueblood","null","null","null","null","null","null","null","null","null","null","null","","180","200","260","200","36000","52000","[2,3]","474.824035232918","521.9011618695426","456.3359028902122"
"","canvas-keyboard-response","71","132481","0.0-6.0-2.9","534","","","","","rectangles no change","null","null","","","catch","sw","sh","l","180","200","230","157","296","221","trueblood","null","null","null","null","null","null","null","null","null","null","null","","180","200","260","200","36000","52000","[2,3]","474.824035232918","521.9011618695426","456.3359028902122"
"","canvas-keyboard-response","72","133817","0.0-6.0-3.9","534","","","","","rectangles with change","null","null","","","catch","sw","sh","l","180","200","230","157","296","221","trueblood","null","null","null","null","null","null","null","null","null","null","null","","180","200","260","200","36000","52000","[2,3]","474.824035232918","521.9011618695426","456.3359028902122"
"","canvas-keyboard-response","73","133836","0.0-6.0-4.9","534","","","","","clear_screen","null","null","","","catch","sw","sh","l","180","200","230","157","296","221","trueblood","null","null","null","null","null","null","null","null","null","null","null","","180","200","260","200","36000","52000","[2,3]","474.824035232918","521.9011618695426","456.3359028902122"
"","canvas-keyboard-response","74","135124","0.0-6.0-5.9","534","","","","","make choice","1284","3","","","catch","sw","sh","l","180","200","230","157","296","221","trueblood","null","null","null","null","null","null","null","null","null","null","null","","180","200","260","200","36000","52000","[2,3]","","",""
"","canvas-keyboard-response","75","135145","0.0-6.0-6.9","534","","","","","clear_screen","null","null","","","catch","sw","sh","l","180","200","230","157","296","221","trueblood","null","null","null","null","null","null","null","null","null","null","null","","180","200","260","200","36000","52000","[2,3]","","",""
"","canvas-keyboard-response","76","135346","0.0-6.0-0.10","534","","","","","pre trial waiting period","null","null","","","catch","l","sh","sw","297","163","232","210","155","219","spektor","null","null","null","null","null","null","null","null","null","null","null","","180","200","260","200","36000","52000","[1,2]","495.9673787260397","153.5482578990636","469.4836479111705"
"","canvas-keyboard-response","77","135366","0.0-6.0-1.10","534","","","","","clear_screen","null","null","","","catch","l","sh","sw","297","163","232","210","155","219","spektor","null","null","null","null","null","null","null","null","null","null","null","","180","200","260","200","36000","52000","[1,2]","495.9673787260397","153.5482578990636","469.4836479111705"
"","canvas-keyboard-response","78","135873","0.0-6.0-2.10","534","","","","","rectangles no change","null","null","","","catch","l","sh","sw","297","163","232","210","155","219","spektor","null","null","null","null","null","null","null","null","null","null","null","","180","200","260","200","36000","52000","[1,2]","495.9673787260397","153.5482578990636","469.4836479111705"
"","canvas-keyboard-response","79","137211","0.0-6.0-3.10","534","","","","","rectangles with change","null","null","","","catch","l","sh","sw","297","163","232","210","155","219","spektor","null","null","null","null","null","null","null","null","null","null","null","","180","200","260","200","36000","52000","[1,2]","495.9673787260397","153.5482578990636","469.4836479111705"
"","canvas-keyboard-response","80","137230","0.0-6.0-4.10","534","","","","","clear_screen","null","null","","","catch","l","sh","sw","297","163","232","210","155","219","spektor","null","null","null","null","null","null","null","null","null","null","null","","180","200","260","200","36000","52000","[1,2]","495.9673787260397","153.5482578990636","469.4836479111705"
"","canvas-keyboard-response","81","137981","0.0-6.0-5.10","534","","","","","make choice","743","1","","","catch","l","sh","sw","297","163","232","210","155","219","spektor","null","null","null","null","null","null","null","null","null","null","null","","180","200","260","200","36000","52000","[1,2]","","",""
"","canvas-keyboard-response","82","138000","0.0-6.0-6.10","534","","","","","clear_screen","null","null","","","catch","l","sh","sw","297","163","232","210","155","219","spektor","null","null","null","null","null","null","null","null","null","null","null","","180","200","260","200","36000","52000","[1,2]","","",""
"","canvas-keyboard-response","83","138200","0.0-6.0-0.11","534","","","","","pre trial waiting period","null","null","","","critical","c","t","d","240","164","164","240","164","240","trueblood","0","h","164","240","240","164","164","240","39360","39360","39360","tc","null","null","null","null","null","null","[2,1]","493.6182533539349","462.5605182949371","420.22697588953326"
"","canvas-keyboard-response","84","138219","0.0-6.0-1.11","534","","","","","clear_screen","null","null","","","critical","c","t","d","240","164","164","240","164","240","trueblood","0","h","164","240","240","164","164","240","39360","39360","39360","tc","null","null","null","null","null","null","[2,1]","493.6182533539349","462.5605182949371","420.22697588953326"
"","canvas-keyboard-response","85","138725","0.0-6.0-2.11","534","","","","","rectangles no change","null","null","","","critical","c","t","d","240","164","164","240","164","240","trueblood","0","h","164","240","240","164","164","240","39360","39360","39360","tc","null","null","null","null","null","null","[2,1]","493.6182533539349","462.5605182949371","420.22697588953326"
"","canvas-keyboard-response","86","140059","0.0-6.0-3.11","534","","","","","rectangles with change","null","null","","","critical","c","t","d","240","164","164","240","164","240","trueblood","0","h","164","240","240","164","164","240","39360","39360","39360","tc","null","null","null","null","null","null","[2,1]","493.6182533539349","462.5605182949371","420.22697588953326"
"","canvas-keyboard-response","87","140079","0.0-6.0-4.11","534","","","","","clear_screen","null","null","","","critical","c","t","d","240","164","164","240","164","240","trueblood","0","h","164","240","240","164","164","240","39360","39360","39360","tc","null","null","null","null","null","null","[2,1]","493.6182533539349","462.5605182949371","420.22697588953326"
"","canvas-keyboard-response","88","141277","0.0-6.0-5.11","534","","","","","make choice","1192","2","","","critical","c","t","d","240","164","164","240","164","240","trueblood","0","h","164","240","240","164","164","240","39360","39360","39360","tc","null","null","null","null","null","null","[2,1]","","",""
"","canvas-keyboard-response","89","141296","0.0-6.0-6.11","534","","","","","clear_screen","null","null","","","critical","c","t","d","240","164","164","240","164","240","trueblood","0","h","164","240","240","164","164","240","39360","39360","39360","tc","null","null","null","null","null","null","[2,1]","","",""
"","canvas-keyboard-response","90","141498","0.0-6.0-0.12","534","","","","","pre trial waiting period","null","null","","","critical","c","d","t","164","240","220.0396","154.6796","240","164","spektor","0.14","w","240","164","164","240","220.0396","154.6796","39360","39360","34035.6388","dc","null","null","null","null","null","null","[2,1]","461.91471078516304","216.50749424297055","503.54638835847885"
"","canvas-keyboard-response","91","141514","0.0-6.0-1.12","534","","","","","clear_screen","null","null","","","critical","c","d","t","164","240","220.0396","154.6796","240","164","spektor","0.14","w","240","164","164","240","220.0396","154.6796","39360","39360","34035.6388","dc","null","null","null","null","null","null","[2,1]","461.91471078516304","216.50749424297055","503.54638835847885"
"","canvas-keyboard-response","92","142027","0.0-6.0-2.12","534","","","","","rectangles no change","null","null","","","critical","c","d","t","164","240","220.0396","154.6796","240","164","spektor","0.14","w","240","164","164","240","220.0396","154.6796","39360","39360","34035.6388","dc","null","null","null","null","null","null","[2,1]","461.91471078516304","216.50749424297055","503.54638835847885"
"","canvas-keyboard-response","93","143366","0.0-6.0-3.12","534","","","","","rectangles with change","null","null","","","critical","c","d","t","164","240","220.0396","154.6796","240","164","spektor","0.14","w","240","164","164","240","220.0396","154.6796","39360","39360","34035.6388","dc","null","null","null","null","null","null","[2,1]","461.91471078516304","216.50749424297055","503.54638835847885"
"","canvas-keyboard-response","94","143385","0.0-6.0-4.12","534","","","","","clear_screen","null","null","","","critical","c","d","t","164","240","220.0396","154.6796","240","164","spektor","0.14","w","240","164","164","240","220.0396","154.6796","39360","39360","34035.6388","dc","null","null","null","null","null","null","[2,1]","461.91471078516304","216.50749424297055","503.54638835847885"
"","canvas-keyboard-response","95","144244","0.0-6.0-5.12","534","","","","","make choice","856","1","","","critical","c","d","t","164","240","220.0396","154.6796","240","164","spektor","0.14","w","240","164","164","240","220.0396","154.6796","39360","39360","34035.6388","dc","null","null","null","null","null","null","[2,1]","","",""
"","canvas-keyboard-response","96","144265","0.0-6.0-6.12","534","","","","","clear_screen","null","null","","","critical","c","d","t","164","240","220.0396","154.6796","240","164","spektor","0.14","w","240","164","164","240","220.0396","154.6796","39360","39360","34035.6388","dc","null","null","null","null","null","null","[2,1]","","",""
"","canvas-keyboard-response","97","144467","0.0-6.0-0.13","534","","","","","pre trial waiting period","null","null","","","critical","t","d","c","240","164","227.1683","158.0083","164","240","spektor","0.09","w","240","164","164","240","227.1683","158.0083","39360","39360","35894.4834","td","null","null","null","null","null","null","[1,2]","524.8537910912803","177.9867013308169","504.22518177187635"
"","canvas-keyboard-response","98","144486","0.0-6.0-1.13","534","","","","","clear_screen","null","null","","","critical","t","d","c","240","164","227.1683","158.0083","164","240","spektor","0.09","w","240","164","164","240","227.1683","158.0083","39360","39360","35894.4834","td","null","null","null","null","null","null","[1,2]","524.8537910912803","177.9867013308169","504.22518177187635"
"","canvas-keyboard-response","99","144994","0.0-6.0-2.13","534","","","","","rectangles no change","null","null","","","critical","t","d","c","240","164","227.1683","158.0083","164","240","spektor","0.09","w","240","164","164","240","227.1683","158.0083","39360","39360","35894.4834","td","null","null","null","null","null","null","[1,2]","524.8537910912803","177.9867013308169","504.22518177187635"
"","canvas-keyboard-response","100","146329","0.0-6.0-3.13","534","","","","","rectangles with change","null","null","","","critical","t","d","c","240","164","227.1683","158.0083","164","240","spektor","0.09","w","240","164","164","240","227.1683","158.0083","39360","39360","35894.4834","td","null","null","null","null","null","null","[1,2]","524.8537910912803","177.9867013308169","504.22518177187635"
"","canvas-keyboard-response","101","146349","0.0-6.0-4.13","534","","","","","clear_screen","null","null","","","critical","t","d","c","240","164","227.1683","158.0083","164","240","spektor","0.09","w","240","164","164","240","227.1683","158.0083","39360","39360","35894.4834","td","null","null","null","null","null","null","[1,2]","524.8537910912803","177.9867013308169","504.22518177187635"
"","canvas-keyboard-response","102","146901","0.0-6.0-5.13","534","","","","","make choice","548","1","","","critical","t","d","c","240","164","227.1683","158.0083","164","240","spektor","0.09","w","240","164","164","240","227.1683","158.0083","39360","39360","35894.4834","td","null","null","null","null","null","null","[1,2]","","",""
"","canvas-keyboard-response","103","146919","0.0-6.0-6.13","534","","","","","clear_screen","null","null","","","critical","t","d","c","240","164","227.1683","158.0083","164","240","spektor","0.09","w","240","164","164","240","227.1683","158.0083","39360","39360","35894.4834","td","null","null","null","null","null","null","[1,2]","","",""
"","canvas-keyboard-response","104","147120","0.0-6.0-0.14","534","","","","","pre trial waiting period","null","null","","","catch","sh","sw","l","199","150","192","195","237","208","spektor","null","null","null","null","null","null","null","null","null","null","null","","180","200","260","200","36000","52000","[2,3]","523.0843674137833","152.64259484046588","480.27971022256094"
"","canvas-keyboard-response","105","147143","0.0-6.0-1.14","534","","","","","clear_screen","null","null","","","catch","sh","sw","l","199","150","192","195","237","208","spektor","null","null","null","null","null","null","null","null","null","null","null","","180","200","260","200","36000","52000","[2,3]","523.0843674137833","152.64259484046588","480.27971022256094"
"","canvas-keyboard-response","106","147651","0.0-6.0-2.14","534","","","","","rectangles no change","null","null","","","catch","sh","sw","l","199","150","192","195","237","208","spektor","null","null","null","null","null","null","null","null","null","null","null","","180","200","260","200","36000","52000","[2,3]","523.0843674137833","152.64259484046588","480.27971022256094"
"","canvas-keyboard-response","107","148983","0.0-6.0-3.14","534","","","","","rectangles with change","null","null","","","catch","sh","sw","l","199","150","192","195","237","208","spektor","null","null","null","null","null","null","null","null","null","null","null","","180","200","260","200","36000","52000","[2,3]","523.0843674137833","152.64259484046588","480.27971022256094"
"","canvas-keyboard-response","108","149005","0.0-6.0-4.14","534","","","","","clear_screen","null","null","","","catch","sh","sw","l","199","150","192","195","237","208","spektor","null","null","null","null","null","null","null","null","null","null","null","","180","200","260","200","36000","52000","[2,3]","523.0843674137833","152.64259484046588","480.27971022256094"
"","canvas-keyboard-response","109","149580","0.0-6.0-5.14","534","","","","","make choice","573","3","","","catch","sh","sw","l","199","150","192","195","237","208","spektor","null","null","null","null","null","null","null","null","null","null","null","","180","200","260","200","36000","52000","[2,3]","","",""
"","canvas-keyboard-response","110","149598","0.0-6.0-6.14","534","","","","","clear_screen","null","null","","","catch","sh","sw","l","199","150","192","195","237","208","spektor","null","null","null","null","null","null","null","null","null","null","null","","180","200","260","200","36000","52000","[2,3]","","",""
"","canvas-keyboard-response","111","149799","0.0-6.0-0.15","534","","","","","pre trial waiting period","null","null","","","critical","d","c","t","164","240","240","164","164","240","spektor","0","h","164","240","240","164","164","240","39360","39360","39360","td","null","null","null","null","null","null","[3,1]","467.00753830796793","156.43027896984046","462.3597443337079"
"","canvas-keyboard-response","112","149819","0.0-6.0-1.15","534","","","","","clear_screen","null","null","","","critical","d","c","t","164","240","240","164","164","240","spektor","0","h","164","240","240","164","164","240","39360","39360","39360","td","null","null","null","null","null","null","[3,1]","467.00753830796793","156.43027896984046","462.3597443337079"
"","canvas-keyboard-response","113","150324","0.0-6.0-2.15","534","","","","","rectangles no change","null","null","","","critical","d","c","t","164","240","240","164","164","240","spektor","0","h","164","240","240","164","164","240","39360","39360","39360","td","null","null","null","null","null","null","[3,1]","467.00753830796793","156.43027896984046","462.3597443337079"
"","canvas-keyboard-response","114","151663","0.0-6.0-3.15","534","","","","","rectangles with change","null","null","","","critical","d","c","t","164","240","240","164","164","240","spektor","0","h","164","240","240","164","164","240","39360","39360","39360","td","null","null","null","null","null","null","[3,1]","467.00753830796793","156.43027896984046","462.3597443337079"
"","canvas-keyboard-response","115","151677","0.0-6.0-4.15","534","","","","","clear_screen","null","null","","","critical","d","c","t","164","240","240","164","164","240","spektor","0","h","164","240","240","164","164","240","39360","39360","39360","td","null","null","null","null","null","null","[3,1]","467.00753830796793","156.43027896984046","462.3597443337079"
"","canvas-keyboard-response","116","152716","0.0-6.0-5.15","534","","","","","make choice","1028","3","","","critical","d","c","t","164","240","240","164","164","240","spektor","0","h","164","240","240","164","164","240","39360","39360","39360","td","null","null","null","null","null","null","[3,1]","","",""
"","canvas-keyboard-response","117","152735","0.0-6.0-6.15","534","","","","","clear_screen","null","null","","","critical","d","c","t","164","240","240","164","164","240","spektor","0","h","164","240","240","164","164","240","39360","39360","39360","td","null","null","null","null","null","null","[3,1]","","",""
"","canvas-keyboard-response","118","152936","0.0-6.0-0.16","534","","","","","pre trial waiting period","null","null","","","critical","t","c","d","240","164","164","240","237.1485","162.6685","spektor","0.02","w","240","164","164","240","237.1485","162.6685","39360","39360","38576.5967","tc","null","null","null","null","null","null","[1,2]","526.4186473189574","156.76857688016707","506.47218156298845"
"","canvas-keyboard-response","119","152954","0.0-6.0-1.16","534","","","","","clear_screen","null","null","","","critical","t","c","d","240","164","164","240","237.1485","162.6685","spektor","0.02","w","240","164","164","240","237.1485","162.6685","39360","39360","38576.5967","tc","null","null","null","null","null","null","[1,2]","526.4186473189574","156.76857688016707","506.47218156298845"
"","canvas-keyboard-response","120","153461","0.0-6.0-2.16","534","","","","","rectangles no change","null","null","","","critical","t","c","d","240","164","164","240","237.1485","162.6685","spektor","0.02","w","240","164","164","240","237.1485","162.6685","39360","39360","38576.5967","tc","null","null","null","null","null","null","[1,2]","526.4186473189574","156.76857688016707","506.47218156298845"
"","canvas-keyboard-response","121","154797","0.0-6.0-3.16","534","","","","","rectangles with change","null","null","","","critical","t","c","d","240","164","164","240","237.1485","162.6685","spektor","0.02","w","240","164","164","240","237.1485","162.6685","39360","39360","38576.5967","tc","null","null","null","null","null","null","[1,2]","526.4186473189574","156.76857688016707","506.47218156298845"
"","canvas-keyboard-response","122","154815","0.0-6.0-4.16","534","","","","","clear_screen","null","null","","","critical","t","c","d","240","164","164","240","237.1485","162.6685","spektor","0.02","w","240","164","164","240","237.1485","162.6685","39360","39360","38576.5967","tc","null","null","null","null","null","null","[1,2]","526.4186473189574","156.76857688016707","506.47218156298845"
"","canvas-keyboard-response","123","155908","0.0-6.0-5.16","534","","","","","make choice","1086","1","","","critical","t","c","d","240","164","164","240","237.1485","162.6685","spektor","0.02","w","240","164","164","240","237.1485","162.6685","39360","39360","38576.5967","tc","null","null","null","null","null","null","[1,2]","","",""
"","canvas-keyboard-response","124","155927","0.0-6.0-6.16","534","","","","","clear_screen","null","null","","","critical","t","c","d","240","164","164","240","237.1485","162.6685","spektor","0.02","w","240","164","164","240","237.1485","162.6685","39360","39360","38576.5967","tc","null","null","null","null","null","null","[1,2]","","",""
"","canvas-keyboard-response","125","156128","0.0-6.0-0.17","534","","","","","pre trial waiting period","null","null","","","critical","t","d","c","240","164","220.0396","154.6796","164","240","trueblood","0.14","w","240","164","164","240","220.0396","154.6796","39360","39360","34035.6388","dc","null","null","null","null","null","null","[2,3]","515.3832370325698","480.2242272935509","458.8292379421773"
"","canvas-keyboard-response","126","156148","0.0-6.0-1.17","534","","","","","clear_screen","null","null","","","critical","t","d","c","240","164","220.0396","154.6796","164","240","trueblood","0.14","w","240","164","164","240","220.0396","154.6796","39360","39360","34035.6388","dc","null","null","null","null","null","null","[2,3]","515.3832370325698","480.2242272935509","458.8292379421773"
"","canvas-keyboard-response","127","156656","0.0-6.0-2.17","534","","","","","rectangles no change","null","null","","","critical","t","d","c","240","164","220.0396","154.6796","164","240","trueblood","0.14","w","240","164","164","240","220.0396","154.6796","39360","39360","34035.6388","dc","null","null","null","null","null","null","[2,3]","515.3832370325698","480.2242272935509","458.8292379421773"
"","canvas-keyboard-response","128","157991","0.0-6.0-3.17","534","","","","","rectangles with change","null","null","","","critical","t","d","c","240","164","220.0396","154.6796","164","240","trueblood","0.14","w","240","164","164","240","220.0396","154.6796","39360","39360","34035.6388","dc","null","null","null","null","null","null","[2,3]","515.3832370325698","480.2242272935509","458.8292379421773"
"","canvas-keyboard-response","129","158009","0.0-6.0-4.17","534","","","","","clear_screen","null","null","","","critical","t","d","c","240","164","220.0396","154.6796","164","240","trueblood","0.14","w","240","164","164","240","220.0396","154.6796","39360","39360","34035.6388","dc","null","null","null","null","null","null","[2,3]","515.3832370325698","480.2242272935509","458.8292379421773"
"","canvas-keyboard-response","130","159276","0.0-6.0-5.17","534","","","","","make choice","1261","3","","","critical","t","d","c","240","164","220.0396","154.6796","164","240","trueblood","0.14","w","240","164","164","240","220.0396","154.6796","39360","39360","34035.6388","dc","null","null","null","null","null","null","[2,3]","","",""
"","canvas-keyboard-response","131","159294","0.0-6.0-6.17","534","","","","","clear_screen","null","null","","","critical","t","d","c","240","164","220.0396","154.6796","164","240","trueblood","0.14","w","240","164","164","240","220.0396","154.6796","39360","39360","34035.6388","dc","null","null","null","null","null","null","[2,3]","","",""
"","canvas-keyboard-response","132","159494","0.0-6.0-0.18","534","","","","","pre trial waiting period","null","null","","","catch","l","sh","sw","239","245","236","179","183","167","spektor","null","null","null","null","null","null","null","null","null","null","null","","180","200","260","200","36000","52000","[1,3]","459.7973896567909","188.39283641889162","494.3846331939734"
"","canvas-keyboard-response","133","159514","0.0-6.0-1.18","534","","","","","clear_screen","null","null","","","catch","l","sh","sw","239","245","236","179","183","167","spektor","null","null","null","null","null","null","null","null","null","null","null","","180","200","260","200","36000","52000","[1,3]","459.7973896567909","188.39283641889162","494.3846331939734"
"","canvas-keyboard-response","134","160024","0.0-6.0-2.18","534","","","","","rectangles no change","null","null","","","catch","l","sh","sw","239","245","236","179","183","167","spektor","null","null","null","null","null","null","null","null","null","null","null","","180","200","260","200","36000","52000","[1,3]","459.7973896567909","188.39283641889162","494.3846331939734"
"","canvas-keyboard-response","135","161362","0.0-6.0-3.18","534","","","","","rectangles with change","null","null","","","catch","l","sh","sw","239","245","236","179","183","167","spektor","null","null","null","null","null","null","null","null","null","null","null","","180","200","260","200","36000","52000","[1,3]","459.7973896567909","188.39283641889162","494.3846331939734"
"","canvas-keyboard-response","136","161385","0.0-6.0-4.18","534","","","","","clear_screen","null","null","","","catch","l","sh","sw","239","245","236","179","183","167","spektor","null","null","null","null","null","null","null","null","null","null","null","","180","200","260","200","36000","52000","[1,3]","459.7973896567909","188.39283641889162","494.3846331939734"
"","canvas-keyboard-response","137","161820","0.0-6.0-5.18","534","","","","","make choice","429","1","","","catch","l","sh","sw","239","245","236","179","183","167","spektor","null","null","null","null","null","null","null","null","null","null","null","","180","200","260","200","36000","52000","[1,3]","","",""
"","canvas-keyboard-response","138","161840","0.0-6.0-6.18","534","","","","","clear_screen","null","null","","","catch","l","sh","sw","239","245","236","179","183","167","spektor","null","null","null","null","null","null","null","null","null","null","null","","180","200","260","200","36000","52000","[1,3]","","",""
"","canvas-keyboard-response","139","162041","0.0-6.0-0.19","534","","","","","pre trial waiting period","null","null","","","critical","t","d","c","240","164","232.8713","160.6713","164","240","spektor","0.05","w","240","164","164","240","232.8713","160.6713","39360","39360","37415.7294","dc","null","null","null","null","null","null","[2,3]","496.4856517012947","190.51431381200518","483.79304427395846"
"","canvas-keyboard-response","140","162065","0.0-6.0-1.19","534","","","","","clear_screen","null","null","","","critical","t","d","c","240","164","232.8713","160.6713","164","240","spektor","0.05","w","240","164","164","240","232.8713","160.6713","39360","39360","37415.7294","dc","null","null","null","null","null","null","[2,3]","496.4856517012947","190.51431381200518","483.79304427395846"
"","canvas-keyboard-response","141","162574","0.0-6.0-2.19","534","","","","","rectangles no change","null","null","","","critical","t","d","c","240","164","232.8713","160.6713","164","240","spektor","0.05","w","240","164","164","240","232.8713","160.6713","39360","39360","37415.7294","dc","null","null","null","null","null","null","[2,3]","496.4856517012947","190.51431381200518","483.79304427395846"
"","canvas-keyboard-response","142","163911","0.0-6.0-3.19","534","","","","","rectangles with change","null","null","","","critical","t","d","c","240","164","232.8713","160.6713","164","240","spektor","0.05","w","240","164","164","240","232.8713","160.6713","39360","39360","37415.7294","dc","null","null","null","null","null","null","[2,3]","496.4856517012947","190.51431381200518","483.79304427395846"
"","canvas-keyboard-response","143","163930","0.0-6.0-4.19","534","","","","","clear_screen","null","null","","","critical","t","d","c","240","164","232.8713","160.6713","164","240","spektor","0.05","w","240","164","164","240","232.8713","160.6713","39360","39360","37415.7294","dc","null","null","null","null","null","null","[2,3]","496.4856517012947","190.51431381200518","483.79304427395846"
"","canvas-keyboard-response","144","164420","0.0-6.0-5.19","534","","","","","make choice","486","3","","","critical","t","d","c","240","164","232.8713","160.6713","164","240","spektor","0.05","w","240","164","164","240","232.8713","160.6713","39360","39360","37415.7294","dc","null","null","null","null","null","null","[2,3]","","",""
"","canvas-keyboard-response","145","164439","0.0-6.0-6.19","534","","","","","clear_screen","null","null","","","critical","t","d","c","240","164","232.8713","160.6713","164","240","spektor","0.05","w","240","164","164","240","232.8713","160.6713","39360","39360","37415.7294","dc","null","null","null","null","null","null","[2,3]","","",""
"","canvas-keyboard-response","146","164642","0.0-6.0-0.20","534","","","","","pre trial waiting period","null","null","","","critical","c","t","d","164","240","240","164","227.1683","158.0083","trueblood","0.09","w","240","164","164","240","227.1683","158.0083","39360","39360","35894.4834","td","null","null","null","null","null","null","[2,3]","448.8348983135796","516.3690221126906","513.9042543563423"
"","canvas-keyboard-response","147","164662","0.0-6.0-1.20","534","","","","","clear_screen","null","null","","","critical","c","t","d","164","240","240","164","227.1683","158.0083","trueblood","0.09","w","240","164","164","240","227.1683","158.0083","39360","39360","35894.4834","td","null","null","null","null","null","null","[2,3]","448.8348983135796","516.3690221126906","513.9042543563423"
"","canvas-keyboard-response","148","165167","0.0-6.0-2.20","534","","","","","rectangles no change","null","null","","","critical","c","t","d","164","240","240","164","227.1683","158.0083","trueblood","0.09","w","240","164","164","240","227.1683","158.0083","39360","39360","35894.4834","td","null","null","null","null","null","null","[2,3]","448.8348983135796","516.3690221126906","513.9042543563423"
"","canvas-keyboard-response","149","166507","0.0-6.0-3.20","534","","","","","rectangles with change","null","null","","","critical","c","t","d","164","240","240","164","227.1683","158.0083","trueblood","0.09","w","240","164","164","240","227.1683","158.0083","39360","39360","35894.4834","td","null","null","null","null","null","null","[2,3]","448.8348983135796","516.3690221126906","513.9042543563423"
"","canvas-keyboard-response","150","166527","0.0-6.0-4.20","534","","","","","clear_screen","null","null","","","critical","c","t","d","164","240","240","164","227.1683","158.0083","trueblood","0.09","w","240","164","164","240","227.1683","158.0083","39360","39360","35894.4834","td","null","null","null","null","null","null","[2,3]","448.8348983135796","516.3690221126906","513.9042543563423"
"","canvas-keyboard-response","151","167860","0.0-6.0-5.20","534","","","","","make choice","1329","2","","","critical","c","t","d","164","240","240","164","227.1683","158.0083","trueblood","0.09","w","240","164","164","240","227.1683","158.0083","39360","39360","35894.4834","td","null","null","null","null","null","null","[2,3]","","",""
"","canvas-keyboard-response","152","167878","0.0-6.0-6.20","534","","","","","clear_screen","null","null","","","critical","c","t","d","164","240","240","164","227.1683","158.0083","trueblood","0.09","w","240","164","164","240","227.1683","158.0083","39360","39360","35894.4834","td","null","null","null","null","null","null","[2,3]","","",""
"","canvas-keyboard-response","153","168079","0.0-6.0-0.21","534","","","","","pre trial waiting period","null","null","","","catch","sw","sh","l","180","200","198","216","227","160","trueblood","null","null","null","null","null","null","null","null","null","null","null","","180","200","260","200","36000","52000","[2,3]","448.32795672003317","447.23586040354155","516.9815074526783"
"","canvas-keyboard-response","154","168099","0.0-6.0-1.21","534","","","","","clear_screen","null","null","","","catch","sw","sh","l","180","200","198","216","227","160","trueblood","null","null","null","null","null","null","null","null","null","null","null","","180","200","260","200","36000","52000","[2,3]","448.32795672003317","447.23586040354155","516.9815074526783"
"","canvas-keyboard-response","155","168606","0.0-6.0-2.21","534","","","","","rectangles no change","null","null","","","catch","sw","sh","l","180","200","198","216","227","160","trueblood","null","null","null","null","null","null","null","null","null","null","null","","180","200","260","200","36000","52000","[2,3]","448.32795672003317","447.23586040354155","516.9815074526783"
"","canvas-keyboard-response","156","169938","0.0-6.0-3.21","534","","","","","rectangles with change","null","null","","","catch","sw","sh","l","180","200","198","216","227","160","trueblood","null","null","null","null","null","null","null","null","null","null","null","","180","200","260","200","36000","52000","[2,3]","448.32795672003317","447.23586040354155","516.9815074526783"
"","canvas-keyboard-response","157","169958","0.0-6.0-4.21","534","","","","","clear_screen","null","null","","","catch","sw","sh","l","180","200","198","216","227","160","trueblood","null","null","null","null","null","null","null","null","null","null","null","","180","200","260","200","36000","52000","[2,3]","448.32795672003317","447.23586040354155","516.9815074526783"
"","canvas-keyboard-response","158","170957","0.0-6.0-5.21","534","","","","","make choice","994","2","","","catch","sw","sh","l","180","200","198","216","227","160","trueblood","null","null","null","null","null","null","null","null","null","null","null","","180","200","260","200","36000","52000","[2,3]","","",""
"","canvas-keyboard-response","159","170976","0.0-6.0-6.21","534","","","","","clear_screen","null","null","","","catch","sw","sh","l","180","200","198","216","227","160","trueblood","null","null","null","null","null","null","null","null","null","null","null","","180","200","260","200","36000","52000","[2,3]","","",""
"","canvas-keyboard-response","160","171177","0.0-6.0-0.22","534","","","","","pre trial waiting period","null","null","","","critical","c","d","t","240","164","154.6796","220.0396","164","240","trueblood","0.14","h","164","240","240","164","154.6796","220.0396","39360","39360","34035.6388","dc","null","null","null","null","null","null","[2,1]","476.05986808113636","446.98362395341053","419.08172190009697"
"","canvas-keyboard-response","161","171197","0.0-6.0-1.22","534","","","","","clear_screen","null","null","","","critical","c","d","t","240","164","154.6796","220.0396","164","240","trueblood","0.14","h","164","240","240","164","154.6796","220.0396","39360","39360","34035.6388","dc","null","null","null","null","null","null","[2,1]","476.05986808113636","446.98362395341053","419.08172190009697"
"","canvas-keyboard-response","162","171709","0.0-6.0-2.22","534","","","","","rectangles no change","null","null","","","critical","c","d","t","240","164","154.6796","220.0396","164","240","trueblood","0.14","h","164","240","240","164","154.6796","220.0396","39360","39360","34035.6388","dc","null","null","null","null","null","null","[2,1]","476.05986808113636","446.98362395341053","419.08172190009697"
"","canvas-keyboard-response","163","173044","0.0-6.0-3.22","534","","","","","rectangles with change","null","null","","","critical","c","d","t","240","164","154.6796","220.0396","164","240","trueblood","0.14","h","164","240","240","164","154.6796","220.0396","39360","39360","34035.6388","dc","null","null","null","null","null","null","[2,1]","476.05986808113636","446.98362395341053","419.08172190009697"
"","canvas-keyboard-response","164","173064","0.0-6.0-4.22","534","","","","","clear_screen","null","null","","","critical","c","d","t","240","164","154.6796","220.0396","164","240","trueblood","0.14","h","164","240","240","164","154.6796","220.0396","39360","39360","34035.6388","dc","null","null","null","null","null","null","[2,1]","476.05986808113636","446.98362395341053","419.08172190009697"
"","canvas-keyboard-response","165","174013","0.0-6.0-5.22","534","","","","","make choice","944","1","","","critical","c","d","t","240","164","154.6796","220.0396","164","240","trueblood","0.14","h","164","240","240","164","154.6796","220.0396","39360","39360","34035.6388","dc","null","null","null","null","null","null","[2,1]","","",""
"","canvas-keyboard-response","166","174030","0.0-6.0-6.22","534","","","","","clear_screen","null","null","","","critical","c","d","t","240","164","154.6796","220.0396","164","240","trueblood","0.14","h","164","240","240","164","154.6796","220.0396","39360","39360","34035.6388","dc","null","null","null","null","null","null","[2,1]","","",""
"","canvas-keyboard-response","167","174231","0.0-6.0-0.23","534","","","","","pre trial waiting period","null","null","","","critical","t","c","d","240","164","164","240","232.8713","160.6713","trueblood","0.05","w","240","164","164","240","232.8713","160.6713","39360","39360","37415.7294","tc","null","null","null","null","null","null","[1,2]","511.0246776682111","421.08382759462944","504.02867462816357"
"","canvas-keyboard-response","168","174254","0.0-6.0-1.23","534","","","","","clear_screen","null","null","","","critical","t","c","d","240","164","164","240","232.8713","160.6713","trueblood","0.05","w","240","164","164","240","232.8713","160.6713","39360","39360","37415.7294","tc","null","null","null","null","null","null","[1,2]","511.0246776682111","421.08382759462944","504.02867462816357"
"","canvas-keyboard-response","169","174763","0.0-6.0-2.23","534","","","","","rectangles no change","null","null","","","critical","t","c","d","240","164","164","240","232.8713","160.6713","trueblood","0.05","w","240","164","164","240","232.8713","160.6713","39360","39360","37415.7294","tc","null","null","null","null","null","null","[1,2]","511.0246776682111","421.08382759462944","504.02867462816357"
"","canvas-keyboard-response","170","176101","0.0-6.0-3.23","534","","","","","rectangles with change","null","null","","","critical","t","c","d","240","164","164","240","232.8713","160.6713","trueblood","0.05","w","240","164","164","240","232.8713","160.6713","39360","39360","37415.7294","tc","null","null","null","null","null","null","[1,2]","511.0246776682111","421.08382759462944","504.02867462816357"
"","canvas-keyboard-response","171","176121","0.0-6.0-4.23","534","","","","","clear_screen","null","null","","","critical","t","c","d","240","164","164","240","232.8713","160.6713","trueblood","0.05","w","240","164","164","240","232.8713","160.6713","39360","39360","37415.7294","tc","null","null","null","null","null","null","[1,2]","511.0246776682111","421.08382759462944","504.02867462816357"
"","canvas-keyboard-response","172","176965","0.0-6.0-5.23","534","","","","","make choice","837","1","","","critical","t","c","d","240","164","164","240","232.8713","160.6713","trueblood","0.05","w","240","164","164","240","232.8713","160.6713","39360","39360","37415.7294","tc","null","null","null","null","null","null","[1,2]","","",""
"","canvas-keyboard-response","173","176983","0.0-6.0-6.23","534","","","","","clear_screen","null","null","","","critical","t","c","d","240","164","164","240","232.8713","160.6713","trueblood","0.05","w","240","164","164","240","232.8713","160.6713","39360","39360","37415.7294","tc","null","null","null","null","null","null","[1,2]","","",""
"","canvas-keyboard-response","174","177184","0.0-6.0-0.24","534","","","","","pre trial waiting period","null","null","","","critical","c","d","t","240","164","164","240","164","240","trueblood","0","h","164","240","240","164","164","240","39360","39360","39360","dc","null","null","null","null","null","null","[2,1]","508.8581009093755","430.0399468104889","429.36132866557165"
"","canvas-keyboard-response","175","177208","0.0-6.0-1.24","534","","","","","clear_screen","null","null","","","critical","c","d","t","240","164","164","240","164","240","trueblood","0","h","164","240","240","164","164","240","39360","39360","39360","dc","null","null","null","null","null","null","[2,1]","508.8581009093755","430.0399468104889","429.36132866557165"
"","canvas-keyboard-response","176","177715","0.0-6.0-2.24","534","","","","","rectangles no change","null","null","","","critical","c","d","t","240","164","164","240","164","240","trueblood","0","h","164","240","240","164","164","240","39360","39360","39360","dc","null","null","null","null","null","null","[2,1]","508.8581009093755","430.0399468104889","429.36132866557165"
"","canvas-keyboard-response","177","179051","0.0-6.0-3.24","534","","","","","rectangles with change","null","null","","","critical","c","d","t","240","164","164","240","164","240","trueblood","0","h","164","240","240","164","164","240","39360","39360","39360","dc","null","null","null","null","null","null","[2,1]","508.8581009093755","430.0399468104889","429.36132866557165"
"","canvas-keyboard-response","178","179072","0.0-6.0-4.24","534","","","","","clear_screen","null","null","","","critical","c","d","t","240","164","164","240","164","240","trueblood","0","h","164","240","240","164","164","240","39360","39360","39360","dc","null","null","null","null","null","null","[2,1]","508.8581009093755","430.0399468104889","429.36132866557165"
"","canvas-keyboard-response","179","180261","0.0-6.0-5.24","534","","","","","make choice","1183","1","","","critical","c","d","t","240","164","164","240","164","240","trueblood","0","h","164","240","240","164","164","240","39360","39360","39360","dc","null","null","null","null","null","null","[2,1]","","",""
"","canvas-keyboard-response","180","180278","0.0-6.0-6.24","534","","","","","clear_screen","null","null","","","critical","c","d","t","240","164","164","240","164","240","trueblood","0","h","164","240","240","164","164","240","39360","39360","39360","dc","null","null","null","null","null","null","[2,1]","","",""
"","canvas-keyboard-response","181","180479","0.0-6.0-0.25","534","","","","","pre trial waiting period","null","null","","","catch","l","sh","sw","252","197","219","179","182","194","trueblood","null","null","null","null","null","null","null","null","null","null","null","","180","200","260","200","36000","52000","[1,2]","447.0183347202374","469.20627025894476","475.9551412519762"
"","canvas-keyboard-response","182","180499","0.0-6.0-1.25","534","","","","","clear_screen","null","null","","","catch","l","sh","sw","252","197","219","179","182","194","trueblood","null","null","null","null","null","null","null","null","null","null","null","","180","200","260","200","36000","52000","[1,2]","447.0183347202374","469.20627025894476","475.9551412519762"
"","canvas-keyboard-response","183","181005","0.0-6.0-2.25","534","","","","","rectangles no change","null","null","","","catch","l","sh","sw","252","197","219","179","182","194","trueblood","null","null","null","null","null","null","null","null","null","null","null","","180","200","260","200","36000","52000","[1,2]","447.0183347202374","469.20627025894476","475.9551412519762"
"","canvas-keyboard-response","184","182341","0.0-6.0-3.25","534","","","","","rectangles with change","null","null","","","catch","l","sh","sw","252","197","219","179","182","194","trueblood","null","null","null","null","null","null","null","null","null","null","null","","180","200","260","200","36000","52000","[1,2]","447.0183347202374","469.20627025894476","475.9551412519762"
"","canvas-keyboard-response","185","182361","0.0-6.0-4.25","534","","","","","clear_screen","null","null","","","catch","l","sh","sw","252","197","219","179","182","194","trueblood","null","null","null","null","null","null","null","null","null","null","null","","180","200","260","200","36000","52000","[1,2]","447.0183347202374","469.20627025894476","475.9551412519762"
"","canvas-keyboard-response","186","183037","0.0-6.0-5.25","534","","","","","make choice","669","1","","","catch","l","sh","sw","252","197","219","179","182","194","trueblood","null","null","null","null","null","null","null","null","null","null","null","","180","200","260","200","36000","52000","[1,2]","","",""
"","canvas-keyboard-response","187","183053","0.0-6.0-6.25","534","","","","","clear_screen","null","null","","","catch","l","sh","sw","252","197","219","179","182","194","trueblood","null","null","null","null","null","null","null","null","null","null","null","","180","200","260","200","36000","52000","[1,2]","","",""
"","canvas-keyboard-response","188","183254","0.0-6.0-0.26","534","","","","","pre trial waiting period","null","null","","","catch","sh","l","sw","162","142","245","226","159","231","trueblood","null","null","null","null","null","null","null","null","null","null","null","","180","200","260","200","36000","52000","[1,2]","506.35961301146773","443.9683987318305","466.21169799947074"
"","canvas-keyboard-response","189","183276","0.0-6.0-1.26","534","","","","","clear_screen","null","null","","","catch","sh","l","sw","162","142","245","226","159","231","trueblood","null","null","null","null","null","null","null","null","null","null","null","","180","200","260","200","36000","52000","[1,2]","506.35961301146773","443.9683987318305","466.21169799947074"
"","canvas-keyboard-response","190","183783","0.0-6.0-2.26","534","","","","","rectangles no change","null","null","","","catch","sh","l","sw","162","142","245","226","159","231","trueblood","null","null","null","null","null","null","null","null","null","null","null","","180","200","260","200","36000","52000","[1,2]","506.35961301146773","443.9683987318305","466.21169799947074"
"","canvas-keyboard-response","191","185120","0.0-6.0-3.26","534","","","","","rectangles with change","null","null","","","catch","sh","l","sw","162","142","245","226","159","231","trueblood","null","null","null","null","null","null","null","null","null","null","null","","180","200","260","200","36000","52000","[1,2]","506.35961301146773","443.9683987318305","466.21169799947074"
"","canvas-keyboard-response","192","185139","0.0-6.0-4.26","534","","","","","clear_screen","null","null","","","catch","sh","l","sw","162","142","245","226","159","231","trueblood","null","null","null","null","null","null","null","null","null","null","null","","180","200","260","200","36000","52000","[1,2]","506.35961301146773","443.9683987318305","466.21169799947074"
"","canvas-keyboard-response","193","185613","0.0-6.0-5.26","534","","","","","make choice","467","2","","","catch","sh","l","sw","162","142","245","226","159","231","trueblood","null","null","null","null","null","null","null","null","null","null","null","","180","200","260","200","36000","52000","[1,2]","","",""
"","canvas-keyboard-response","194","185633","0.0-6.0-6.26","534","","","","","clear_screen","null","null","","","catch","sh","l","sw","162","142","245","226","159","231","trueblood","null","null","null","null","null","null","null","null","null","null","null","","180","200","260","200","36000","52000","[1,2]","","",""
"","canvas-keyboard-response","195","185834","0.0-6.0-0.27","534","","","","","pre trial waiting period","null","null","","","catch","sw","l","sh","180","200","165","241","161","189","spektor","null","null","null","null","null","null","null","null","null","null","null","","180","200","260","200","36000","52000","[2,3]","514.5666844250254","116.68414913363134","493.95001108572603"
"","canvas-keyboard-response","196","185854","0.0-6.0-1.27","534","","","","","clear_screen","null","null","","","catch","sw","l","sh","180","200","165","241","161","189","spektor","null","null","null","null","null","null","null","null","null","null","null","","180","200","260","200","36000","52000","[2,3]","514.5666844250254","116.68414913363134","493.95001108572603"
"","canvas-keyboard-response","197","186361","0.0-6.0-2.27","534","","","","","rectangles no change","null","null","","","catch","sw","l","sh","180","200","165","241","161","189","spektor","null","null","null","null","null","null","null","null","null","null","null","","180","200","260","200","36000","52000","[2,3]","514.5666844250254","116.68414913363134","493.95001108572603"
"","canvas-keyboard-response","198","187696","0.0-6.0-3.27","534","","","","","rectangles with change","null","null","","","catch","sw","l","sh","180","200","165","241","161","189","spektor","null","null","null","null","null","null","null","null","null","null","null","","180","200","260","200","36000","52000","[2,3]","514.5666844250254","116.68414913363134","493.95001108572603"
"","canvas-keyboard-response","199","187713","0.0-6.0-4.27","534","","","","","clear_screen","null","null","","","catch","sw","l","sh","180","200","165","241","161","189","spektor","null","null","null","null","null","null","null","null","null","null","null","","180","200","260","200","36000","52000","[2,3]","514.5666844250254","116.68414913363134","493.95001108572603"
"","canvas-keyboard-response","200","188396","0.0-6.0-5.27","534","","","","","make choice","677","2","","","catch","sw","l","sh","180","200","165","241","161","189","spektor","null","null","null","null","null","null","null","null","null","null","null","","180","200","260","200","36000","52000","[2,3]","","",""
"","canvas-keyboard-response","201","188414","0.0-6.0-6.27","534","","","","","clear_screen","null","null","","","catch","sw","l","sh","180","200","165","241","161","189","spektor","null","null","null","null","null","null","null","null","null","null","null","","180","200","260","200","36000","52000","[2,3]","","",""
"","canvas-keyboard-response","202","188615","0.0-6.0-0.28","534","","","","","pre trial waiting period","null","null","","","catch","l","sh","sw","278","225","202","200","208","194","trueblood","null","null","null","null","null","null","null","null","null","null","null","","180","200","260","200","36000","52000","[1,2]","473.39238332429073","466.0827004369303","454.0343522135417"
"","canvas-keyboard-response","203","188635","0.0-6.0-1.28","534","","","","","clear_screen","null","null","","","catch","l","sh","sw","278","225","202","200","208","194","trueblood","null","null","null","null","null","null","null","null","null","null","null","","180","200","260","200","36000","52000","[1,2]","473.39238332429073","466.0827004369303","454.0343522135417"
"","canvas-keyboard-response","204","189140","0.0-6.0-2.28","534","","","","","rectangles no change","null","null","","","catch","l","sh","sw","278","225","202","200","208","194","trueblood","null","null","null","null","null","null","null","null","null","null","null","","180","200","260","200","36000","52000","[1,2]","473.39238332429073","466.0827004369303","454.0343522135417"
"","canvas-keyboard-response","205","190474","0.0-6.0-3.28","534","","","","","rectangles with change","null","null","","","catch","l","sh","sw","278","225","202","200","208","194","trueblood","null","null","null","null","null","null","null","null","null","null","null","","180","200","260","200","36000","52000","[1,2]","473.39238332429073","466.0827004369303","454.0343522135417"
"","canvas-keyboard-response","206","190492","0.0-6.0-4.28","534","","","","","clear_screen","null","null","","","catch","l","sh","sw","278","225","202","200","208","194","trueblood","null","null","null","null","null","null","null","null","null","null","null","","180","200","260","200","36000","52000","[1,2]","473.39238332429073","466.0827004369303","454.0343522135417"
"","canvas-keyboard-response","207","190989","0.0-6.0-5.28","534","","","","","make choice","488","1","","","catch","l","sh","sw","278","225","202","200","208","194","trueblood","null","null","null","null","null","null","null","null","null","null","null","","180","200","260","200","36000","52000","[1,2]","","",""
"","canvas-keyboard-response","208","191008","0.0-6.0-6.28","534","","","","","clear_screen","null","null","","","catch","l","sh","sw","278","225","202","200","208","194","trueblood","null","null","null","null","null","null","null","null","null","null","null","","180","200","260","200","36000","52000","[1,2]","","",""
"","canvas-keyboard-response","209","191208","0.0-6.0-0.29","534","","","","","pre trial waiting period","null","null","","","catch","sw","sh","l","180","200","171","188","201","242","spektor","null","null","null","null","null","null","null","null","null","null","null","","180","200","260","200","36000","52000","[2,3]","477.546459886531","144.39597315841436","463.2977596017"
"","canvas-keyboard-response","210","191228","0.0-6.0-1.29","534","","","","","clear_screen","null","null","","","catch","sw","sh","l","180","200","171","188","201","242","spektor","null","null","null","null","null","null","null","null","null","null","null","","180","200","260","200","36000","52000","[2,3]","477.546459886531","144.39597315841436","463.2977596017"
"","canvas-keyboard-response","211","191740","0.0-6.0-2.29","534","","","","","rectangles no change","null","null","","","catch","sw","sh","l","180","200","171","188","201","242","spektor","null","null","null","null","null","null","null","null","null","null","null","","180","200","260","200","36000","52000","[2,3]","477.546459886531","144.39597315841436","463.2977596017"
"","canvas-keyboard-response","212","193078","0.0-6.0-3.29","534","","","","","rectangles with change","null","null","","","catch","sw","sh","l","180","200","171","188","201","242","spektor","null","null","null","null","null","null","null","null","null","null","null","","180","200","260","200","36000","52000","[2,3]","477.546459886531","144.39597315841436","463.2977596017"
"","canvas-keyboard-response","213","193100","0.0-6.0-4.29","534","","","","","clear_screen","null","null","","","catch","sw","sh","l","180","200","171","188","201","242","spektor","null","null","null","null","null","null","null","null","null","null","null","","180","200","260","200","36000","52000","[2,3]","477.546459886531","144.39597315841436","463.2977596017"
"","canvas-keyboard-response","214","193139","0.0-6.0-5.29","534","","","","","make choice","34","3","","","catch","sw","sh","l","180","200","171","188","201","242","spektor","null","null","null","null","null","null","null","null","null","null","null","","180","200","260","200","36000","52000","[2,3]","","",""
"","canvas-keyboard-response","215","193158","0.0-6.0-6.29","534","","","","","clear_screen","null","null","","","catch","sw","sh","l","180","200","171","188","201","242","spektor","null","null","null","null","null","null","null","null","null","null","null","","180","200","260","200","36000","52000","[2,3]","","",""
"","canvas-keyboard-response","216","193359","0.0-6.0-0.30","534","","","","","pre trial waiting period","null","null","","","critical","c","d","t","164","240","232.8713","160.6713","240","164","trueblood","0.05","w","240","164","164","240","232.8713","160.6713","39360","39360","37415.7294","td","null","null","null","null","null","null","[3,2]","446.75277702303583","475.23831558678023","494.5427745171385"
"","canvas-keyboard-response","217","193378","0.0-6.0-1.30","534","","","","","clear_screen","null","null","","","critical","c","d","t","164","240","232.8713","160.6713","240","164","trueblood","0.05","w","240","164","164","240","232.8713","160.6713","39360","39360","37415.7294","td","null","null","null","null","null","null","[3,2]","446.75277702303583","475.23831558678023","494.5427745171385"
"","canvas-keyboard-response","218","193887","0.0-6.0-2.30","534","","","","","rectangles no change","null","null","","","critical","c","d","t","164","240","232.8713","160.6713","240","164","trueblood","0.05","w","240","164","164","240","232.8713","160.6713","39360","39360","37415.7294","td","null","null","null","null","null","null","[3,2]","446.75277702303583","475.23831558678023","494.5427745171385"
"","canvas-keyboard-response","219","195223","0.0-6.0-3.30","534","","","","","rectangles with change","null","null","","","critical","c","d","t","164","240","232.8713","160.6713","240","164","trueblood","0.05","w","240","164","164","240","232.8713","160.6713","39360","39360","37415.7294","td","null","null","null","null","null","null","[3,2]","446.75277702303583","475.23831558678023","494.5427745171385"
"","canvas-keyboard-response","220","195244","0.0-6.0-4.30","534","","","","","clear_screen","null","null","","","critical","c","d","t","164","240","232.8713","160.6713","240","164","trueblood","0.05","w","240","164","164","240","232.8713","160.6713","39360","39360","37415.7294","td","null","null","null","null","null","null","[3,2]","446.75277702303583","475.23831558678023","494.5427745171385"
"","canvas-keyboard-response","221","196524","0.0-6.0-5.30","534","","","","","make choice","1274","3","","","critical","c","d","t","164","240","232.8713","160.6713","240","164","trueblood","0.05","w","240","164","164","240","232.8713","160.6713","39360","39360","37415.7294","td","null","null","null","null","null","null","[3,2]","","",""
"","canvas-keyboard-response","222","196545","0.0-6.0-6.30","534","","","","","clear_screen","null","null","","","critical","c","d","t","164","240","232.8713","160.6713","240","164","trueblood","0.05","w","240","164","164","240","232.8713","160.6713","39360","39360","37415.7294","td","null","null","null","null","null","null","[3,2]","","",""
"","canvas-keyboard-response","223","196745","0.0-6.0-0.31","534","","","","","pre trial waiting period","null","null","","","catch","l","sw","sh","222","278","203","239","207","194","spektor","null","null","null","null","null","null","null","null","null","null","null","","180","200","260","200","36000","52000","[1,2]","468.81820096749766","121.93707439789684","493.34518195781885"
"","canvas-keyboard-response","224","196765","0.0-6.0-1.31","534","","","","","clear_screen","null","null","","","catch","l","sw","sh","222","278","203","239","207","194","spektor","null","null","null","null","null","null","null","null","null","null","null","","180","200","260","200","36000","52000","[1,2]","468.81820096749766","121.93707439789684","493.34518195781885"
"","canvas-keyboard-response","225","197273","0.0-6.0-2.31","534","","","","","rectangles no change","null","null","","","catch","l","sw","sh","222","278","203","239","207","194","spektor","null","null","null","null","null","null","null","null","null","null","null","","180","200","260","200","36000","52000","[1,2]","468.81820096749766","121.93707439789684","493.34518195781885"
"","canvas-keyboard-response","226","198606","0.0-6.0-3.31","534","","","","","rectangles with change","null","null","","","catch","l","sw","sh","222","278","203","239","207","194","spektor","null","null","null","null","null","null","null","null","null","null","null","","180","200","260","200","36000","52000","[1,2]","468.81820096749766","121.93707439789684","493.34518195781885"
"","canvas-keyboard-response","227","198628","0.0-6.0-4.31","534","","","","","clear_screen","null","null","","","catch","l","sw","sh","222","278","203","239","207","194","spektor","null","null","null","null","null","null","null","null","null","null","null","","180","200","260","200","36000","52000","[1,2]","468.81820096749766","121.93707439789684","493.34518195781885"
"","canvas-keyboard-response","228","199092","0.0-6.0-5.31","534","","","","","make choice","459","1","","","catch","l","sw","sh","222","278","203","239","207","194","spektor","null","null","null","null","null","null","null","null","null","null","null","","180","200","260","200","36000","52000","[1,2]","","",""
"","canvas-keyboard-response","229","199110","0.0-6.0-6.31","534","","","","","clear_screen","null","null","","","catch","l","sw","sh","222","278","203","239","207","194","spektor","null","null","null","null","null","null","null","null","null","null","null","","180","200","260","200","36000","52000","[1,2]","","",""
"","canvas-keyboard-response","230","199312","0.0-6.0-0.32","534","","","","","pre trial waiting period","null","null","","","critical","d","c","t","160.6713","232.8713","240","164","164","240","trueblood","0.05","h","164","240","240","164","160.6713","232.8713","39360","39360","37415.7294","td","null","null","null","null","null","null","[3,1]","439.2144091808796","488.0962348271727","419.14961031700676"
"","canvas-keyboard-response","231","199335","0.0-6.0-1.32","534","","","","","clear_screen","null","null","","","critical","d","c","t","160.6713","232.8713","240","164","164","240","trueblood","0.05","h","164","240","240","164","160.6713","232.8713","39360","39360","37415.7294","td","null","null","null","null","null","null","[3,1]","439.2144091808796","488.0962348271727","419.14961031700676"
"","canvas-keyboard-response","232","199840","0.0-6.0-2.32","534","","","","","rectangles no change","null","null","","","critical","d","c","t","160.6713","232.8713","240","164","164","240","trueblood","0.05","h","164","240","240","164","160.6713","232.8713","39360","39360","37415.7294","td","null","null","null","null","null","null","[3,1]","439.2144091808796","488.0962348271727","419.14961031700676"
"","canvas-keyboard-response","233","201177","0.0-6.0-3.32","534","","","","","rectangles with change","null","null","","","critical","d","c","t","160.6713","232.8713","240","164","164","240","trueblood","0.05","h","164","240","240","164","160.6713","232.8713","39360","39360","37415.7294","td","null","null","null","null","null","null","[3,1]","439.2144091808796","488.0962348271727","419.14961031700676"
"","canvas-keyboard-response","234","201197","0.0-6.0-4.32","534","","","","","clear_screen","null","null","","","critical","d","c","t","160.6713","232.8713","240","164","164","240","trueblood","0.05","h","164","240","240","164","160.6713","232.8713","39360","39360","37415.7294","td","null","null","null","null","null","null","[3,1]","439.2144091808796","488.0962348271727","419.14961031700676"
"","canvas-keyboard-response","235","202083","0.0-6.0-5.32","534","","","","","make choice","877","3","","","critical","d","c","t","160.6713","232.8713","240","164","164","240","trueblood","0.05","h","164","240","240","164","160.6713","232.8713","39360","39360","37415.7294","td","null","null","null","null","null","null","[3,1]","","",""
"","canvas-keyboard-response","236","202102","0.0-6.0-6.32","534","","","","","clear_screen","null","null","","","critical","d","c","t","160.6713","232.8713","240","164","164","240","trueblood","0.05","h","164","240","240","164","160.6713","232.8713","39360","39360","37415.7294","td","null","null","null","null","null","null","[3,1]","","",""
"","canvas-keyboard-response","237","202303","0.0-6.0-0.33","534","","","","","pre trial waiting period","null","null","","","critical","c","d","t","240","164","160.6713","232.8713","164","240","spektor","0.05","h","164","240","240","164","160.6713","232.8713","39360","39360","37415.7294","td","null","null","null","null","null","null","[3,2]","537.6791557367511","132.46919138996213","472.23771845857834"
"","canvas-keyboard-response","238","202324","0.0-6.0-1.33","534","","","","","clear_screen","null","null","","","critical","c","d","t","240","164","160.6713","232.8713","164","240","spektor","0.05","h","164","240","240","164","160.6713","232.8713","39360","39360","37415.7294","td","null","null","null","null","null","null","[3,2]","537.6791557367511","132.46919138996213","472.23771845857834"
"","canvas-keyboard-response","239","202830","0.0-6.0-2.33","534","","","","","rectangles no change","null","null","","","critical","c","d","t","240","164","160.6713","232.8713","164","240","spektor","0.05","h","164","240","240","164","160.6713","232.8713","39360","39360","37415.7294","td","null","null","null","null","null","null","[3,2]","537.6791557367511","132.46919138996213","472.23771845857834"
"","canvas-keyboard-response","240","204165","0.0-6.0-3.33","534","","","","","rectangles with change","null","null","","","critical","c","d","t","240","164","160.6713","232.8713","164","240","spektor","0.05","h","164","240","240","164","160.6713","232.8713","39360","39360","37415.7294","td","null","null","null","null","null","null","[3,2]","537.6791557367511","132.46919138996213","472.23771845857834"
"","canvas-keyboard-response","241","204187","0.0-6.0-4.33","534","","","","","clear_screen","null","null","","","critical","c","d","t","240","164","160.6713","232.8713","164","240","spektor","0.05","h","164","240","240","164","160.6713","232.8713","39360","39360","37415.7294","td","null","null","null","null","null","null","[3,2]","537.6791557367511","132.46919138996213","472.23771845857834"
"","canvas-keyboard-response","242","204900","0.0-6.0-5.33","534","","","","","make choice","709","3","","","critical","c","d","t","240","164","160.6713","232.8713","164","240","spektor","0.05","h","164","240","240","164","160.6713","232.8713","39360","39360","37415.7294","td","null","null","null","null","null","null","[3,2]","","",""
"","canvas-keyboard-response","243","204918","0.0-6.0-6.33","534","","","","","clear_screen","null","null","","","critical","c","d","t","240","164","160.6713","232.8713","164","240","spektor","0.05","h","164","240","240","164","160.6713","232.8713","39360","39360","37415.7294","td","null","null","null","null","null","null","[3,2]","","",""
"","canvas-keyboard-response","244","205119","0.0-6.0-0.34","534","","","","","pre trial waiting period","null","null","","","critical","t","c","d","164","240","240","164","154.6796","220.0396","trueblood","0.14","h","164","240","240","164","154.6796","220.0396","39360","39360","34035.6388","td","null","null","null","null","null","null","[1,3]","446.0894914624751","511.90488471803206","468.68543562304643"
"","canvas-keyboard-response","245","205138","0.0-6.0-1.34","534","","","","","clear_screen","null","null","","","critical","t","c","d","164","240","240","164","154.6796","220.0396","trueblood","0.14","h","164","240","240","164","154.6796","220.0396","39360","39360","34035.6388","td","null","null","null","null","null","null","[1,3]","446.0894914624751","511.90488471803206","468.68543562304643"
"","canvas-keyboard-response","246","205646","0.0-6.0-2.34","534","","","","","rectangles no change","null","null","","","critical","t","c","d","164","240","240","164","154.6796","220.0396","trueblood","0.14","h","164","240","240","164","154.6796","220.0396","39360","39360","34035.6388","td","null","null","null","null","null","null","[1,3]","446.0894914624751","511.90488471803206","468.68543562304643"
"","canvas-keyboard-response","247","206985","0.0-6.0-3.34","534","","","","","rectangles with change","null","null","","","critical","t","c","d","164","240","240","164","154.6796","220.0396","trueblood","0.14","h","164","240","240","164","154.6796","220.0396","39360","39360","34035.6388","td","null","null","null","null","null","null","[1,3]","446.0894914624751","511.90488471803206","468.68543562304643"
"","canvas-keyboard-response","248","207003","0.0-6.0-4.34","534","","","","","clear_screen","null","null","","","critical","t","c","d","164","240","240","164","154.6796","220.0396","trueblood","0.14","h","164","240","240","164","154.6796","220.0396","39360","39360","34035.6388","td","null","null","null","null","null","null","[1,3]","446.0894914624751","511.90488471803206","468.68543562304643"
"","canvas-keyboard-response","249","207804","0.0-6.0-5.34","534","","","","","make choice","797","1","","","critical","t","c","d","164","240","240","164","154.6796","220.0396","trueblood","0.14","h","164","240","240","164","154.6796","220.0396","39360","39360","34035.6388","td","null","null","null","null","null","null","[1,3]","","",""
"","canvas-keyboard-response","250","207822","0.0-6.0-6.34","534","","","","","clear_screen","null","null","","","critical","t","c","d","164","240","240","164","154.6796","220.0396","trueblood","0.14","h","164","240","240","164","154.6796","220.0396","39360","39360","34035.6388","td","null","null","null","null","null","null","[1,3]","","",""
"","canvas-keyboard-response","251","208024","0.0-6.0-0.35","534","","","","","pre trial waiting period","null","null","","","critical","d","t","c","160.6713","232.8713","164","240","240","164","spektor","0.05","h","164","240","240","164","160.6713","232.8713","39360","39360","37415.7294","tc","null","null","null","null","null","null","[2,3]","487.60902341960445","117.04051597175699","540.0795565787076"
"","canvas-keyboard-response","252","208044","0.0-6.0-1.35","534","","","","","clear_screen","null","null","","","critical","d","t","c","160.6713","232.8713","164","240","240","164","spektor","0.05","h","164","240","240","164","160.6713","232.8713","39360","39360","37415.7294","tc","null","null","null","null","null","null","[2,3]","487.60902341960445","117.04051597175699","540.0795565787076"
"","canvas-keyboard-response","253","208550","0.0-6.0-2.35","534","","","","","rectangles no change","null","null","","","critical","d","t","c","160.6713","232.8713","164","240","240","164","spektor","0.05","h","164","240","240","164","160.6713","232.8713","39360","39360","37415.7294","tc","null","null","null","null","null","null","[2,3]","487.60902341960445","117.04051597175699","540.0795565787076"
"","canvas-keyboard-response","254","209887","0.0-6.0-3.35","534","","","","","rectangles with change","null","null","","","critical","d","t","c","160.6713","232.8713","164","240","240","164","spektor","0.05","h","164","240","240","164","160.6713","232.8713","39360","39360","37415.7294","tc","null","null","null","null","null","null","[2,3]","487.60902341960445","117.04051597175699","540.0795565787076"
"","canvas-keyboard-response","255","209906","0.0-6.0-4.35","534","","","","","clear_screen","null","null","","","critical","d","t","c","160.6713","232.8713","164","240","240","164","spektor","0.05","h","164","240","240","164","160.6713","232.8713","39360","39360","37415.7294","tc","null","null","null","null","null","null","[2,3]","487.60902341960445","117.04051597175699","540.0795565787076"
"","canvas-keyboard-response","256","210067","0.0-6.0-5.35","534","","","","","make choice","157","3","","","critical","d","t","c","160.6713","232.8713","164","240","240","164","spektor","0.05","h","164","240","240","164","160.6713","232.8713","39360","39360","37415.7294","tc","null","null","null","null","null","null","[2,3]","","",""
"","canvas-keyboard-response","257","210083","0.0-6.0-6.35","534","","","","","clear_screen","null","null","","","critical","d","t","c","160.6713","232.8713","164","240","240","164","spektor","0.05","h","164","240","240","164","160.6713","232.8713","39360","39360","37415.7294","tc","null","null","null","null","null","null","[2,3]","","",""
"","canvas-keyboard-response","258","210284","0.0-6.0-0.36","534","","","","","pre trial waiting period","null","null","","","critical","t","c","d","164","240","240","164","162.6685","237.1485","trueblood","0.02","h","164","240","240","164","162.6685","237.1485","39360","39360","38576.5967","dc","null","null","null","null","null","null","[3,2]","432.64651976413575","485.15768100358775","460.9331080692247"
"","canvas-keyboard-response","259","210306","0.0-6.0-1.36","534","","","","","clear_screen","null","null","","","critical","t","c","d","164","240","240","164","162.6685","237.1485","trueblood","0.02","h","164","240","240","164","162.6685","237.1485","39360","39360","38576.5967","dc","null","null","null","null","null","null","[3,2]","432.64651976413575","485.15768100358775","460.9331080692247"
"","canvas-keyboard-response","260","210815","0.0-6.0-2.36","534","","","","","rectangles no change","null","null","","","critical","t","c","d","164","240","240","164","162.6685","237.1485","trueblood","0.02","h","164","240","240","164","162.6685","237.1485","39360","39360","38576.5967","dc","null","null","null","null","null","null","[3,2]","432.64651976413575","485.15768100358775","460.9331080692247"
"","canvas-keyboard-response","261","212151","0.0-6.0-3.36","534","","","","","rectangles with change","null","null","","","critical","t","c","d","164","240","240","164","162.6685","237.1485","trueblood","0.02","h","164","240","240","164","162.6685","237.1485","39360","39360","38576.5967","dc","null","null","null","null","null","null","[3,2]","432.64651976413575","485.15768100358775","460.9331080692247"
"","canvas-keyboard-response","262","212170","0.0-6.0-4.36","534","","","","","clear_screen","null","null","","","critical","t","c","d","164","240","240","164","162.6685","237.1485","trueblood","0.02","h","164","240","240","164","162.6685","237.1485","39360","39360","38576.5967","dc","null","null","null","null","null","null","[3,2]","432.64651976413575","485.15768100358775","460.9331080692247"
"","canvas-keyboard-response","263","212988","0.0-6.0-5.36","534","","","","","make choice","813","2","","","critical","t","c","d","164","240","240","164","162.6685","237.1485","trueblood","0.02","h","164","240","240","164","162.6685","237.1485","39360","39360","38576.5967","dc","null","null","null","null","null","null","[3,2]","","",""
"","canvas-keyboard-response","264","213010","0.0-6.0-6.36","534","","","","","clear_screen","null","null","","","critical","t","c","d","164","240","240","164","162.6685","237.1485","trueblood","0.02","h","164","240","240","164","162.6685","237.1485","39360","39360","38576.5967","dc","null","null","null","null","null","null","[3,2]","","",""
"","canvas-keyboard-response","265","213210","0.0-6.0-0.37","534","","","","","pre trial waiting period","null","null","","","critical","t","d","c","164","240","154.6796","220.0396","240","164","spektor","0.14","h","164","240","240","164","154.6796","220.0396","39360","39360","34035.6388","td","null","null","null","null","null","null","[1,2]","461.4358659616827","141.25715857424024","497.01356694110734"
"","canvas-keyboard-response","266","213234","0.0-6.0-1.37","534","","","","","clear_screen","null","null","","","critical","t","d","c","164","240","154.6796","220.0396","240","164","spektor","0.14","h","164","240","240","164","154.6796","220.0396","39360","39360","34035.6388","td","null","null","null","null","null","null","[1,2]","461.4358659616827","141.25715857424024","497.01356694110734"
"","canvas-keyboard-response","267","213742","0.0-6.0-2.37","534","","","","","rectangles no change","null","null","","","critical","t","d","c","164","240","154.6796","220.0396","240","164","spektor","0.14","h","164","240","240","164","154.6796","220.0396","39360","39360","34035.6388","td","null","null","null","null","null","null","[1,2]","461.4358659616827","141.25715857424024","497.01356694110734"
