"success","trial_type","trial_index","time_elapsed","internal_node_id","sub_n","timeout","failed_images","failed_audio","failed_video","screen_id","rt","response","stimulus","view_history","trial","r1","r2","r3","w1","h1","w2","h2","w3","h3","display","tdd","tdo","tw","th","cw","ch","dw","dh","ta","ca","da","probe","csls","csss","clls","clss","sa","la","probe_rects","r1yloc","r2yloc","r3yloc"
"true","fullscreen","0","5337","0.0-0.0","536","","","","","","","","","","","","","","","","","","","","","","","","","","","","","","","","","","","","","","","","","",""
"true","preload","1","5355","0.0-1.0","536","false","[]","[]","[]","img preload","","","","","","","","","","","","","","","","","","","","","","","","","","","","","","","","","","","","",""
"","survey-html-form","2","14198","0.0-2.0","536","","","","","enter-sub-number","8834","{""response"":""536""}","","","","","","","","","","","","","","","","","","","","","","","","","","","","","","","","","","",""
"","image-button-response","3","29136","0.0-3.0","536","","","","","","14871","0","consent.png","","","","","","","","","","","","","","","","","","","","","","","","","","","","","","","","","",""
"","html-button-response","4","49376","0.0-4.0","536","","","","","intro mssg","20235","0","<div style= ""font-size:25px;"" <p> <strong> Welcome! </strong><br> <p style=""color:#8B0000; font-size:25px;""><strong> Please do NOT exit full screen until you are done with the experiment. </strong> </p><p style=""font-size:25px;color:#8B0000;""> <strong> Your data will be lost <br> if you try to go back or refresh the page after the experiment starts. Feel free to click ""previous"" during the instructions, however.</strong> </p><br><p> <strong> Thanks in advance for your contribution to our research! </strong></p>","","","","","","","","","","","","","","","","","","","","","","","","","","","","","","","","","",""
"","instructions","5","88433","0.0-5.0","536","","","","","instructions","39051","","","[{""page_index"":0,""viewing_time"":6746},{""page_index"":1,""viewing_time"":6072},{""page_index"":2,""viewing_time"":4064},{""page_index"":3,""viewing_time"":6056},{""page_index"":4,""viewing_time"":10025},{""page_index"":5,""viewing_time"":2286},{""page_index"":6,""viewing_time"":2178},{""page_index"":7,""viewing_time"":1624}]","","","","","","","","","","","","","","","","","","","","","","","","","","","","","","","","",""
"","canvas-keyboard-response","6","88638","0.0-6.0-0.0","536","","","","","pre trial waiting period","null","null","","","critical","t","d","c","240","164","232.8713","160.6713","164","240","spektor","0.05","w","240","164","164","240","232.8713","160.6713","39360","39360","37415.7294","td","null","null","null","null","null","null","[1,2]","496.8526745611016","205.5108954069541","467.16358167533457"
"","canvas-keyboard-response","7","88660","0.0-6.0-1.0","536","","","","","clear_screen","null","null","","","critical","t","d","c","240","164","232.8713","160.6713","164","240","spektor","0.05","w","240","164","164","240","232.8713","160.6713","39360","39360","37415.7294","td","null","null","null","null","null","null","[1,2]","496.8526745611016","205.5108954069541","467.16358167533457"
"","canvas-keyboard-response","8","89171","0.0-6.0-2.0","536","","","","","rectangles no change","null","null","","","critical","t","d","c","240","164","232.8713","160.6713","164","240","spektor","0.05","w","240","164","164","240","232.8713","160.6713","39360","39360","37415.7294","td","null","null","null","null","null","null","[1,2]","496.8526745611016","205.5108954069541","467.16358167533457"
"","canvas-keyboard-response","9","90504","0.0-6.0-3.0","536","","","","","rectangles with change","null","null","","","critical","t","d","c","240","164","232.8713","160.6713","164","240","spektor","0.05","w","240","164","164","240","232.8713","160.6713","39360","39360","37415.7294","td","null","null","null","null","null","null","[1,2]","496.8526745611016","205.5108954069541","467.16358167533457"
"","canvas-keyboard-response","10","90524","0.0-6.0-4.0","536","","","","","clear_screen","null","null","","","critical","t","d","c","240","164","232.8713","160.6713","164","240","spektor","0.05","w","240","164","164","240","232.8713","160.6713","39360","39360","37415.7294","td","null","null","null","null","null","null","[1,2]","496.8526745611016","205.5108954069541","467.16358167533457"
"","canvas-keyboard-response","11","96920","0.0-6.0-5.0","536","","","","","make choice","6389","1","","","critical","t","d","c","240","164","232.8713","160.6713","164","240","spektor","0.05","w","240","164","164","240","232.8713","160.6713","39360","39360","37415.7294","td","null","null","null","null","null","null","[1,2]","","",""
"","canvas-keyboard-response","12","96937","0.0-6.0-6.0","536","","","","","clear_screen","null","null","","","critical","t","d","c","240","164","232.8713","160.6713","164","240","spektor","0.05","w","240","164","164","240","232.8713","160.6713","39360","39360","37415.7294","td","null","null","null","null","null","null","[1,2]","","",""
"","canvas-keyboard-response","13","97139","0.0-6.0-0.1","536","","","","","pre trial waiting period","null","null","","","catch","sh","sw","l","213","144","170","201","235","237","spektor","null","null","null","null","null","null","null","null","null","null","null","","180","200","260","200","36000","52000","[1,3]","514.9400051545721","136.8711679498649","461.60407754518604"
"","canvas-keyboard-response","14","97159","0.0-6.0-1.1","536","","","","","clear_screen","null","null","","","catch","sh","sw","l","213","144","170","201","235","237","spektor","null","null","null","null","null","null","null","null","null","null","null","","180","200","260","200","36000","52000","[1,3]","514.9400051545721","136.8711679498649","461.60407754518604"
"","canvas-keyboard-response","15","97665","0.0-6.0-2.1","536","","","","","rectangles no change","null","null","","","catch","sh","sw","l","213","144","170","201","235","237","spektor","null","null","null","null","null","null","null","null","null","null","null","","180","200","260","200","36000","52000","[1,3]","514.9400051545721","136.8711679498649","461.60407754518604"
"","canvas-keyboard-response","16","99001","0.0-6.0-3.1","536","","","","","rectangles with change","null","null","","","catch","sh","sw","l","213","144","170","201","235","237","spektor","null","null","null","null","null","null","null","null","null","null","null","","180","200","260","200","36000","52000","[1,3]","514.9400051545721","136.8711679498649","461.60407754518604"
"","canvas-keyboard-response","17","99022","0.0-6.0-4.1","536","","","","","clear_screen","null","null","","","catch","sh","sw","l","213","144","170","201","235","237","spektor","null","null","null","null","null","null","null","null","null","null","null","","180","200","260","200","36000","52000","[1,3]","514.9400051545721","136.8711679498649","461.60407754518604"
"","canvas-keyboard-response","18","100870","0.0-6.0-5.1","536","","","","","make choice","1839","3","","","catch","sh","sw","l","213","144","170","201","235","237","spektor","null","null","null","null","null","null","null","null","null","null","null","","180","200","260","200","36000","52000","[1,3]","","",""
"","canvas-keyboard-response","19","100889","0.0-6.0-6.1","536","","","","","clear_screen","null","null","","","catch","sh","sw","l","213","144","170","201","235","237","spektor","null","null","null","null","null","null","null","null","null","null","null","","180","200","260","200","36000","52000","[1,3]","","",""
"","canvas-keyboard-response","20","101091","0.0-6.0-0.2","536","","","","","pre trial waiting period","null","null","","","catch","sw","sh","l","180","200","226","209","218","220","trueblood","null","null","null","null","null","null","null","null","null","null","null","","180","200","260","200","36000","52000","[2,3]","454.614833703116","486.57322105407326","435.5192851048372"
"","canvas-keyboard-response","21","101111","0.0-6.0-1.2","536","","","","","clear_screen","null","null","","","catch","sw","sh","l","180","200","226","209","218","220","trueblood","null","null","null","null","null","null","null","null","null","null","null","","180","200","260","200","36000","52000","[2,3]","454.614833703116","486.57322105407326","435.5192851048372"
"","canvas-keyboard-response","22","101617","0.0-6.0-2.2","536","","","","","rectangles no change","null","null","","","catch","sw","sh","l","180","200","226","209","218","220","trueblood","null","null","null","null","null","null","null","null","null","null","null","","180","200","260","200","36000","52000","[2,3]","454.614833703116","486.57322105407326","435.5192851048372"
"","canvas-keyboard-response","23","102956","0.0-6.0-3.2","536","","","","","rectangles with change","null","null","","","catch","sw","sh","l","180","200","226","209","218","220","trueblood","null","null","null","null","null","null","null","null","null","null","null","","180","200","260","200","36000","52000","[2,3]","454.614833703116","486.57322105407326","435.5192851048372"
"","canvas-keyboard-response","24","102976","0.0-6.0-4.2","536","","","","","clear_screen","null","null","","","catch","sw","sh","l","180","200","226","209","218","220","trueblood","null","null","null","null","null","null","null","null","null","null","null","","180","200","260","200","36000","52000","[2,3]","454.614833703116","486.57322105407326","435.5192851048372"
"","canvas-keyboard-response","25","105845","0.0-6.0-5.2","536","","","","","make choice","2863","2","","","catch","sw","sh","l","180","200","226","209","218","220","trueblood","null","null","null","null","null","null","null","null","null","null","null","","180","200","260","200","36000","52000","[2,3]","","",""
"","canvas-keyboard-response","26","105860","0.0-6.0-6.2","536","","","","","clear_screen","null","null","","","catch","sw","sh","l","180","200","226","209","218","220","trueblood","null","null","null","null","null","null","null","null","null","null","null","","180","200","260","200","36000","52000","[2,3]","","",""
"","canvas-keyboard-response","27","106062","0.0-6.0-0.3","536","","","","","pre trial waiting period","null","null","","","catch","sh","l","sw","175","168","217","239","160","186","spektor","null","null","null","null","null","null","null","null","null","null","null","","180","200","260","200","36000","52000","[2,3]","522.1911510773081","116.81558980728815","498.58753954169197"
"","canvas-keyboard-response","28","106082","0.0-6.0-1.3","536","","","","","clear_screen","null","null","","","catch","sh","l","sw","175","168","217","239","160","186","spektor","null","null","null","null","null","null","null","null","null","null","null","","180","200","260","200","36000","52000","[2,3]","522.1911510773081","116.81558980728815","498.58753954169197"
"","canvas-keyboard-response","29","106590","0.0-6.0-2.3","536","","","","","rectangles no change","null","null","","","catch","sh","l","sw","175","168","217","239","160","186","spektor","null","null","null","null","null","null","null","null","null","null","null","","180","200","260","200","36000","52000","[2,3]","522.1911510773081","116.81558980728815","498.58753954169197"
"","canvas-keyboard-response","30","107925","0.0-6.0-3.3","536","","","","","rectangles with change","null","null","","","catch","sh","l","sw","175","168","217","239","160","186","spektor","null","null","null","null","null","null","null","null","null","null","null","","180","200","260","200","36000","52000","[2,3]","522.1911510773081","116.81558980728815","498.58753954169197"
"","canvas-keyboard-response","31","107947","0.0-6.0-4.3","536","","","","","clear_screen","null","null","","","catch","sh","l","sw","175","168","217","239","160","186","spektor","null","null","null","null","null","null","null","null","null","null","null","","180","200","260","200","36000","52000","[2,3]","522.1911510773081","116.81558980728815","498.58753954169197"
"","canvas-keyboard-response","32","108736","0.0-6.0-5.3","536","","","","","make choice","784","2","","","catch","sh","l","sw","175","168","217","239","160","186","spektor","null","null","null","null","null","null","null","null","null","null","null","","180","200","260","200","36000","52000","[2,3]","","",""
"","canvas-keyboard-response","33","108758","0.0-6.0-6.3","536","","","","","clear_screen","null","null","","","catch","sh","l","sw","175","168","217","239","160","186","spektor","null","null","null","null","null","null","null","null","null","null","null","","180","200","260","200","36000","52000","[2,3]","","",""
"","canvas-keyboard-response","34","108959","0.0-6.0-0.4","536","","","","","pre trial waiting period","null","null","","","critical","c","d","t","240","164","154.6796","220.0396","164","240","trueblood","0.14","h","164","240","240","164","154.6796","220.0396","39360","39360","34035.6388","tc","null","null","null","null","null","null","[3,1]","477.3166734515444","452.3770168548364","452.49761583615174"
"","canvas-keyboard-response","35","108978","0.0-6.0-1.4","536","","","","","clear_screen","null","null","","","critical","c","d","t","240","164","154.6796","220.0396","164","240","trueblood","0.14","h","164","240","240","164","154.6796","220.0396","39360","39360","34035.6388","tc","null","null","null","null","null","null","[3,1]","477.3166734515444","452.3770168548364","452.49761583615174"
"","canvas-keyboard-response","36","109485","0.0-6.0-2.4","536","","","","","rectangles no change","null","null","","","critical","c","d","t","240","164","154.6796","220.0396","164","240","trueblood","0.14","h","164","240","240","164","154.6796","220.0396","39360","39360","34035.6388","tc","null","null","null","null","null","null","[3,1]","477.3166734515444","452.3770168548364","452.49761583615174"
"","canvas-keyboard-response","37","110824","0.0-6.0-3.4","536","","","","","rectangles with change","null","null","","","critical","c","d","t","240","164","154.6796","220.0396","164","240","trueblood","0.14","h","164","240","240","164","154.6796","220.0396","39360","39360","34035.6388","tc","null","null","null","null","null","null","[3,1]","477.3166734515444","452.3770168548364","452.49761583615174"
"","canvas-keyboard-response","38","110838","0.0-6.0-4.4","536","","","","","clear_screen","null","null","","","critical","c","d","t","240","164","154.6796","220.0396","164","240","trueblood","0.14","h","164","240","240","164","154.6796","220.0396","39360","39360","34035.6388","tc","null","null","null","null","null","null","[3,1]","477.3166734515444","452.3770168548364","452.49761583615174"
"","canvas-keyboard-response","39","111927","0.0-6.0-5.4","536","","","","","make choice","1082","1","","","critical","c","d","t","240","164","154.6796","220.0396","164","240","trueblood","0.14","h","164","240","240","164","154.6796","220.0396","39360","39360","34035.6388","tc","null","null","null","null","null","null","[3,1]","","",""
"","canvas-keyboard-response","40","111944","0.0-6.0-6.4","536","","","","","clear_screen","null","null","","","critical","c","d","t","240","164","154.6796","220.0396","164","240","trueblood","0.14","h","164","240","240","164","154.6796","220.0396","39360","39360","34035.6388","tc","null","null","null","null","null","null","[3,1]","","",""
"","canvas-keyboard-response","41","112146","0.0-6.0-0.5","536","","","","","pre trial waiting period","null","null","","","catch","sw","l","sh","180","200","190","265","169","169","trueblood","null","null","null","null","null","null","null","null","null","null","null","","180","200","260","200","36000","52000","[1,2]","466.41217545600955","404.52827834404695","493.5847181707966"
"","canvas-keyboard-response","42","112167","0.0-6.0-1.5","536","","","","","clear_screen","null","null","","","catch","sw","l","sh","180","200","190","265","169","169","trueblood","null","null","null","null","null","null","null","null","null","null","null","","180","200","260","200","36000","52000","[1,2]","466.41217545600955","404.52827834404695","493.5847181707966"
"","canvas-keyboard-response","43","112675","0.0-6.0-2.5","536","","","","","rectangles no change","null","null","","","catch","sw","l","sh","180","200","190","265","169","169","trueblood","null","null","null","null","null","null","null","null","null","null","null","","180","200","260","200","36000","52000","[1,2]","466.41217545600955","404.52827834404695","493.5847181707966"
"","canvas-keyboard-response","44","114010","0.0-6.0-3.5","536","","","","","rectangles with change","null","null","","","catch","sw","l","sh","180","200","190","265","169","169","trueblood","null","null","null","null","null","null","null","null","null","null","null","","180","200","260","200","36000","52000","[1,2]","466.41217545600955","404.52827834404695","493.5847181707966"
"","canvas-keyboard-response","45","114030","0.0-6.0-4.5","536","","","","","clear_screen","null","null","","","catch","sw","l","sh","180","200","190","265","169","169","trueblood","null","null","null","null","null","null","null","null","null","null","null","","180","200","260","200","36000","52000","[1,2]","466.41217545600955","404.52827834404695","493.5847181707966"
"","canvas-keyboard-response","46","115351","0.0-6.0-5.5","536","","","","","make choice","1317","2","","","catch","sw","l","sh","180","200","190","265","169","169","trueblood","null","null","null","null","null","null","null","null","null","null","null","","180","200","260","200","36000","52000","[1,2]","","",""
"","canvas-keyboard-response","47","115368","0.0-6.0-6.5","536","","","","","clear_screen","null","null","","","catch","sw","l","sh","180","200","190","265","169","169","trueblood","null","null","null","null","null","null","null","null","null","null","null","","180","200","260","200","36000","52000","[1,2]","","",""
"","canvas-keyboard-response","48","115569","0.0-6.0-0.6","536","","","","","pre trial waiting period","null","null","","","catch","sw","l","sh","180","200","210","250","167","181","spektor","null","null","null","null","null","null","null","null","null","null","null","","180","200","260","200","36000","52000","[2,3]","482.8032163008113","107.76960512500126","521.1650623731646"
"","canvas-keyboard-response","49","115590","0.0-6.0-1.6","536","","","","","clear_screen","null","null","","","catch","sw","l","sh","180","200","210","250","167","181","spektor","null","null","null","null","null","null","null","null","null","null","null","","180","200","260","200","36000","52000","[2,3]","482.8032163008113","107.76960512500126","521.1650623731646"
"","canvas-keyboard-response","50","116099","0.0-6.0-2.6","536","","","","","rectangles no change","null","null","","","catch","sw","l","sh","180","200","210","250","167","181","spektor","null","null","null","null","null","null","null","null","null","null","null","","180","200","260","200","36000","52000","[2,3]","482.8032163008113","107.76960512500126","521.1650623731646"
"","canvas-keyboard-response","51","117436","0.0-6.0-3.6","536","","","","","rectangles with change","null","null","","","catch","sw","l","sh","180","200","210","250","167","181","spektor","null","null","null","null","null","null","null","null","null","null","null","","180","200","260","200","36000","52000","[2,3]","482.8032163008113","107.76960512500126","521.1650623731646"
"","canvas-keyboard-response","52","117457","0.0-6.0-4.6","536","","","","","clear_screen","null","null","","","catch","sw","l","sh","180","200","210","250","167","181","spektor","null","null","null","null","null","null","null","null","null","null","null","","180","200","260","200","36000","52000","[2,3]","482.8032163008113","107.76960512500126","521.1650623731646"
"","canvas-keyboard-response","53","118199","0.0-6.0-5.6","536","","","","","make choice","737","2","","","catch","sw","l","sh","180","200","210","250","167","181","spektor","null","null","null","null","null","null","null","null","null","null","null","","180","200","260","200","36000","52000","[2,3]","","",""
"","canvas-keyboard-response","54","118216","0.0-6.0-6.6","536","","","","","clear_screen","null","null","","","catch","sw","l","sh","180","200","210","250","167","181","spektor","null","null","null","null","null","null","null","null","null","null","null","","180","200","260","200","36000","52000","[2,3]","","",""
"","canvas-keyboard-response","55","118417","0.0-6.0-0.7","536","","","","","pre trial waiting period","null","null","","","critical","t","d","c","240","164","237.1485","162.6685","164","240","spektor","0.02","w","240","164","164","240","237.1485","162.6685","39360","39360","38576.5967","td","null","null","null","null","null","null","[1,2]","519.6327134251105","188.6268699602884","469.5986824379335"
"","canvas-keyboard-response","56","118437","0.0-6.0-1.7","536","","","","","clear_screen","null","null","","","critical","t","d","c","240","164","237.1485","162.6685","164","240","spektor","0.02","w","240","164","164","240","237.1485","162.6685","39360","39360","38576.5967","td","null","null","null","null","null","null","[1,2]","519.6327134251105","188.6268699602884","469.5986824379335"
"","canvas-keyboard-response","57","118945","0.0-6.0-2.7","536","","","","","rectangles no change","null","null","","","critical","t","d","c","240","164","237.1485","162.6685","164","240","spektor","0.02","w","240","164","164","240","237.1485","162.6685","39360","39360","38576.5967","td","null","null","null","null","null","null","[1,2]","519.6327134251105","188.6268699602884","469.5986824379335"
"","canvas-keyboard-response","58","120281","0.0-6.0-3.7","536","","","","","rectangles with change","null","null","","","critical","t","d","c","240","164","237.1485","162.6685","164","240","spektor","0.02","w","240","164","164","240","237.1485","162.6685","39360","39360","38576.5967","td","null","null","null","null","null","null","[1,2]","519.6327134251105","188.6268699602884","469.5986824379335"
"","canvas-keyboard-response","59","120303","0.0-6.0-4.7","536","","","","","clear_screen","null","null","","","critical","t","d","c","240","164","237.1485","162.6685","164","240","spektor","0.02","w","240","164","164","240","237.1485","162.6685","39360","39360","38576.5967","td","null","null","null","null","null","null","[1,2]","519.6327134251105","188.6268699602884","469.5986824379335"
"","canvas-keyboard-response","60","122263","0.0-6.0-5.7","536","","","","","make choice","1956","1","","","critical","t","d","c","240","164","237.1485","162.6685","164","240","spektor","0.02","w","240","164","164","240","237.1485","162.6685","39360","39360","38576.5967","td","null","null","null","null","null","null","[1,2]","","",""
"","canvas-keyboard-response","61","122284","0.0-6.0-6.7","536","","","","","clear_screen","null","null","","","critical","t","d","c","240","164","237.1485","162.6685","164","240","spektor","0.02","w","240","164","164","240","237.1485","162.6685","39360","39360","38576.5967","td","null","null","null","null","null","null","[1,2]","","",""
"","canvas-keyboard-response","62","122484","0.0-6.0-0.8","536","","","","","pre trial waiting period","null","null","","","critical","c","t","d","240","164","164","240","164","240","trueblood","0","h","164","240","240","164","164","240","39360","39360","39360","tc","null","null","null","null","null","null","[2,1]","496.7467969832924","448.0278679504844","455.96007196058207"
"","canvas-keyboard-response","63","122503","0.0-6.0-1.8","536","","","","","clear_screen","null","null","","","critical","c","t","d","240","164","164","240","164","240","trueblood","0","h","164","240","240","164","164","240","39360","39360","39360","tc","null","null","null","null","null","null","[2,1]","496.7467969832924","448.0278679504844","455.96007196058207"
"","canvas-keyboard-response","64","123010","0.0-6.0-2.8","536","","","","","rectangles no change","null","null","","","critical","c","t","d","240","164","164","240","164","240","trueblood","0","h","164","240","240","164","164","240","39360","39360","39360","tc","null","null","null","null","null","null","[2,1]","496.7467969832924","448.0278679504844","455.96007196058207"
"","canvas-keyboard-response","65","124345","0.0-6.0-3.8","536","","","","","rectangles with change","null","null","","","critical","c","t","d","240","164","164","240","164","240","trueblood","0","h","164","240","240","164","164","240","39360","39360","39360","tc","null","null","null","null","null","null","[2,1]","496.7467969832924","448.0278679504844","455.96007196058207"
"","canvas-keyboard-response","66","124362","0.0-6.0-4.8","536","","","","","clear_screen","null","null","","","critical","c","t","d","240","164","164","240","164","240","trueblood","0","h","164","240","240","164","164","240","39360","39360","39360","tc","null","null","null","null","null","null","[2,1]","496.7467969832924","448.0278679504844","455.96007196058207"
"","canvas-keyboard-response","67","126520","0.0-6.0-5.8","536","","","","","make choice","2148","1","","","critical","c","t","d","240","164","164","240","164","240","trueblood","0","h","164","240","240","164","164","240","39360","39360","39360","tc","null","null","null","null","null","null","[2,1]","","",""
"","canvas-keyboard-response","68","126537","0.0-6.0-6.8","536","","","","","clear_screen","null","null","","","critical","c","t","d","240","164","164","240","164","240","trueblood","0","h","164","240","240","164","164","240","39360","39360","39360","tc","null","null","null","null","null","null","[2,1]","","",""
"","canvas-keyboard-response","69","126738","0.0-6.0-0.9","536","","","","","pre trial waiting period","null","null","","","critical","t","d","c","164","240","154.6796","220.0396","240","164","spektor","0.14","h","164","240","240","164","154.6796","220.0396","39360","39360","34035.6388","tc","null","null","null","null","null","null","[1,3]","484.5229564220602","133.2399766083279","519.4369127393028"
"","canvas-keyboard-response","70","126761","0.0-6.0-1.9","536","","","","","clear_screen","null","null","","","critical","t","d","c","164","240","154.6796","220.0396","240","164","spektor","0.14","h","164","240","240","164","154.6796","220.0396","39360","39360","34035.6388","tc","null","null","null","null","null","null","[1,3]","484.5229564220602","133.2399766083279","519.4369127393028"
"","canvas-keyboard-response","71","127270","0.0-6.0-2.9","536","","","","","rectangles no change","null","null","","","critical","t","d","c","164","240","154.6796","220.0396","240","164","spektor","0.14","h","164","240","240","164","154.6796","220.0396","39360","39360","34035.6388","tc","null","null","null","null","null","null","[1,3]","484.5229564220602","133.2399766083279","519.4369127393028"
"","canvas-keyboard-response","72","128605","0.0-6.0-3.9","536","","","","","rectangles with change","null","null","","","critical","t","d","c","164","240","154.6796","220.0396","240","164","spektor","0.14","h","164","240","240","164","154.6796","220.0396","39360","39360","34035.6388","tc","null","null","null","null","null","null","[1,3]","484.5229564220602","133.2399766083279","519.4369127393028"
"","canvas-keyboard-response","73","128623","0.0-6.0-4.9","536","","","","","clear_screen","null","null","","","critical","t","d","c","164","240","154.6796","220.0396","240","164","spektor","0.14","h","164","240","240","164","154.6796","220.0396","39360","39360","34035.6388","tc","null","null","null","null","null","null","[1,3]","484.5229564220602","133.2399766083279","519.4369127393028"
"","canvas-keyboard-response","74","129887","0.0-6.0-5.9","536","","","","","make choice","1259","3","","","critical","t","d","c","164","240","154.6796","220.0396","240","164","spektor","0.14","h","164","240","240","164","154.6796","220.0396","39360","39360","34035.6388","tc","null","null","null","null","null","null","[1,3]","","",""
"","canvas-keyboard-response","75","129905","0.0-6.0-6.9","536","","","","","clear_screen","null","null","","","critical","t","d","c","164","240","154.6796","220.0396","240","164","spektor","0.14","h","164","240","240","164","154.6796","220.0396","39360","39360","34035.6388","tc","null","null","null","null","null","null","[1,3]","","",""
"","canvas-keyboard-response","76","130106","0.0-6.0-0.10","536","","","","","pre trial waiting period","null","null","","","critical","c","t","d","164","240","240","164","240","164","trueblood","0","w","240","164","164","240","240","164","39360","39360","39360","tc","null","null","null","null","null","null","[2,1]","430.4188136552133","475.84492344418027","507.1495644454273"
"","canvas-keyboard-response","77","130129","0.0-6.0-1.10","536","","","","","clear_screen","null","null","","","critical","c","t","d","164","240","240","164","240","164","trueblood","0","w","240","164","164","240","240","164","39360","39360","39360","tc","null","null","null","null","null","null","[2,1]","430.4188136552133","475.84492344418027","507.1495644454273"
"","canvas-keyboard-response","78","130638","0.0-6.0-2.10","536","","","","","rectangles no change","null","null","","","critical","c","t","d","164","240","240","164","240","164","trueblood","0","w","240","164","164","240","240","164","39360","39360","39360","tc","null","null","null","null","null","null","[2,1]","430.4188136552133","475.84492344418027","507.1495644454273"
"","canvas-keyboard-response","79","131973","0.0-6.0-3.10","536","","","","","rectangles with change","null","null","","","critical","c","t","d","164","240","240","164","240","164","trueblood","0","w","240","164","164","240","240","164","39360","39360","39360","tc","null","null","null","null","null","null","[2,1]","430.4188136552133","475.84492344418027","507.1495644454273"
"","canvas-keyboard-response","80","131992","0.0-6.0-4.10","536","","","","","clear_screen","null","null","","","critical","c","t","d","164","240","240","164","240","164","trueblood","0","w","240","164","164","240","240","164","39360","39360","39360","tc","null","null","null","null","null","null","[2,1]","430.4188136552133","475.84492344418027","507.1495644454273"
"","canvas-keyboard-response","81","132551","0.0-6.0-5.10","536","","","","","make choice","555","2","","","critical","c","t","d","164","240","240","164","240","164","trueblood","0","w","240","164","164","240","240","164","39360","39360","39360","tc","null","null","null","null","null","null","[2,1]","","",""
"","canvas-keyboard-response","82","132569","0.0-6.0-6.10","536","","","","","clear_screen","null","null","","","critical","c","t","d","164","240","240","164","240","164","trueblood","0","w","240","164","164","240","240","164","39360","39360","39360","tc","null","null","null","null","null","null","[2,1]","","",""
"","canvas-keyboard-response","83","132770","0.0-6.0-0.11","536","","","","","pre trial waiting period","null","null","","","catch","sw","sh","l","180","200","163","164","219","245","trueblood","null","null","null","null","null","null","null","null","null","null","null","","180","200","260","200","36000","52000","[2,3]","452.66665598204963","509.8352328448598","428.76220760892835"
"","canvas-keyboard-response","84","132793","0.0-6.0-1.11","536","","","","","clear_screen","null","null","","","catch","sw","sh","l","180","200","163","164","219","245","trueblood","null","null","null","null","null","null","null","null","null","null","null","","180","200","260","200","36000","52000","[2,3]","452.66665598204963","509.8352328448598","428.76220760892835"
"","canvas-keyboard-response","85","133297","0.0-6.0-2.11","536","","","","","rectangles no change","null","null","","","catch","sw","sh","l","180","200","163","164","219","245","trueblood","null","null","null","null","null","null","null","null","null","null","null","","180","200","260","200","36000","52000","[2,3]","452.66665598204963","509.8352328448598","428.76220760892835"
"","canvas-keyboard-response","86","134636","0.0-6.0-3.11","536","","","","","rectangles with change","null","null","","","catch","sw","sh","l","180","200","163","164","219","245","trueblood","null","null","null","null","null","null","null","null","null","null","null","","180","200","260","200","36000","52000","[2,3]","452.66665598204963","509.8352328448598","428.76220760892835"
"","canvas-keyboard-response","87","134657","0.0-6.0-4.11","536","","","","","clear_screen","null","null","","","catch","sw","sh","l","180","200","163","164","219","245","trueblood","null","null","null","null","null","null","null","null","null","null","null","","180","200","260","200","36000","52000","[2,3]","452.66665598204963","509.8352328448598","428.76220760892835"
"","canvas-keyboard-response","88","135318","0.0-6.0-5.11","536","","","","","make choice","657","3","","","catch","sw","sh","l","180","200","163","164","219","245","trueblood","null","null","null","null","null","null","null","null","null","null","null","","180","200","260","200","36000","52000","[2,3]","","",""
"","canvas-keyboard-response","89","135336","0.0-6.0-6.11","536","","","","","clear_screen","null","null","","","catch","sw","sh","l","180","200","163","164","219","245","trueblood","null","null","null","null","null","null","null","null","null","null","null","","180","200","260","200","36000","52000","[2,3]","","",""
"","canvas-keyboard-response","90","135538","0.0-6.0-0.12","536","","","","","pre trial waiting period","null","null","","","critical","c","d","t","164","240","227.1683","158.0083","240","164","trueblood","0.09","w","240","164","164","240","227.1683","158.0083","39360","39360","35894.4834","dc","null","null","null","null","null","null","[2,1]","465.07927616452713","513.4735719094873","517.4411307335907"
"","canvas-keyboard-response","91","135558","0.0-6.0-1.12","536","","","","","clear_screen","null","null","","","critical","c","d","t","164","240","227.1683","158.0083","240","164","trueblood","0.09","w","240","164","164","240","227.1683","158.0083","39360","39360","35894.4834","dc","null","null","null","null","null","null","[2,1]","465.07927616452713","513.4735719094873","517.4411307335907"
"","canvas-keyboard-response","92","136065","0.0-6.0-2.12","536","","","","","rectangles no change","null","null","","","critical","c","d","t","164","240","227.1683","158.0083","240","164","trueblood","0.09","w","240","164","164","240","227.1683","158.0083","39360","39360","35894.4834","dc","null","null","null","null","null","null","[2,1]","465.07927616452713","513.4735719094873","517.4411307335907"
"","canvas-keyboard-response","93","137402","0.0-6.0-3.12","536","","","","","rectangles with change","null","null","","","critical","c","d","t","164","240","227.1683","158.0083","240","164","trueblood","0.09","w","240","164","164","240","227.1683","158.0083","39360","39360","35894.4834","dc","null","null","null","null","null","null","[2,1]","465.07927616452713","513.4735719094873","517.4411307335907"
"","canvas-keyboard-response","94","137419","0.0-6.0-4.12","536","","","","","clear_screen","null","null","","","critical","c","d","t","164","240","227.1683","158.0083","240","164","trueblood","0.09","w","240","164","164","240","227.1683","158.0083","39360","39360","35894.4834","dc","null","null","null","null","null","null","[2,1]","465.07927616452713","513.4735719094873","517.4411307335907"
"","canvas-keyboard-response","95","138983","0.0-6.0-5.12","536","","","","","make choice","1557","1","","","critical","c","d","t","164","240","227.1683","158.0083","240","164","trueblood","0.09","w","240","164","164","240","227.1683","158.0083","39360","39360","35894.4834","dc","null","null","null","null","null","null","[2,1]","","",""
"","canvas-keyboard-response","96","139004","0.0-6.0-6.12","536","","","","","clear_screen","null","null","","","critical","c","d","t","164","240","227.1683","158.0083","240","164","trueblood","0.09","w","240","164","164","240","227.1683","158.0083","39360","39360","35894.4834","dc","null","null","null","null","null","null","[2,1]","","",""
"","canvas-keyboard-response","97","139206","0.0-6.0-0.13","536","","","","","pre trial waiting period","null","null","","","critical","t","c","d","164","240","240","164","164","240","spektor","0","h","164","240","240","164","164","240","39360","39360","39360","dc","null","null","null","null","null","null","[3,2]","479.3659442335687","159.01293717487982","478.9119006901596"
"","canvas-keyboard-response","98","139224","0.0-6.0-1.13","536","","","","","clear_screen","null","null","","","critical","t","c","d","164","240","240","164","164","240","spektor","0","h","164","240","240","164","164","240","39360","39360","39360","dc","null","null","null","null","null","null","[3,2]","479.3659442335687","159.01293717487982","478.9119006901596"
"","canvas-keyboard-response","99","139730","0.0-6.0-2.13","536","","","","","rectangles no change","null","null","","","critical","t","c","d","164","240","240","164","164","240","spektor","0","h","164","240","240","164","164","240","39360","39360","39360","dc","null","null","null","null","null","null","[3,2]","479.3659442335687","159.01293717487982","478.9119006901596"
"","canvas-keyboard-response","100","141066","0.0-6.0-3.13","536","","","","","rectangles with change","null","null","","","critical","t","c","d","164","240","240","164","164","240","spektor","0","h","164","240","240","164","164","240","39360","39360","39360","dc","null","null","null","null","null","null","[3,2]","479.3659442335687","159.01293717487982","478.9119006901596"
"","canvas-keyboard-response","101","141086","0.0-6.0-4.13","536","","","","","clear_screen","null","null","","","critical","t","c","d","164","240","240","164","164","240","spektor","0","h","164","240","240","164","164","240","39360","39360","39360","dc","null","null","null","null","null","null","[3,2]","479.3659442335687","159.01293717487982","478.9119006901596"
"","canvas-keyboard-response","102","142279","0.0-6.0-5.13","536","","","","","make choice","1189","2","","","critical","t","c","d","164","240","240","164","164","240","spektor","0","h","164","240","240","164","164","240","39360","39360","39360","dc","null","null","null","null","null","null","[3,2]","","",""
"","canvas-keyboard-response","103","142298","0.0-6.0-6.13","536","","","","","clear_screen","null","null","","","critical","t","c","d","164","240","240","164","164","240","spektor","0","h","164","240","240","164","164","240","39360","39360","39360","dc","null","null","null","null","null","null","[3,2]","","",""
"","canvas-keyboard-response","104","142499","0.0-6.0-0.14","536","","","","","pre trial waiting period","null","null","","","catch","l","sh","sw","241","200","223","159","155","202","spektor","null","null","null","null","null","null","null","null","null","null","null","","180","200","260","200","36000","52000","[1,3]","514.6038650886319","199.39287793508385","488.52548811319383"
"","canvas-keyboard-response","105","142524","0.0-6.0-1.14","536","","","","","clear_screen","null","null","","","catch","l","sh","sw","241","200","223","159","155","202","spektor","null","null","null","null","null","null","null","null","null","null","null","","180","200","260","200","36000","52000","[1,3]","514.6038650886319","199.39287793508385","488.52548811319383"
"","canvas-keyboard-response","106","143029","0.0-6.0-2.14","536","","","","","rectangles no change","null","null","","","catch","l","sh","sw","241","200","223","159","155","202","spektor","null","null","null","null","null","null","null","null","null","null","null","","180","200","260","200","36000","52000","[1,3]","514.6038650886319","199.39287793508385","488.52548811319383"
"","canvas-keyboard-response","107","144359","0.0-6.0-3.14","536","","","","","rectangles with change","null","null","","","catch","l","sh","sw","241","200","223","159","155","202","spektor","null","null","null","null","null","null","null","null","null","null","null","","180","200","260","200","36000","52000","[1,3]","514.6038650886319","199.39287793508385","488.52548811319383"
"","canvas-keyboard-response","108","144377","0.0-6.0-4.14","536","","","","","clear_screen","null","null","","","catch","l","sh","sw","241","200","223","159","155","202","spektor","null","null","null","null","null","null","null","null","null","null","null","","180","200","260","200","36000","52000","[1,3]","514.6038650886319","199.39287793508385","488.52548811319383"
"","canvas-keyboard-response","109","144967","0.0-6.0-5.14","536","","","","","make choice","587","1","","","catch","l","sh","sw","241","200","223","159","155","202","spektor","null","null","null","null","null","null","null","null","null","null","null","","180","200","260","200","36000","52000","[1,3]","","",""
"","canvas-keyboard-response","110","144984","0.0-6.0-6.14","536","","","","","clear_screen","null","null","","","catch","l","sh","sw","241","200","223","159","155","202","spektor","null","null","null","null","null","null","null","null","null","null","null","","180","200","260","200","36000","52000","[1,3]","","",""
"","canvas-keyboard-response","111","145186","0.0-6.0-0.15","536","","","","","pre trial waiting period","null","null","","","critical","d","t","c","220.0396","154.6796","240","164","164","240","trueblood","0.14","w","240","164","164","240","220.0396","154.6796","39360","39360","34035.6388","td","null","null","null","null","null","null","[2,1]","503.0606755882833","478.3214118367171","455.6772794744401"
"","canvas-keyboard-response","112","145205","0.0-6.0-1.15","536","","","","","clear_screen","null","null","","","critical","d","t","c","220.0396","154.6796","240","164","164","240","trueblood","0.14","w","240","164","164","240","220.0396","154.6796","39360","39360","34035.6388","td","null","null","null","null","null","null","[2,1]","503.0606755882833","478.3214118367171","455.6772794744401"
"","canvas-keyboard-response","113","145711","0.0-6.0-2.15","536","","","","","rectangles no change","null","null","","","critical","d","t","c","220.0396","154.6796","240","164","164","240","trueblood","0.14","w","240","164","164","240","220.0396","154.6796","39360","39360","34035.6388","td","null","null","null","null","null","null","[2,1]","503.0606755882833","478.3214118367171","455.6772794744401"
"","canvas-keyboard-response","114","147047","0.0-6.0-3.15","536","","","","","rectangles with change","null","null","","","critical","d","t","c","220.0396","154.6796","240","164","164","240","trueblood","0.14","w","240","164","164","240","220.0396","154.6796","39360","39360","34035.6388","td","null","null","null","null","null","null","[2,1]","503.0606755882833","478.3214118367171","455.6772794744401"
"","canvas-keyboard-response","115","147063","0.0-6.0-4.15","536","","","","","clear_screen","null","null","","","critical","d","t","c","220.0396","154.6796","240","164","164","240","trueblood","0.14","w","240","164","164","240","220.0396","154.6796","39360","39360","34035.6388","td","null","null","null","null","null","null","[2,1]","503.0606755882833","478.3214118367171","455.6772794744401"
"","canvas-keyboard-response","116","148478","0.0-6.0-5.15","536","","","","","make choice","1408","2","","","critical","d","t","c","220.0396","154.6796","240","164","164","240","trueblood","0.14","w","240","164","164","240","220.0396","154.6796","39360","39360","34035.6388","td","null","null","null","null","null","null","[2,1]","","",""
"","canvas-keyboard-response","117","148496","0.0-6.0-6.15","536","","","","","clear_screen","null","null","","","critical","d","t","c","220.0396","154.6796","240","164","164","240","trueblood","0.14","w","240","164","164","240","220.0396","154.6796","39360","39360","34035.6388","td","null","null","null","null","null","null","[2,1]","","",""
"","canvas-keyboard-response","118","148697","0.0-6.0-0.16","536","","","","","pre trial waiting period","null","null","","","critical","c","d","t","164","240","227.1683","158.0083","240","164","spektor","0.09","w","240","164","164","240","227.1683","158.0083","39360","39360","35894.4834","dc","null","null","null","null","null","null","[2,1]","499.38112433807544","180.75950305608364","532.0125638999638"
"","canvas-keyboard-response","119","148716","0.0-6.0-1.16","536","","","","","clear_screen","null","null","","","critical","c","d","t","164","240","227.1683","158.0083","240","164","spektor","0.09","w","240","164","164","240","227.1683","158.0083","39360","39360","35894.4834","dc","null","null","null","null","null","null","[2,1]","499.38112433807544","180.75950305608364","532.0125638999638"
"","canvas-keyboard-response","120","149225","0.0-6.0-2.16","536","","","","","rectangles no change","null","null","","","critical","c","d","t","164","240","227.1683","158.0083","240","164","spektor","0.09","w","240","164","164","240","227.1683","158.0083","39360","39360","35894.4834","dc","null","null","null","null","null","null","[2,1]","499.38112433807544","180.75950305608364","532.0125638999638"
"","canvas-keyboard-response","121","150555","0.0-6.0-3.16","536","","","","","rectangles with change","null","null","","","critical","c","d","t","164","240","227.1683","158.0083","240","164","spektor","0.09","w","240","164","164","240","227.1683","158.0083","39360","39360","35894.4834","dc","null","null","null","null","null","null","[2,1]","499.38112433807544","180.75950305608364","532.0125638999638"
"","canvas-keyboard-response","122","150574","0.0-6.0-4.16","536","","","","","clear_screen","null","null","","","critical","c","d","t","164","240","227.1683","158.0083","240","164","spektor","0.09","w","240","164","164","240","227.1683","158.0083","39360","39360","35894.4834","dc","null","null","null","null","null","null","[2,1]","499.38112433807544","180.75950305608364","532.0125638999638"
"","canvas-keyboard-response","123","151543","0.0-6.0-5.16","536","","","","","make choice","962","2","","","critical","c","d","t","164","240","227.1683","158.0083","240","164","spektor","0.09","w","240","164","164","240","227.1683","158.0083","39360","39360","35894.4834","dc","null","null","null","null","null","null","[2,1]","","",""
"","canvas-keyboard-response","124","151563","0.0-6.0-6.16","536","","","","","clear_screen","null","null","","","critical","c","d","t","164","240","227.1683","158.0083","240","164","spektor","0.09","w","240","164","164","240","227.1683","158.0083","39360","39360","35894.4834","dc","null","null","null","null","null","null","[2,1]","","",""
"","canvas-keyboard-response","125","151764","0.0-6.0-0.17","536","","","","","pre trial waiting period","null","null","","","catch","sh","sw","l","164","151","209","197","243","231","spektor","null","null","null","null","null","null","null","null","null","null","null","","180","200","260","200","36000","52000","[1,3]","525.4203070929364","179.04126611729933","473.93123135519477"
"","canvas-keyboard-response","126","151783","0.0-6.0-1.17","536","","","","","clear_screen","null","null","","","catch","sh","sw","l","164","151","209","197","243","231","spektor","null","null","null","null","null","null","null","null","null","null","null","","180","200","260","200","36000","52000","[1,3]","525.4203070929364","179.04126611729933","473.93123135519477"
"","canvas-keyboard-response","127","152292","0.0-6.0-2.17","536","","","","","rectangles no change","null","null","","","catch","sh","sw","l","164","151","209","197","243","231","spektor","null","null","null","null","null","null","null","null","null","null","null","","180","200","260","200","36000","52000","[1,3]","525.4203070929364","179.04126611729933","473.93123135519477"
"","canvas-keyboard-response","128","153630","0.0-6.0-3.17","536","","","","","rectangles with change","null","null","","","catch","sh","sw","l","164","151","209","197","243","231","spektor","null","null","null","null","null","null","null","null","null","null","null","","180","200","260","200","36000","52000","[1,3]","525.4203070929364","179.04126611729933","473.93123135519477"
"","canvas-keyboard-response","129","153650","0.0-6.0-4.17","536","","","","","clear_screen","null","null","","","catch","sh","sw","l","164","151","209","197","243","231","spektor","null","null","null","null","null","null","null","null","null","null","null","","180","200","260","200","36000","52000","[1,3]","525.4203070929364","179.04126611729933","473.93123135519477"
"","canvas-keyboard-response","130","154271","0.0-6.0-5.17","536","","","","","make choice","619","3","","","catch","sh","sw","l","164","151","209","197","243","231","spektor","null","null","null","null","null","null","null","null","null","null","null","","180","200","260","200","36000","52000","[1,3]","","",""
"","canvas-keyboard-response","131","154291","0.0-6.0-6.17","536","","","","","clear_screen","null","null","","","catch","sh","sw","l","164","151","209","197","243","231","spektor","null","null","null","null","null","null","null","null","null","null","null","","180","200","260","200","36000","52000","[1,3]","","",""
"","canvas-keyboard-response","132","154492","0.0-6.0-0.18","536","","","","","pre trial waiting period","null","null","","","catch","l","sh","sw","258","166","208","165","148","213","spektor","null","null","null","null","null","null","null","null","null","null","null","","180","200","260","200","36000","52000","[1,3]","515.6845022751872","181.03908969969189","502.0741609486665"
"","canvas-keyboard-response","133","154510","0.0-6.0-1.18","536","","","","","clear_screen","null","null","","","catch","l","sh","sw","258","166","208","165","148","213","spektor","null","null","null","null","null","null","null","null","null","null","null","","180","200","260","200","36000","52000","[1,3]","515.6845022751872","181.03908969969189","502.0741609486665"
"","canvas-keyboard-response","134","155018","0.0-6.0-2.18","536","","","","","rectangles no change","null","null","","","catch","l","sh","sw","258","166","208","165","148","213","spektor","null","null","null","null","null","null","null","null","null","null","null","","180","200","260","200","36000","52000","[1,3]","515.6845022751872","181.03908969969189","502.0741609486665"
"","canvas-keyboard-response","135","156353","0.0-6.0-3.18","536","","","","","rectangles with change","null","null","","","catch","l","sh","sw","258","166","208","165","148","213","spektor","null","null","null","null","null","null","null","null","null","null","null","","180","200","260","200","36000","52000","[1,3]","515.6845022751872","181.03908969969189","502.0741609486665"
"","canvas-keyboard-response","136","156375","0.0-6.0-4.18","536","","","","","clear_screen","null","null","","","catch","l","sh","sw","258","166","208","165","148","213","spektor","null","null","null","null","null","null","null","null","null","null","null","","180","200","260","200","36000","52000","[1,3]","515.6845022751872","181.03908969969189","502.0741609486665"
"","canvas-keyboard-response","137","157055","0.0-6.0-5.18","536","","","","","make choice","676","1","","","catch","l","sh","sw","258","166","208","165","148","213","spektor","null","null","null","null","null","null","null","null","null","null","null","","180","200","260","200","36000","52000","[1,3]","","",""
"","canvas-keyboard-response","138","157074","0.0-6.0-6.18","536","","","","","clear_screen","null","null","","","catch","l","sh","sw","258","166","208","165","148","213","spektor","null","null","null","null","null","null","null","null","null","null","null","","180","200","260","200","36000","52000","[1,3]","","",""
"","canvas-keyboard-response","139","157275","0.0-6.0-0.19","536","","","","","pre trial waiting period","null","null","","","critical","t","c","d","240","164","164","240","227.1683","158.0083","spektor","0.09","w","240","164","164","240","227.1683","158.0083","39360","39360","35894.4834","td","null","null","null","null","null","null","[1,3]","500.66436201145024","158.68076304287487","514.7470302543235"
"","canvas-keyboard-response","140","157297","0.0-6.0-1.19","536","","","","","clear_screen","null","null","","","critical","t","c","d","240","164","164","240","227.1683","158.0083","spektor","0.09","w","240","164","164","240","227.1683","158.0083","39360","39360","35894.4834","td","null","null","null","null","null","null","[1,3]","500.66436201145024","158.68076304287487","514.7470302543235"
"","canvas-keyboard-response","141","157807","0.0-6.0-2.19","536","","","","","rectangles no change","null","null","","","critical","t","c","d","240","164","164","240","227.1683","158.0083","spektor","0.09","w","240","164","164","240","227.1683","158.0083","39360","39360","35894.4834","td","null","null","null","null","null","null","[1,3]","500.66436201145024","158.68076304287487","514.7470302543235"
"","canvas-keyboard-response","142","159146","0.0-6.0-3.19","536","","","","","rectangles with change","null","null","","","critical","t","c","d","240","164","164","240","227.1683","158.0083","spektor","0.09","w","240","164","164","240","227.1683","158.0083","39360","39360","35894.4834","td","null","null","null","null","null","null","[1,3]","500.66436201145024","158.68076304287487","514.7470302543235"
"","canvas-keyboard-response","143","159161","0.0-6.0-4.19","536","","","","","clear_screen","null","null","","","critical","t","c","d","240","164","164","240","227.1683","158.0083","spektor","0.09","w","240","164","164","240","227.1683","158.0083","39360","39360","35894.4834","td","null","null","null","null","null","null","[1,3]","500.66436201145024","158.68076304287487","514.7470302543235"
"","canvas-keyboard-response","144","160080","0.0-6.0-5.19","536","","","","","make choice","912","3","","","critical","t","c","d","240","164","164","240","227.1683","158.0083","spektor","0.09","w","240","164","164","240","227.1683","158.0083","39360","39360","35894.4834","td","null","null","null","null","null","null","[1,3]","","",""
"","canvas-keyboard-response","145","160101","0.0-6.0-6.19","536","","","","","clear_screen","null","null","","","critical","t","c","d","240","164","164","240","227.1683","158.0083","spektor","0.09","w","240","164","164","240","227.1683","158.0083","39360","39360","35894.4834","td","null","null","null","null","null","null","[1,3]","","",""
"","canvas-keyboard-response","146","160302","0.0-6.0-0.20","536","","","","","pre trial waiting period","null","null","","","critical","d","c","t","154.6796","220.0396","240","164","164","240","trueblood","0.14","h","164","240","240","164","154.6796","220.0396","39360","39360","34035.6388","td","null","null","null","null","null","null","[3,1]","432.6291648331337","515.6137730694618","459.83596308286224"
"","canvas-keyboard-response","147","160326","0.0-6.0-1.20","536","","","","","clear_screen","null","null","","","critical","d","c","t","154.6796","220.0396","240","164","164","240","trueblood","0.14","h","164","240","240","164","154.6796","220.0396","39360","39360","34035.6388","td","null","null","null","null","null","null","[3,1]","432.6291648331337","515.6137730694618","459.83596308286224"
"","canvas-keyboard-response","148","160831","0.0-6.0-2.20","536","","","","","rectangles no change","null","null","","","critical","d","c","t","154.6796","220.0396","240","164","164","240","trueblood","0.14","h","164","240","240","164","154.6796","220.0396","39360","39360","34035.6388","td","null","null","null","null","null","null","[3,1]","432.6291648331337","515.6137730694618","459.83596308286224"
"","canvas-keyboard-response","149","162167","0.0-6.0-3.20","536","","","","","rectangles with change","null","null","","","critical","d","c","t","154.6796","220.0396","240","164","164","240","trueblood","0.14","h","164","240","240","164","154.6796","220.0396","39360","39360","34035.6388","td","null","null","null","null","null","null","[3,1]","432.6291648331337","515.6137730694618","459.83596308286224"
"","canvas-keyboard-response","150","162185","0.0-6.0-4.20","536","","","","","clear_screen","null","null","","","critical","d","c","t","154.6796","220.0396","240","164","164","240","trueblood","0.14","h","164","240","240","164","154.6796","220.0396","39360","39360","34035.6388","td","null","null","null","null","null","null","[3,1]","432.6291648331337","515.6137730694618","459.83596308286224"
"","canvas-keyboard-response","151","163703","0.0-6.0-5.20","536","","","","","make choice","1513","1","","","critical","d","c","t","154.6796","220.0396","240","164","164","240","trueblood","0.14","h","164","240","240","164","154.6796","220.0396","39360","39360","34035.6388","td","null","null","null","null","null","null","[3,1]","","",""
"","canvas-keyboard-response","152","163721","0.0-6.0-6.20","536","","","","","clear_screen","null","null","","","critical","d","c","t","154.6796","220.0396","240","164","164","240","trueblood","0.14","h","164","240","240","164","154.6796","220.0396","39360","39360","34035.6388","td","null","null","null","null","null","null","[3,1]","","",""
"","canvas-keyboard-response","153","163923","0.0-6.0-0.21","536","","","","","pre trial waiting period","null","null","","","critical","t","d","c","164","240","154.6796","220.0396","240","164","spektor","0.14","h","164","240","240","164","154.6796","220.0396","39360","39360","34035.6388","td","null","null","null","null","null","null","[1,2]","491.77570173418127","148.36040651392753","530.5744989339727"
"","canvas-keyboard-response","154","163943","0.0-6.0-1.21","536","","","","","clear_screen","null","null","","","critical","t","d","c","164","240","154.6796","220.0396","240","164","spektor","0.14","h","164","240","240","164","154.6796","220.0396","39360","39360","34035.6388","td","null","null","null","null","null","null","[1,2]","491.77570173418127","148.36040651392753","530.5744989339727"
"","canvas-keyboard-response","155","164452","0.0-6.0-2.21","536","","","","","rectangles no change","null","null","","","critical","t","d","c","164","240","154.6796","220.0396","240","164","spektor","0.14","h","164","240","240","164","154.6796","220.0396","39360","39360","34035.6388","td","null","null","null","null","null","null","[1,2]","491.77570173418127","148.36040651392753","530.5744989339727"
"","canvas-keyboard-response","156","165790","0.0-6.0-3.21","536","","","","","rectangles with change","null","null","","","critical","t","d","c","164","240","154.6796","220.0396","240","164","spektor","0.14","h","164","240","240","164","154.6796","220.0396","39360","39360","34035.6388","td","null","null","null","null","null","null","[1,2]","491.77570173418127","148.36040651392753","530.5744989339727"
"","canvas-keyboard-response","157","165810","0.0-6.0-4.21","536","","","","","clear_screen","null","null","","","critical","t","d","c","164","240","154.6796","220.0396","240","164","spektor","0.14","h","164","240","240","164","154.6796","220.0396","39360","39360","34035.6388","td","null","null","null","null","null","null","[1,2]","491.77570173418127","148.36040651392753","530.5744989339727"
"","canvas-keyboard-response","158","166719","0.0-6.0-5.21","536","","","","","make choice","904","1","","","critical","t","d","c","164","240","154.6796","220.0396","240","164","spektor","0.14","h","164","240","240","164","154.6796","220.0396","39360","39360","34035.6388","td","null","null","null","null","null","null","[1,2]","","",""
"","canvas-keyboard-response","159","166741","0.0-6.0-6.21","536","","","","","clear_screen","null","null","","","critical","t","d","c","164","240","154.6796","220.0396","240","164","spektor","0.14","h","164","240","240","164","154.6796","220.0396","39360","39360","34035.6388","td","null","null","null","null","null","null","[1,2]","","",""
"","canvas-keyboard-response","160","166942","0.0-6.0-0.22","536","","","","","pre trial waiting period","null","null","","","catch","sh","sw","l","190","154","189","225","218","246","trueblood","null","null","null","null","null","null","null","null","null","null","null","","180","200","260","200","36000","52000","[1,3]","503.9062011634642","433.5534137415595","455.94717837731133"
"","canvas-keyboard-response","161","166961","0.0-6.0-1.22","536","","","","","clear_screen","null","null","","","catch","sh","sw","l","190","154","189","225","218","246","trueblood","null","null","null","null","null","null","null","null","null","null","null","","180","200","260","200","36000","52000","[1,3]","503.9062011634642","433.5534137415595","455.94717837731133"
"","canvas-keyboard-response","162","167468","0.0-6.0-2.22","536","","","","","rectangles no change","null","null","","","catch","sh","sw","l","190","154","189","225","218","246","trueblood","null","null","null","null","null","null","null","null","null","null","null","","180","200","260","200","36000","52000","[1,3]","503.9062011634642","433.5534137415595","455.94717837731133"
"","canvas-keyboard-response","163","168806","0.0-6.0-3.22","536","","","","","rectangles with change","null","null","","","catch","sh","sw","l","190","154","189","225","218","246","trueblood","null","null","null","null","null","null","null","null","null","null","null","","180","200","260","200","36000","52000","[1,3]","503.9062011634642","433.5534137415595","455.94717837731133"
"","canvas-keyboard-response","164","168826","0.0-6.0-4.22","536","","","","","clear_screen","null","null","","","catch","sh","sw","l","190","154","189","225","218","246","trueblood","null","null","null","null","null","null","null","null","null","null","null","","180","200","260","200","36000","52000","[1,3]","503.9062011634642","433.5534137415595","455.94717837731133"
"","canvas-keyboard-response","165","169687","0.0-6.0-5.22","536","","","","","make choice","854","3","","","catch","sh","sw","l","190","154","189","225","218","246","trueblood","null","null","null","null","null","null","null","null","null","null","null","","180","200","260","200","36000","52000","[1,3]","","",""
"","canvas-keyboard-response","166","169706","0.0-6.0-6.22","536","","","","","clear_screen","null","null","","","catch","sh","sw","l","190","154","189","225","218","246","trueblood","null","null","null","null","null","null","null","null","null","null","null","","180","200","260","200","36000","52000","[1,3]","","",""
"","canvas-keyboard-response","167","169907","0.0-6.0-0.23","536","","","","","pre trial waiting period","null","null","","","critical","c","d","t","240","164","158.0083","227.1683","164","240","trueblood","0.09","h","164","240","240","164","158.0083","227.1683","39360","39360","35894.4834","dc","null","null","null","null","null","null","[2,1]","488.88042302746754","432.1753331980472","445.3563447344398"
"","canvas-keyboard-response","168","169926","0.0-6.0-1.23","536","","","","","clear_screen","null","null","","","critical","c","d","t","240","164","158.0083","227.1683","164","240","trueblood","0.09","h","164","240","240","164","158.0083","227.1683","39360","39360","35894.4834","dc","null","null","null","null","null","null","[2,1]","488.88042302746754","432.1753331980472","445.3563447344398"
"","canvas-keyboard-response","169","170439","0.0-6.0-2.23","536","","","","","rectangles no change","null","null","","","critical","c","d","t","240","164","158.0083","227.1683","164","240","trueblood","0.09","h","164","240","240","164","158.0083","227.1683","39360","39360","35894.4834","dc","null","null","null","null","null","null","[2,1]","488.88042302746754","432.1753331980472","445.3563447344398"
"","canvas-keyboard-response","170","171777","0.0-6.0-3.23","536","","","","","rectangles with change","null","null","","","critical","c","d","t","240","164","158.0083","227.1683","164","240","trueblood","0.09","h","164","240","240","164","158.0083","227.1683","39360","39360","35894.4834","dc","null","null","null","null","null","null","[2,1]","488.88042302746754","432.1753331980472","445.3563447344398"
"","canvas-keyboard-response","171","171799","0.0-6.0-4.23","536","","","","","clear_screen","null","null","","","critical","c","d","t","240","164","158.0083","227.1683","164","240","trueblood","0.09","h","164","240","240","164","158.0083","227.1683","39360","39360","35894.4834","dc","null","null","null","null","null","null","[2,1]","488.88042302746754","432.1753331980472","445.3563447344398"
"","canvas-keyboard-response","172","172623","0.0-6.0-5.23","536","","","","","make choice","821","2","","","critical","c","d","t","240","164","158.0083","227.1683","164","240","trueblood","0.09","h","164","240","240","164","158.0083","227.1683","39360","39360","35894.4834","dc","null","null","null","null","null","null","[2,1]","","",""
"","canvas-keyboard-response","173","172641","0.0-6.0-6.23","536","","","","","clear_screen","null","null","","","critical","c","d","t","240","164","158.0083","227.1683","164","240","trueblood","0.09","h","164","240","240","164","158.0083","227.1683","39360","39360","35894.4834","dc","null","null","null","null","null","null","[2,1]","","",""
"","canvas-keyboard-response","174","172842","0.0-6.0-0.24","536","","","","","pre trial waiting period","null","null","","","catch","sw","sh","l","180","200","162","161","212","262","spektor","null","null","null","null","null","null","null","null","null","null","null","","180","200","260","200","36000","52000","[1,3]","522.0405190091045","197.2168422065827","452.08846182658283"
"","canvas-keyboard-response","175","172862","0.0-6.0-1.24","536","","","","","clear_screen","null","null","","","catch","sw","sh","l","180","200","162","161","212","262","spektor","null","null","null","null","null","null","null","null","null","null","null","","180","200","260","200","36000","52000","[1,3]","522.0405190091045","197.2168422065827","452.08846182658283"
"","canvas-keyboard-response","176","173370","0.0-6.0-2.24","536","","","","","rectangles no change","null","null","","","catch","sw","sh","l","180","200","162","161","212","262","spektor","null","null","null","null","null","null","null","null","null","null","null","","180","200","260","200","36000","52000","[1,3]","522.0405190091045","197.2168422065827","452.08846182658283"
"","canvas-keyboard-response","177","174706","0.0-6.0-3.24","536","","","","","rectangles with change","null","null","","","catch","sw","sh","l","180","200","162","161","212","262","spektor","null","null","null","null","null","null","null","null","null","null","null","","180","200","260","200","36000","52000","[1,3]","522.0405190091045","197.2168422065827","452.08846182658283"
"","canvas-keyboard-response","178","174726","0.0-6.0-4.24","536","","","","","clear_screen","null","null","","","catch","sw","sh","l","180","200","162","161","212","262","spektor","null","null","null","null","null","null","null","null","null","null","null","","180","200","260","200","36000","52000","[1,3]","522.0405190091045","197.2168422065827","452.08846182658283"
"","canvas-keyboard-response","179","175366","0.0-6.0-5.24","536","","","","","make choice","633","3","","","catch","sw","sh","l","180","200","162","161","212","262","spektor","null","null","null","null","null","null","null","null","null","null","null","","180","200","260","200","36000","52000","[1,3]","","",""
"","canvas-keyboard-response","180","175388","0.0-6.0-6.24","536","","","","","clear_screen","null","null","","","catch","sw","sh","l","180","200","162","161","212","262","spektor","null","null","null","null","null","null","null","null","null","null","null","","180","200","260","200","36000","52000","[1,3]","","",""
"","canvas-keyboard-response","181","175588","0.0-6.0-0.25","536","","","","","pre trial waiting period","null","null","","","critical","d","c","t","232.8713","160.6713","164","240","240","164","spektor","0.05","w","240","164","164","240","232.8713","160.6713","39360","39360","37415.7294","tc","null","null","null","null","null","null","[3,2]","536.4280229890331","119.98318502744625","528.482392230897"
"","canvas-keyboard-response","182","175610","0.0-6.0-1.25","536","","","","","clear_screen","null","null","","","critical","d","c","t","232.8713","160.6713","164","240","240","164","spektor","0.05","w","240","164","164","240","232.8713","160.6713","39360","39360","37415.7294","tc","null","null","null","null","null","null","[3,2]","536.4280229890331","119.98318502744625","528.482392230897"
"","canvas-keyboard-response","183","176119","0.0-6.0-2.25","536","","","","","rectangles no change","null","null","","","critical","d","c","t","232.8713","160.6713","164","240","240","164","spektor","0.05","w","240","164","164","240","232.8713","160.6713","39360","39360","37415.7294","tc","null","null","null","null","null","null","[3,2]","536.4280229890331","119.98318502744625","528.482392230897"
"","canvas-keyboard-response","184","177456","0.0-6.0-3.25","536","","","","","rectangles with change","null","null","","","critical","d","c","t","232.8713","160.6713","164","240","240","164","spektor","0.05","w","240","164","164","240","232.8713","160.6713","39360","39360","37415.7294","tc","null","null","null","null","null","null","[3,2]","536.4280229890331","119.98318502744625","528.482392230897"
"","canvas-keyboard-response","185","177479","0.0-6.0-4.25","536","","","","","clear_screen","null","null","","","critical","d","c","t","232.8713","160.6713","164","240","240","164","spektor","0.05","w","240","164","164","240","232.8713","160.6713","39360","39360","37415.7294","tc","null","null","null","null","null","null","[3,2]","536.4280229890331","119.98318502744625","528.482392230897"
"","canvas-keyboard-response","186","178247","0.0-6.0-5.25","536","","","","","make choice","762","3","","","critical","d","c","t","232.8713","160.6713","164","240","240","164","spektor","0.05","w","240","164","164","240","232.8713","160.6713","39360","39360","37415.7294","tc","null","null","null","null","null","null","[3,2]","","",""
"","canvas-keyboard-response","187","178266","0.0-6.0-6.25","536","","","","","clear_screen","null","null","","","critical","d","c","t","232.8713","160.6713","164","240","240","164","spektor","0.05","w","240","164","164","240","232.8713","160.6713","39360","39360","37415.7294","tc","null","null","null","null","null","null","[3,2]","","",""
"","canvas-keyboard-response","188","178468","0.0-6.0-0.26","536","","","","","pre trial waiting period","null","null","","","critical","d","c","t","232.8713","160.6713","164","240","240","164","trueblood","0.05","w","240","164","164","240","232.8713","160.6713","39360","39360","37415.7294","dc","null","null","null","null","null","null","[1,2]","490.3388085738741","440.3623043205181","469.3517893955218"
"","canvas-keyboard-response","189","178490","0.0-6.0-1.26","536","","","","","clear_screen","null","null","","","critical","d","c","t","232.8713","160.6713","164","240","240","164","trueblood","0.05","w","240","164","164","240","232.8713","160.6713","39360","39360","37415.7294","dc","null","null","null","null","null","null","[1,2]","490.3388085738741","440.3623043205181","469.3517893955218"
"","canvas-keyboard-response","190","178994","0.0-6.0-2.26","536","","","","","rectangles no change","null","null","","","critical","d","c","t","232.8713","160.6713","164","240","240","164","trueblood","0.05","w","240","164","164","240","232.8713","160.6713","39360","39360","37415.7294","dc","null","null","null","null","null","null","[1,2]","490.3388085738741","440.3623043205181","469.3517893955218"
"","canvas-keyboard-response","191","180329","0.0-6.0-3.26","536","","","","","rectangles with change","null","null","","","critical","d","c","t","232.8713","160.6713","164","240","240","164","trueblood","0.05","w","240","164","164","240","232.8713","160.6713","39360","39360","37415.7294","dc","null","null","null","null","null","null","[1,2]","490.3388085738741","440.3623043205181","469.3517893955218"
"","canvas-keyboard-response","192","180351","0.0-6.0-4.26","536","","","","","clear_screen","null","null","","","critical","d","c","t","232.8713","160.6713","164","240","240","164","trueblood","0.05","w","240","164","164","240","232.8713","160.6713","39360","39360","37415.7294","dc","null","null","null","null","null","null","[1,2]","490.3388085738741","440.3623043205181","469.3517893955218"
"","canvas-keyboard-response","193","181343","0.0-6.0-5.26","536","","","","","make choice","986","2","","","critical","d","c","t","232.8713","160.6713","164","240","240","164","trueblood","0.05","w","240","164","164","240","232.8713","160.6713","39360","39360","37415.7294","dc","null","null","null","null","null","null","[1,2]","","",""
"","canvas-keyboard-response","194","181364","0.0-6.0-6.26","536","","","","","clear_screen","null","null","","","critical","d","c","t","232.8713","160.6713","164","240","240","164","trueblood","0.05","w","240","164","164","240","232.8713","160.6713","39360","39360","37415.7294","dc","null","null","null","null","null","null","[1,2]","","",""
"","canvas-keyboard-response","195","181564","0.0-6.0-0.27","536","","","","","pre trial waiting period","null","null","","","critical","d","t","c","160.6713","232.8713","164","240","240","164","trueblood","0.05","h","164","240","240","164","160.6713","232.8713","39360","39360","37415.7294","dc","null","null","null","null","null","null","[1,3]","429.648073365436","451.2423620113664","499.411221139368"
"","canvas-keyboard-response","196","181585","0.0-6.0-1.27","536","","","","","clear_screen","null","null","","","critical","d","t","c","160.6713","232.8713","164","240","240","164","trueblood","0.05","h","164","240","240","164","160.6713","232.8713","39360","39360","37415.7294","dc","null","null","null","null","null","null","[1,3]","429.648073365436","451.2423620113664","499.411221139368"
"","canvas-keyboard-response","197","182090","0.0-6.0-2.27","536","","","","","rectangles no change","null","null","","","critical","d","t","c","160.6713","232.8713","164","240","240","164","trueblood","0.05","h","164","240","240","164","160.6713","232.8713","39360","39360","37415.7294","dc","null","null","null","null","null","null","[1,3]","429.648073365436","451.2423620113664","499.411221139368"
"","canvas-keyboard-response","198","183426","0.0-6.0-3.27","536","","","","","rectangles with change","null","null","","","critical","d","t","c","160.6713","232.8713","164","240","240","164","trueblood","0.05","h","164","240","240","164","160.6713","232.8713","39360","39360","37415.7294","dc","null","null","null","null","null","null","[1,3]","429.648073365436","451.2423620113664","499.411221139368"
"","canvas-keyboard-response","199","183444","0.0-6.0-4.27","536","","","","","clear_screen","null","null","","","critical","d","t","c","160.6713","232.8713","164","240","240","164","trueblood","0.05","h","164","240","240","164","160.6713","232.8713","39360","39360","37415.7294","dc","null","null","null","null","null","null","[1,3]","429.648073365436","451.2423620113664","499.411221139368"
"","canvas-keyboard-response","200","183999","0.0-6.0-5.27","536","","","","","make choice","548","3","","","critical","d","t","c","160.6713","232.8713","164","240","240","164","trueblood","0.05","h","164","240","240","164","160.6713","232.8713","39360","39360","37415.7294","dc","null","null","null","null","null","null","[1,3]","","",""
"","canvas-keyboard-response","201","184017","0.0-6.0-6.27","536","","","","","clear_screen","null","null","","","critical","d","t","c","160.6713","232.8713","164","240","240","164","trueblood","0.05","h","164","240","240","164","160.6713","232.8713","39360","39360","37415.7294","dc","null","null","null","null","null","null","[1,3]","","",""
"","canvas-keyboard-response","202","184218","0.0-6.0-0.28","536","","","","","pre trial waiting period","null","null","","","critical","t","d","c","164","240","158.0083","227.1683","240","164","spektor","0.09","h","164","240","240","164","158.0083","227.1683","39360","39360","35894.4834","td","null","null","null","null","null","null","[1,2]","498.99444697460865","126.68693816180846","498.53174003874005"
"","canvas-keyboard-response","203","184238","0.0-6.0-1.28","536","","","","","clear_screen","null","null","","","critical","t","d","c","164","240","158.0083","227.1683","240","164","spektor","0.09","h","164","240","240","164","158.0083","227.1683","39360","39360","35894.4834","td","null","null","null","null","null","null","[1,2]","498.99444697460865","126.68693816180846","498.53174003874005"
"","canvas-keyboard-response","204","184744","0.0-6.0-2.28","536","","","","","rectangles no change","null","null","","","critical","t","d","c","164","240","158.0083","227.1683","240","164","spektor","0.09","h","164","240","240","164","158.0083","227.1683","39360","39360","35894.4834","td","null","null","null","null","null","null","[1,2]","498.99444697460865","126.68693816180846","498.53174003874005"
"","canvas-keyboard-response","205","186079","0.0-6.0-3.28","536","","","","","rectangles with change","null","null","","","critical","t","d","c","164","240","158.0083","227.1683","240","164","spektor","0.09","h","164","240","240","164","158.0083","227.1683","39360","39360","35894.4834","td","null","null","null","null","null","null","[1,2]","498.99444697460865","126.68693816180846","498.53174003874005"
"","canvas-keyboard-response","206","186100","0.0-6.0-4.28","536","","","","","clear_screen","null","null","","","critical","t","d","c","164","240","158.0083","227.1683","240","164","spektor","0.09","h","164","240","240","164","158.0083","227.1683","39360","39360","35894.4834","td","null","null","null","null","null","null","[1,2]","498.99444697460865","126.68693816180846","498.53174003874005"
"","canvas-keyboard-response","207","187991","0.0-6.0-5.28","536","","","","","make choice","1884","1","","","critical","t","d","c","164","240","158.0083","227.1683","240","164","spektor","0.09","h","164","240","240","164","158.0083","227.1683","39360","39360","35894.4834","td","null","null","null","null","null","null","[1,2]","","",""
"","canvas-keyboard-response","208","188012","0.0-6.0-6.28","536","","","","","clear_screen","null","null","","","critical","t","d","c","164","240","158.0083","227.1683","240","164","spektor","0.09","h","164","240","240","164","158.0083","227.1683","39360","39360","35894.4834","td","null","null","null","null","null","null","[1,2]","","",""
"","canvas-keyboard-response","209","188213","0.0-6.0-0.29","536","","","","","pre trial waiting period","null","null","","","critical","d","t","c","227.1683","158.0083","240","164","164","240","trueblood","0.09","w","240","164","164","240","227.1683","158.0083","39360","39360","35894.4834","td","null","null","null","null","null","null","[2,1]","472.6237418775767","515.7936669323515","430.42129205482"
"","canvas-keyboard-response","210","188236","0.0-6.0-1.29","536","","","","","clear_screen","null","null","","","critical","d","t","c","227.1683","158.0083","240","164","164","240","trueblood","0.09","w","240","164","164","240","227.1683","158.0083","39360","39360","35894.4834","td","null","null","null","null","null","null","[2,1]","472.6237418775767","515.7936669323515","430.42129205482"
"","canvas-keyboard-response","211","188742","0.0-6.0-2.29","536","","","","","rectangles no change","null","null","","","critical","d","t","c","227.1683","158.0083","240","164","164","240","trueblood","0.09","w","240","164","164","240","227.1683","158.0083","39360","39360","35894.4834","td","null","null","null","null","null","null","[2,1]","472.6237418775767","515.7936669323515","430.42129205482"
"","canvas-keyboard-response","212","190081","0.0-6.0-3.29","536","","","","","rectangles with change","null","null","","","critical","d","t","c","227.1683","158.0083","240","164","164","240","trueblood","0.09","w","240","164","164","240","227.1683","158.0083","39360","39360","35894.4834","td","null","null","null","null","null","null","[2,1]","472.6237418775767","515.7936669323515","430.42129205482"
"","canvas-keyboard-response","213","190099","0.0-6.0-4.29","536","","","","","clear_screen","null","null","","","critical","d","t","c","227.1683","158.0083","240","164","164","240","trueblood","0.09","w","240","164","164","240","227.1683","158.0083","39360","39360","35894.4834","td","null","null","null","null","null","null","[2,1]","472.6237418775767","515.7936669323515","430.42129205482"
"","canvas-keyboard-response","214","190880","0.0-6.0-5.29","536","","","","","make choice","772","2","","","critical","d","t","c","227.1683","158.0083","240","164","164","240","trueblood","0.09","w","240","164","164","240","227.1683","158.0083","39360","39360","35894.4834","td","null","null","null","null","null","null","[2,1]","","",""
"","canvas-keyboard-response","215","190900","0.0-6.0-6.29","536","","","","","clear_screen","null","null","","","critical","d","t","c","227.1683","158.0083","240","164","164","240","trueblood","0.09","w","240","164","164","240","227.1683","158.0083","39360","39360","35894.4834","td","null","null","null","null","null","null","[2,1]","","",""
"","canvas-keyboard-response","216","191101","0.0-6.0-0.30","536","","","","","pre trial waiting period","null","null","","","critical","c","d","t","240","164","158.0083","227.1683","164","240","spektor","0.09","h","164","240","240","164","158.0083","227.1683","39360","39360","35894.4834","dc","null","null","null","null","null","null","[2,1]","520.5525943271975","145.7259167605039","492.66397168896526"
"","canvas-keyboard-response","217","191120","0.0-6.0-1.30","536","","","","","clear_screen","null","null","","","critical","c","d","t","240","164","158.0083","227.1683","164","240","spektor","0.09","h","164","240","240","164","158.0083","227.1683","39360","39360","35894.4834","dc","null","null","null","null","null","null","[2,1]","520.5525943271975","145.7259167605039","492.66397168896526"
"","canvas-keyboard-response","218","191631","0.0-6.0-2.30","536","","","","","rectangles no change","null","null","","","critical","c","d","t","240","164","158.0083","227.1683","164","240","spektor","0.09","h","164","240","240","164","158.0083","227.1683","39360","39360","35894.4834","dc","null","null","null","null","null","null","[2,1]","520.5525943271975","145.7259167605039","492.66397168896526"
"","canvas-keyboard-response","219","192966","0.0-6.0-3.30","536","","","","","rectangles with change","null","null","","","critical","c","d","t","240","164","158.0083","227.1683","164","240","spektor","0.09","h","164","240","240","164","158.0083","227.1683","39360","39360","35894.4834","dc","null","null","null","null","null","null","[2,1]","520.5525943271975","145.7259167605039","492.66397168896526"
"","canvas-keyboard-response","220","192985","0.0-6.0-4.30","536","","","","","clear_screen","null","null","","","critical","c","d","t","240","164","158.0083","227.1683","164","240","spektor","0.09","h","164","240","240","164","158.0083","227.1683","39360","39360","35894.4834","dc","null","null","null","null","null","null","[2,1]","520.5525943271975","145.7259167605039","492.66397168896526"
"","canvas-keyboard-response","221","193647","0.0-6.0-5.30","536","","","","","make choice","656","1","","","critical","c","d","t","240","164","158.0083","227.1683","164","240","spektor","0.09","h","164","240","240","164","158.0083","227.1683","39360","39360","35894.4834","dc","null","null","null","null","null","null","[2,1]","","",""
"","canvas-keyboard-response","222","193668","0.0-6.0-6.30","536","","","","","clear_screen","null","null","","","critical","c","d","t","240","164","158.0083","227.1683","164","240","spektor","0.09","h","164","240","240","164","158.0083","227.1683","39360","39360","35894.4834","dc","null","null","null","null","null","null","[2,1]","","",""
"","canvas-keyboard-response","223","193869","0.0-6.0-0.31","536","","","","","pre trial waiting period","null","null","","","critical","c","t","d","164","240","240","164","240","164","trueblood","0","w","240","164","164","240","240","164","39360","39360","39360","td","null","null","null","null","null","null","[2,3]","422.27642239929327","514.6845586191207","507.05197371814745"
"","canvas-keyboard-response","224","193890","0.0-6.0-1.31","536","","","","","clear_screen","null","null","","","critical","c","t","d","164","240","240","164","240","164","trueblood","0","w","240","164","164","240","240","164","39360","39360","39360","td","null","null","null","null","null","null","[2,3]","422.27642239929327","514.6845586191207","507.05197371814745"
"","canvas-keyboard-response","225","194395","0.0-6.0-2.31","536","","","","","rectangles no change","null","null","","","critical","c","t","d","164","240","240","164","240","164","trueblood","0","w","240","164","164","240","240","164","39360","39360","39360","td","null","null","null","null","null","null","[2,3]","422.27642239929327","514.6845586191207","507.05197371814745"
"","canvas-keyboard-response","226","195727","0.0-6.0-3.31","536","","","","","rectangles with change","null","null","","","critical","c","t","d","164","240","240","164","240","164","trueblood","0","w","240","164","164","240","240","164","39360","39360","39360","td","null","null","null","null","null","null","[2,3]","422.27642239929327","514.6845586191207","507.05197371814745"
"","canvas-keyboard-response","227","195742","0.0-6.0-4.31","536","","","","","clear_screen","null","null","","","critical","c","t","d","164","240","240","164","240","164","trueblood","0","w","240","164","164","240","240","164","39360","39360","39360","td","null","null","null","null","null","null","[2,3]","422.27642239929327","514.6845586191207","507.05197371814745"
"","canvas-keyboard-response","228","197751","0.0-6.0-5.31","536","","","","","make choice","2002","3","","","critical","c","t","d","164","240","240","164","240","164","trueblood","0","w","240","164","164","240","240","164","39360","39360","39360","td","null","null","null","null","null","null","[2,3]","","",""
"","canvas-keyboard-response","229","197770","0.0-6.0-6.31","536","","","","","clear_screen","null","null","","","critical","c","t","d","164","240","240","164","240","164","trueblood","0","w","240","164","164","240","240","164","39360","39360","39360","td","null","null","null","null","null","null","[2,3]","","",""
"","canvas-keyboard-response","230","197970","0.0-6.0-0.32","536","","","","","pre trial waiting period","null","null","","","critical","c","t","d","164","240","240","164","237.1485","162.6685","trueblood","0.02","w","240","164","164","240","237.1485","162.6685","39360","39360","38576.5967","tc","null","null","null","null","null","null","[2,1]","463.5765225406365","517.754348723551","477.4001814638135"
"","canvas-keyboard-response","231","197993","0.0-6.0-1.32","536","","","","","clear_screen","null","null","","","critical","c","t","d","164","240","240","164","237.1485","162.6685","trueblood","0.02","w","240","164","164","240","237.1485","162.6685","39360","39360","38576.5967","tc","null","null","null","null","null","null","[2,1]","463.5765225406365","517.754348723551","477.4001814638135"
"","canvas-keyboard-response","232","198497","0.0-6.0-2.32","536","","","","","rectangles no change","null","null","","","critical","c","t","d","164","240","240","164","237.1485","162.6685","trueblood","0.02","w","240","164","164","240","237.1485","162.6685","39360","39360","38576.5967","tc","null","null","null","null","null","null","[2,1]","463.5765225406365","517.754348723551","477.4001814638135"
"","canvas-keyboard-response","233","199836","0.0-6.0-3.32","536","","","","","rectangles with change","null","null","","","critical","c","t","d","164","240","240","164","237.1485","162.6685","trueblood","0.02","w","240","164","164","240","237.1485","162.6685","39360","39360","38576.5967","tc","null","null","null","null","null","null","[2,1]","463.5765225406365","517.754348723551","477.4001814638135"
"","canvas-keyboard-response","234","199853","0.0-6.0-4.32","536","","","","","clear_screen","null","null","","","critical","c","t","d","164","240","240","164","237.1485","162.6685","trueblood","0.02","w","240","164","164","240","237.1485","162.6685","39360","39360","38576.5967","tc","null","null","null","null","null","null","[2,1]","463.5765225406365","517.754348723551","477.4001814638135"
"","canvas-keyboard-response","235","200567","0.0-6.0-5.32","536","","","","","make choice","709","2","","","critical","c","t","d","164","240","240","164","237.1485","162.6685","trueblood","0.02","w","240","164","164","240","237.1485","162.6685","39360","39360","38576.5967","tc","null","null","null","null","null","null","[2,1]","","",""
"","canvas-keyboard-response","236","200586","0.0-6.0-6.32","536","","","","","clear_screen","null","null","","","critical","c","t","d","164","240","240","164","237.1485","162.6685","trueblood","0.02","w","240","164","164","240","237.1485","162.6685","39360","39360","38576.5967","tc","null","null","null","null","null","null","[2,1]","","",""
"","canvas-keyboard-response","237","200788","0.0-6.0-0.33","536","","","","","pre trial waiting period","null","null","","","catch","sh","sw","l","214","148","190","216","260","221","spektor","null","null","null","null","null","null","null","null","null","null","null","","180","200","260","200","36000","52000","[2,3]","531.5232039923413","143.42658944786083","498.02697691102145"
"","canvas-keyboard-response","238","200809","0.0-6.0-1.33","536","","","","","clear_screen","null","null","","","catch","sh","sw","l","214","148","190","216","260","221","spektor","null","null","null","null","null","null","null","null","null","null","null","","180","200","260","200","36000","52000","[2,3]","531.5232039923413","143.42658944786083","498.02697691102145"
"","canvas-keyboard-response","239","201314","0.0-6.0-2.33","536","","","","","rectangles no change","null","null","","","catch","sh","sw","l","214","148","190","216","260","221","spektor","null","null","null","null","null","null","null","null","null","null","null","","180","200","260","200","36000","52000","[2,3]","531.5232039923413","143.42658944786083","498.02697691102145"
"","canvas-keyboard-response","240","202649","0.0-6.0-3.33","536","","","","","rectangles with change","null","null","","","catch","sh","sw","l","214","148","190","216","260","221","spektor","null","null","null","null","null","null","null","null","null","null","null","","180","200","260","200","36000","52000","[2,3]","531.5232039923413","143.42658944786083","498.02697691102145"
"","canvas-keyboard-response","241","202670","0.0-6.0-4.33","536","","","","","clear_screen","null","null","","","catch","sh","sw","l","214","148","190","216","260","221","spektor","null","null","null","null","null","null","null","null","null","null","null","","180","200","260","200","36000","52000","[2,3]","531.5232039923413","143.42658944786083","498.02697691102145"
"","canvas-keyboard-response","242","203880","0.0-6.0-5.33","536","","","","","make choice","1201","3","","","catch","sh","sw","l","214","148","190","216","260","221","spektor","null","null","null","null","null","null","null","null","null","null","null","","180","200","260","200","36000","52000","[2,3]","","",""
"","canvas-keyboard-response","243","203899","0.0-6.0-6.33","536","","","","","clear_screen","null","null","","","catch","sh","sw","l","214","148","190","216","260","221","spektor","null","null","null","null","null","null","null","null","null","null","null","","180","200","260","200","36000","52000","[2,3]","","",""
"","canvas-keyboard-response","244","204100","0.0-6.0-0.34","536","","","","","pre trial waiting period","null","null","","","critical","t","c","d","164","240","240","164","160.6713","232.8713","trueblood","0.05","h","164","240","240","164","160.6713","232.8713","39360","39360","37415.7294","td","null","null","null","null","null","null","[1,3]","461.5001783648661","513.4039130366991","424.3603070997623"
"","canvas-keyboard-response","245","204123","0.0-6.0-1.34","536","","","","","clear_screen","null","null","","","critical","t","c","d","164","240","240","164","160.6713","232.8713","trueblood","0.05","h","164","240","240","164","160.6713","232.8713","39360","39360","37415.7294","td","null","null","null","null","null","null","[1,3]","461.5001783648661","513.4039130366991","424.3603070997623"
"","canvas-keyboard-response","246","204629","0.0-6.0-2.34","536","","","","","rectangles no change","null","null","","","critical","t","c","d","164","240","240","164","160.6713","232.8713","trueblood","0.05","h","164","240","240","164","160.6713","232.8713","39360","39360","37415.7294","td","null","null","null","null","null","null","[1,3]","461.5001783648661","513.4039130366991","424.3603070997623"
"","canvas-keyboard-response","247","205961","0.0-6.0-3.34","536","","","","","rectangles with change","null","null","","","critical","t","c","d","164","240","240","164","160.6713","232.8713","trueblood","0.05","h","164","240","240","164","160.6713","232.8713","39360","39360","37415.7294","td","null","null","null","null","null","null","[1,3]","461.5001783648661","513.4039130366991","424.3603070997623"
"","canvas-keyboard-response","248","205983","0.0-6.0-4.34","536","","","","","clear_screen","null","null","","","critical","t","c","d","164","240","240","164","160.6713","232.8713","trueblood","0.05","h","164","240","240","164","160.6713","232.8713","39360","39360","37415.7294","td","null","null","null","null","null","null","[1,3]","461.5001783648661","513.4039130366991","424.3603070997623"
"","canvas-keyboard-response","249","207175","0.0-6.0-5.34","536","","","","","make choice","1189","1","","","critical","t","c","d","164","240","240","164","160.6713","232.8713","trueblood","0.05","h","164","240","240","164","160.6713","232.8713","39360","39360","37415.7294","td","null","null","null","null","null","null","[1,3]","","",""
"","canvas-keyboard-response","250","207193","0.0-6.0-6.34","536","","","","","clear_screen","null","null","","","critical","t","c","d","164","240","240","164","160.6713","232.8713","trueblood","0.05","h","164","240","240","164","160.6713","232.8713","39360","39360","37415.7294","td","null","null","null","null","null","null","[1,3]","","",""
"","canvas-keyboard-response","251","207394","0.0-6.0-0.35","536","","","","","pre trial waiting period","null","null","","","critical","t","d","c","240","164","240","164","164","240","spektor","0","w","240","164","164","240","240","164","39360","39360","39360","td","null","null","null","null","null","null","[1,2]","538.4382696095992","174.6146595273948","474.4253435916226"
"","canvas-keyboard-response","252","207416","0.0-6.0-1.35","536","","","","","clear_screen","null","null","","","critical","t","d","c","240","164","240","164","164","240","spektor","0","w","240","164","164","240","240","164","39360","39360","39360","td","null","null","null","null","null","null","[1,2]","538.4382696095992","174.6146595273948","474.4253435916226"
"","canvas-keyboard-response","253","207923","0.0-6.0-2.35","536","","","","","rectangles no change","null","null","","","critical","t","d","c","240","164","240","164","164","240","spektor","0","w","240","164","164","240","240","164","39360","39360","39360","td","null","null","null","null","null","null","[1,2]","538.4382696095992","174.6146595273948","474.4253435916226"
"","canvas-keyboard-response","254","209261","0.0-6.0-3.35","536","","","","","rectangles with change","null","null","","","critical","t","d","c","240","164","240","164","164","240","spektor","0","w","240","164","164","240","240","164","39360","39360","39360","td","null","null","null","null","null","null","[1,2]","538.4382696095992","174.6146595273948","474.4253435916226"
"","canvas-keyboard-response","255","209279","0.0-6.0-4.35","536","","","","","clear_screen","null","null","","","critical","t","d","c","240","164","240","164","164","240","spektor","0","w","240","164","164","240","240","164","39360","39360","39360","td","null","null","null","null","null","null","[1,2]","538.4382696095992","174.6146595273948","474.4253435916226"
"","canvas-keyboard-response","256","210654","0.0-6.0-5.35","536","","","","","make choice","1371","2","","","critical","t","d","c","240","164","240","164","164","240","spektor","0","w","240","164","164","240","240","164","39360","39360","39360","td","null","null","null","null","null","null","[1,2]","","",""
"","canvas-keyboard-response","257","210671","0.0-6.0-6.35","536","","","","","clear_screen","null","null","","","critical","t","d","c","240","164","240","164","164","240","spektor","0","w","240","164","164","240","240","164","39360","39360","39360","td","null","null","null","null","null","null","[1,2]","","",""
"","canvas-keyboard-response","258","210873","0.0-6.0-0.36","536","","","","","pre trial waiting period","null","null","","","catch","sw","sh","l","180","200","225","216","189","291","trueblood","null","null","null","null","null","null","null","null","null","null","null","","180","200","260","200","36000","52000","[2,3]","494.13832936766704","463.0209181062158","400.31443375805037"
"","canvas-keyboard-response","259","210896","0.0-6.0-1.36","536","","","","","clear_screen","null","null","","","catch","sw","sh","l","180","200","225","216","189","291","trueblood","null","null","null","null","null","null","null","null","null","null","null","","180","200","260","200","36000","52000","[2,3]","494.13832936766704","463.0209181062158","400.31443375805037"
"","canvas-keyboard-response","260","211400","0.0-6.0-2.36","536","","","","","rectangles no change","null","null","","","catch","sw","sh","l","180","200","225","216","189","291","trueblood","null","null","null","null","null","null","null","null","null","null","null","","180","200","260","200","36000","52000","[2,3]","494.13832936766704","463.0209181062158","400.31443375805037"
"","canvas-keyboard-response","261","212734","0.0-6.0-3.36","536","","","","","rectangles with change","null","null","","","catch","sw","sh","l","180","200","225","216","189","291","trueblood","null","null","null","null","null","null","null","null","null","null","null","","180","200","260","200","36000","52000","[2,3]","494.13832936766704","463.0209181062158","400.31443375805037"
"","canvas-keyboard-response","262","212753","0.0-6.0-4.36","536","","","","","clear_screen","null","null","","","catch","sw","sh","l","180","200","225","216","189","291","trueblood","null","null","null","null","null","null","null","null","null","null","null","","180","200","260","200","36000","52000","[2,3]","494.13832936766704","463.0209181062158","400.31443375805037"
"","canvas-keyboard-response","263","214991","0.0-6.0-5.36","536","","","","","make choice","2231","2","","","catch","sw","sh","l","180","200","225","216","189","291","trueblood","null","null","null","null","null","null","null","null","null","null","null","","180","200","260","200","36000","52000","[2,3]","","",""
"","canvas-keyboard-response","264","215010","0.0-6.0-6.36","536","","","","","clear_screen","null","null","","","catch","sw","sh","l","180","200","225","216","189","291","trueblood","null","null","null","null","null","null","null","null","null","null","null","","180","200","260","200","36000","52000","[2,3]","","",""
"","canvas-keyboard-response","265","215211","0.0-6.0-0.37","536","","","","","pre trial waiting period","null","null","","","critical","d","c","t","160.6713","232.8713","240","164","164","240","spektor","0.05","h","164","240","240","164","160.6713","232.8713","39360","39360","37415.7294","tc","null","null","null","null","null","null","[3,2]","497.8034732441387","150.7249508138035","492.6120279658261"
"","canvas-keyboard-response","266","215230","0.0-6.0-1.37","536","","","","","clear_screen","null","null","","","critical","d","c","t","160.6713","232.8713","240","164","164","240","spektor","0.05","h","164","240","240","164","160.6713","232.8713","39360","39360","37415.7294","tc","null","null","null","null","null","null","[3,2]","497.8034732441387","150.7249508138035","492.6120279658261"
"","canvas-keyboard-response","267","215742","0.0-6.0-2.37","536","","","","","rectangles no change","null","null","","","critical","d","c","t","160.6713","232.8713","240","164","164","240","spektor","0.05","h","164","240","240","164","160.6713","232.8713","39360","39360","37415.7294","tc","null","null","null","null","null","null","[3,2]","497.8034732441387","150.7249508138035","492.6120279658261"
