"success","trial_type","trial_index","time_elapsed","internal_node_id","sub_n","timeout","failed_images","failed_audio","failed_video","screen_id","rt","response","stimulus","view_history","trial","r1","r2","r3","w1","h1","w2","h2","w3","h3","display","tdd","tdo","tw","th","cw","ch","dw","dh","ta","ca","da","probe","csls","csss","clls","clss","sa","la","probe_rects","r1yloc","r2yloc","r3yloc"
"true","fullscreen","0","2870","0.0-0.0","522","","","","","","","","","","","","","","","","","","","","","","","","","","","","","","","","","","","","","","","","","",""
"true","preload","1","2935","0.0-1.0","522","false","[]","[]","[]","img preload","","","","","","","","","","","","","","","","","","","","","","","","","","","","","","","","","","","","",""
"","survey-html-form","2","221486","0.0-2.0","522","","","","","enter-sub-number","218532","{""response"":""522""}","","","","","","","","","","","","","","","","","","","","","","","","","","","","","","","","","","",""
"","image-button-response","3","223985","0.0-3.0","522","","","","","","2391","0","consent.png","","","","","","","","","","","","","","","","","","","","","","","","","","","","","","","","","",""
"","html-button-response","4","239833","0.0-4.0","522","","","","","intro mssg","15842","0","<div style= ""font-size:25px;"" <p> <strong> Welcome! </strong><br> <p style=""color:#8B0000; font-size:25px;""><strong> Please do NOT exit full screen until you are done with the experiment. </strong> </p><p style=""font-size:25px;color:#8B0000;""> <strong> Your data will be lost <br> if you try to go back or refresh the page after the experiment starts. Feel free to click ""previous"" during the instructions, however.</strong> </p><br><p> <strong> Thanks in advance for your contribution to our research! </strong></p>","","","","","","","","","","","","","","","","","","","","","","","","","","","","","","","","","",""
"","instructions","5","278513","0.0-5.0","522","","","","","instructions","38676","","","[{""page_index"":0,""viewing_time"":2044},{""page_index"":1,""viewing_time"":10247},{""page_index"":2,""viewing_time"":3249},{""page_index"":3,""viewing_time"":16319},{""page_index"":4,""viewing_time"":2600},{""page_index"":5,""viewing_time"":1857},{""page_index"":6,""viewing_time"":1567},{""page_index"":7,""viewing_time"":792}]","","","","","","","","","","","","","","","","","","","","","","","","","","","","","","","","",""
"","canvas-keyboard-response","6","278716","0.0-6.0-0.0","522","","","","","pre trial waiting period","null","null","","","catch","sh","l","sw","212","140","218","240","192","182","trueblood","null","null","null","null","null","null","null","null","null","null","null","","180","200","260","200","36000","52000","[1,2]","497.60745927023044","447.48670210842175","466.2553055637858"
"","canvas-keyboard-response","7","278739","0.0-6.0-1.0","522","","","","","clear_screen","null","null","","","catch","sh","l","sw","212","140","218","240","192","182","trueblood","null","null","null","null","null","null","null","null","null","null","null","","180","200","260","200","36000","52000","[1,2]","497.60745927023044","447.48670210842175","466.2553055637858"
"","canvas-keyboard-response","8","279254","0.0-6.0-2.0","522","","","","","rectangles no change","null","null","","","catch","sh","l","sw","212","140","218","240","192","182","trueblood","null","null","null","null","null","null","null","null","null","null","null","","180","200","260","200","36000","52000","[1,2]","497.60745927023044","447.48670210842175","466.2553055637858"
"","canvas-keyboard-response","9","280591","0.0-6.0-3.0","522","","","","","rectangles with change","null","null","","","catch","sh","l","sw","212","140","218","240","192","182","trueblood","null","null","null","null","null","null","null","null","null","null","null","","180","200","260","200","36000","52000","[1,2]","497.60745927023044","447.48670210842175","466.2553055637858"
"","canvas-keyboard-response","10","280611","0.0-6.0-4.0","522","","","","","clear_screen","null","null","","","catch","sh","l","sw","212","140","218","240","192","182","trueblood","null","null","null","null","null","null","null","null","null","null","null","","180","200","260","200","36000","52000","[1,2]","497.60745927023044","447.48670210842175","466.2553055637858"
"","canvas-keyboard-response","11","284678","0.0-6.0-5.0","522","","","","","make choice","4057","2","","","catch","sh","l","sw","212","140","218","240","192","182","trueblood","null","null","null","null","null","null","null","null","null","null","null","","180","200","260","200","36000","52000","[1,2]","","",""
"","canvas-keyboard-response","12","284697","0.0-6.0-6.0","522","","","","","clear_screen","null","null","","","catch","sh","l","sw","212","140","218","240","192","182","trueblood","null","null","null","null","null","null","null","null","null","null","null","","180","200","260","200","36000","52000","[1,2]","","",""
"","canvas-keyboard-response","13","284899","0.0-6.0-0.1","522","","","","","pre trial waiting period","null","null","","","catch","l","sw","sh","183","293","178","160","218","185","spektor","null","null","null","null","null","null","null","null","null","null","null","","180","200","260","200","36000","52000","[1,2]","474.4354569204346","173.52107729520054","508.6106585154149"
"","canvas-keyboard-response","14","284918","0.0-6.0-1.1","522","","","","","clear_screen","null","null","","","catch","l","sw","sh","183","293","178","160","218","185","spektor","null","null","null","null","null","null","null","null","null","null","null","","180","200","260","200","36000","52000","[1,2]","474.4354569204346","173.52107729520054","508.6106585154149"
"","canvas-keyboard-response","15","285432","0.0-6.0-2.1","522","","","","","rectangles no change","null","null","","","catch","l","sw","sh","183","293","178","160","218","185","spektor","null","null","null","null","null","null","null","null","null","null","null","","180","200","260","200","36000","52000","[1,2]","474.4354569204346","173.52107729520054","508.6106585154149"
"","canvas-keyboard-response","16","286769","0.0-6.0-3.1","522","","","","","rectangles with change","null","null","","","catch","l","sw","sh","183","293","178","160","218","185","spektor","null","null","null","null","null","null","null","null","null","null","null","","180","200","260","200","36000","52000","[1,2]","474.4354569204346","173.52107729520054","508.6106585154149"
"","canvas-keyboard-response","17","286788","0.0-6.0-4.1","522","","","","","clear_screen","null","null","","","catch","l","sw","sh","183","293","178","160","218","185","spektor","null","null","null","null","null","null","null","null","null","null","null","","180","200","260","200","36000","52000","[1,2]","474.4354569204346","173.52107729520054","508.6106585154149"
"","canvas-keyboard-response","18","289678","0.0-6.0-5.1","522","","","","","make choice","2873","2","","","catch","l","sw","sh","183","293","178","160","218","185","spektor","null","null","null","null","null","null","null","null","null","null","null","","180","200","260","200","36000","52000","[1,2]","","",""
"","canvas-keyboard-response","19","289697","0.0-6.0-6.1","522","","","","","clear_screen","null","null","","","catch","l","sw","sh","183","293","178","160","218","185","spektor","null","null","null","null","null","null","null","null","null","null","null","","180","200","260","200","36000","52000","[1,2]","","",""
"","canvas-keyboard-response","20","289898","0.0-6.0-0.2","522","","","","","pre trial waiting period","null","null","","","critical","d","t","c","158.0083","227.1683","164","240","240","164","spektor","0.09","h","164","240","240","164","158.0083","227.1683","39360","39360","35894.4834","tc","null","null","null","null","null","null","[2,3]","503.14288999135323","127.2841324145152","499.09692249823667"
"","canvas-keyboard-response","21","289919","0.0-6.0-1.2","522","","","","","clear_screen","null","null","","","critical","d","t","c","158.0083","227.1683","164","240","240","164","spektor","0.09","h","164","240","240","164","158.0083","227.1683","39360","39360","35894.4834","tc","null","null","null","null","null","null","[2,3]","503.14288999135323","127.2841324145152","499.09692249823667"
"","canvas-keyboard-response","22","290430","0.0-6.0-2.2","522","","","","","rectangles no change","null","null","","","critical","d","t","c","158.0083","227.1683","164","240","240","164","spektor","0.09","h","164","240","240","164","158.0083","227.1683","39360","39360","35894.4834","tc","null","null","null","null","null","null","[2,3]","503.14288999135323","127.2841324145152","499.09692249823667"
"","canvas-keyboard-response","23","291767","0.0-6.0-3.2","522","","","","","rectangles with change","null","null","","","critical","d","t","c","158.0083","227.1683","164","240","240","164","spektor","0.09","h","164","240","240","164","158.0083","227.1683","39360","39360","35894.4834","tc","null","null","null","null","null","null","[2,3]","503.14288999135323","127.2841324145152","499.09692249823667"
"","canvas-keyboard-response","24","291785","0.0-6.0-4.2","522","","","","","clear_screen","null","null","","","critical","d","t","c","158.0083","227.1683","164","240","240","164","spektor","0.09","h","164","240","240","164","158.0083","227.1683","39360","39360","35894.4834","tc","null","null","null","null","null","null","[2,3]","503.14288999135323","127.2841324145152","499.09692249823667"
"","canvas-keyboard-response","25","293142","0.0-6.0-5.2","522","","","","","make choice","1348","3","","","critical","d","t","c","158.0083","227.1683","164","240","240","164","spektor","0.09","h","164","240","240","164","158.0083","227.1683","39360","39360","35894.4834","tc","null","null","null","null","null","null","[2,3]","","",""
"","canvas-keyboard-response","26","293161","0.0-6.0-6.2","522","","","","","clear_screen","null","null","","","critical","d","t","c","158.0083","227.1683","164","240","240","164","spektor","0.09","h","164","240","240","164","158.0083","227.1683","39360","39360","35894.4834","tc","null","null","null","null","null","null","[2,3]","","",""
"","canvas-keyboard-response","27","293363","0.0-6.0-0.3","522","","","","","pre trial waiting period","null","null","","","critical","c","t","d","240","164","164","240","154.6796","220.0396","spektor","0.14","h","164","240","240","164","154.6796","220.0396","39360","39360","34035.6388","td","null","null","null","null","null","null","[2,3]","514.4018460691558","111.72367789138633","484.24776038075953"
"","canvas-keyboard-response","28","293383","0.0-6.0-1.3","522","","","","","clear_screen","null","null","","","critical","c","t","d","240","164","164","240","154.6796","220.0396","spektor","0.14","h","164","240","240","164","154.6796","220.0396","39360","39360","34035.6388","td","null","null","null","null","null","null","[2,3]","514.4018460691558","111.72367789138633","484.24776038075953"
"","canvas-keyboard-response","29","293897","0.0-6.0-2.3","522","","","","","rectangles no change","null","null","","","critical","c","t","d","240","164","164","240","154.6796","220.0396","spektor","0.14","h","164","240","240","164","154.6796","220.0396","39360","39360","34035.6388","td","null","null","null","null","null","null","[2,3]","514.4018460691558","111.72367789138633","484.24776038075953"
"","canvas-keyboard-response","30","295232","0.0-6.0-3.3","522","","","","","rectangles with change","null","null","","","critical","c","t","d","240","164","164","240","154.6796","220.0396","spektor","0.14","h","164","240","240","164","154.6796","220.0396","39360","39360","34035.6388","td","null","null","null","null","null","null","[2,3]","514.4018460691558","111.72367789138633","484.24776038075953"
"","canvas-keyboard-response","31","295252","0.0-6.0-4.3","522","","","","","clear_screen","null","null","","","critical","c","t","d","240","164","164","240","154.6796","220.0396","spektor","0.14","h","164","240","240","164","154.6796","220.0396","39360","39360","34035.6388","td","null","null","null","null","null","null","[2,3]","514.4018460691558","111.72367789138633","484.24776038075953"
"","canvas-keyboard-response","32","295998","0.0-6.0-5.3","522","","","","","make choice","739","2","","","critical","c","t","d","240","164","164","240","154.6796","220.0396","spektor","0.14","h","164","240","240","164","154.6796","220.0396","39360","39360","34035.6388","td","null","null","null","null","null","null","[2,3]","","",""
"","canvas-keyboard-response","33","296016","0.0-6.0-6.3","522","","","","","clear_screen","null","null","","","critical","c","t","d","240","164","164","240","154.6796","220.0396","spektor","0.14","h","164","240","240","164","154.6796","220.0396","39360","39360","34035.6388","td","null","null","null","null","null","null","[2,3]","","",""
"","canvas-keyboard-response","34","296218","0.0-6.0-0.4","522","","","","","pre trial waiting period","null","null","","","critical","c","t","d","240","164","164","240","162.6685","237.1485","trueblood","0.02","h","164","240","240","164","162.6685","237.1485","39360","39360","38576.5967","td","null","null","null","null","null","null","[2,3]","513.4849633393055","442.37410864850966","462.8366314652318"
"","canvas-keyboard-response","35","296237","0.0-6.0-1.4","522","","","","","clear_screen","null","null","","","critical","c","t","d","240","164","164","240","162.6685","237.1485","trueblood","0.02","h","164","240","240","164","162.6685","237.1485","39360","39360","38576.5967","td","null","null","null","null","null","null","[2,3]","513.4849633393055","442.37410864850966","462.8366314652318"
"","canvas-keyboard-response","36","296747","0.0-6.0-2.4","522","","","","","rectangles no change","null","null","","","critical","c","t","d","240","164","164","240","162.6685","237.1485","trueblood","0.02","h","164","240","240","164","162.6685","237.1485","39360","39360","38576.5967","td","null","null","null","null","null","null","[2,3]","513.4849633393055","442.37410864850966","462.8366314652318"
"","canvas-keyboard-response","37","298083","0.0-6.0-3.4","522","","","","","rectangles with change","null","null","","","critical","c","t","d","240","164","164","240","162.6685","237.1485","trueblood","0.02","h","164","240","240","164","162.6685","237.1485","39360","39360","38576.5967","td","null","null","null","null","null","null","[2,3]","513.4849633393055","442.37410864850966","462.8366314652318"
"","canvas-keyboard-response","38","298100","0.0-6.0-4.4","522","","","","","clear_screen","null","null","","","critical","c","t","d","240","164","164","240","162.6685","237.1485","trueblood","0.02","h","164","240","240","164","162.6685","237.1485","39360","39360","38576.5967","td","null","null","null","null","null","null","[2,3]","513.4849633393055","442.37410864850966","462.8366314652318"
"","canvas-keyboard-response","39","301494","0.0-6.0-5.4","522","","","","","make choice","3386","3","","","critical","c","t","d","240","164","164","240","162.6685","237.1485","trueblood","0.02","h","164","240","240","164","162.6685","237.1485","39360","39360","38576.5967","td","null","null","null","null","null","null","[2,3]","","",""
"","canvas-keyboard-response","40","301517","0.0-6.0-6.4","522","","","","","clear_screen","null","null","","","critical","c","t","d","240","164","164","240","162.6685","237.1485","trueblood","0.02","h","164","240","240","164","162.6685","237.1485","39360","39360","38576.5967","td","null","null","null","null","null","null","[2,3]","","",""
"","canvas-keyboard-response","41","301718","0.0-6.0-0.5","522","","","","","pre trial waiting period","null","null","","","critical","t","c","d","240","164","164","240","220.0396","154.6796","trueblood","0.14","w","240","164","164","240","220.0396","154.6796","39360","39360","34035.6388","dc","null","null","null","null","null","null","[3,2]","510.1375894996818","464.3178692886028","514.3928461937431"
"","canvas-keyboard-response","42","301737","0.0-6.0-1.5","522","","","","","clear_screen","null","null","","","critical","t","c","d","240","164","164","240","220.0396","154.6796","trueblood","0.14","w","240","164","164","240","220.0396","154.6796","39360","39360","34035.6388","dc","null","null","null","null","null","null","[3,2]","510.1375894996818","464.3178692886028","514.3928461937431"
"","canvas-keyboard-response","43","302248","0.0-6.0-2.5","522","","","","","rectangles no change","null","null","","","critical","t","c","d","240","164","164","240","220.0396","154.6796","trueblood","0.14","w","240","164","164","240","220.0396","154.6796","39360","39360","34035.6388","dc","null","null","null","null","null","null","[3,2]","510.1375894996818","464.3178692886028","514.3928461937431"
"","canvas-keyboard-response","44","303583","0.0-6.0-3.5","522","","","","","rectangles with change","null","null","","","critical","t","c","d","240","164","164","240","220.0396","154.6796","trueblood","0.14","w","240","164","164","240","220.0396","154.6796","39360","39360","34035.6388","dc","null","null","null","null","null","null","[3,2]","510.1375894996818","464.3178692886028","514.3928461937431"
"","canvas-keyboard-response","45","303601","0.0-6.0-4.5","522","","","","","clear_screen","null","null","","","critical","t","c","d","240","164","164","240","220.0396","154.6796","trueblood","0.14","w","240","164","164","240","220.0396","154.6796","39360","39360","34035.6388","dc","null","null","null","null","null","null","[3,2]","510.1375894996818","464.3178692886028","514.3928461937431"
"","canvas-keyboard-response","46","308374","0.0-6.0-5.5","522","","","","","make choice","4766","3","","","critical","t","c","d","240","164","164","240","220.0396","154.6796","trueblood","0.14","w","240","164","164","240","220.0396","154.6796","39360","39360","34035.6388","dc","null","null","null","null","null","null","[3,2]","","",""
"","canvas-keyboard-response","47","308395","0.0-6.0-6.5","522","","","","","clear_screen","null","null","","","critical","t","c","d","240","164","164","240","220.0396","154.6796","trueblood","0.14","w","240","164","164","240","220.0396","154.6796","39360","39360","34035.6388","dc","null","null","null","null","null","null","[3,2]","","",""
"","canvas-keyboard-response","48","308595","0.0-6.0-0.6","522","","","","","pre trial waiting period","null","null","","","critical","d","c","t","227.1683","158.0083","164","240","240","164","spektor","0.09","w","240","164","164","240","227.1683","158.0083","39360","39360","35894.4834","tc","null","null","null","null","null","null","[3,2]","523.4585077845885","119.16712260901265","542.1653737978079"
"","canvas-keyboard-response","49","308615","0.0-6.0-1.6","522","","","","","clear_screen","null","null","","","critical","d","c","t","227.1683","158.0083","164","240","240","164","spektor","0.09","w","240","164","164","240","227.1683","158.0083","39360","39360","35894.4834","tc","null","null","null","null","null","null","[3,2]","523.4585077845885","119.16712260901265","542.1653737978079"
"","canvas-keyboard-response","50","309128","0.0-6.0-2.6","522","","","","","rectangles no change","null","null","","","critical","d","c","t","227.1683","158.0083","164","240","240","164","spektor","0.09","w","240","164","164","240","227.1683","158.0083","39360","39360","35894.4834","tc","null","null","null","null","null","null","[3,2]","523.4585077845885","119.16712260901265","542.1653737978079"
"","canvas-keyboard-response","51","310464","0.0-6.0-3.6","522","","","","","rectangles with change","null","null","","","critical","d","c","t","227.1683","158.0083","164","240","240","164","spektor","0.09","w","240","164","164","240","227.1683","158.0083","39360","39360","35894.4834","tc","null","null","null","null","null","null","[3,2]","523.4585077845885","119.16712260901265","542.1653737978079"
"","canvas-keyboard-response","52","310484","0.0-6.0-4.6","522","","","","","clear_screen","null","null","","","critical","d","c","t","227.1683","158.0083","164","240","240","164","spektor","0.09","w","240","164","164","240","227.1683","158.0083","39360","39360","35894.4834","tc","null","null","null","null","null","null","[3,2]","523.4585077845885","119.16712260901265","542.1653737978079"
"","canvas-keyboard-response","53","313519","0.0-6.0-5.6","522","","","","","make choice","3028","2","","","critical","d","c","t","227.1683","158.0083","164","240","240","164","spektor","0.09","w","240","164","164","240","227.1683","158.0083","39360","39360","35894.4834","tc","null","null","null","null","null","null","[3,2]","","",""
"","canvas-keyboard-response","54","313540","0.0-6.0-6.6","522","","","","","clear_screen","null","null","","","critical","d","c","t","227.1683","158.0083","164","240","240","164","spektor","0.09","w","240","164","164","240","227.1683","158.0083","39360","39360","35894.4834","tc","null","null","null","null","null","null","[3,2]","","",""
"","canvas-keyboard-response","55","313741","0.0-6.0-0.7","522","","","","","pre trial waiting period","null","null","","","critical","t","d","c","240","164","237.1485","162.6685","164","240","spektor","0.02","w","240","164","164","240","237.1485","162.6685","39360","39360","38576.5967","dc","null","null","null","null","null","null","[2,3]","516.2304170794118","200.66206291618803","501.2068450077659"
"","canvas-keyboard-response","56","313763","0.0-6.0-1.7","522","","","","","clear_screen","null","null","","","critical","t","d","c","240","164","237.1485","162.6685","164","240","spektor","0.02","w","240","164","164","240","237.1485","162.6685","39360","39360","38576.5967","dc","null","null","null","null","null","null","[2,3]","516.2304170794118","200.66206291618803","501.2068450077659"
"","canvas-keyboard-response","57","314276","0.0-6.0-2.7","522","","","","","rectangles no change","null","null","","","critical","t","d","c","240","164","237.1485","162.6685","164","240","spektor","0.02","w","240","164","164","240","237.1485","162.6685","39360","39360","38576.5967","dc","null","null","null","null","null","null","[2,3]","516.2304170794118","200.66206291618803","501.2068450077659"
"","canvas-keyboard-response","58","315613","0.0-6.0-3.7","522","","","","","rectangles with change","null","null","","","critical","t","d","c","240","164","237.1485","162.6685","164","240","spektor","0.02","w","240","164","164","240","237.1485","162.6685","39360","39360","38576.5967","dc","null","null","null","null","null","null","[2,3]","516.2304170794118","200.66206291618803","501.2068450077659"
"","canvas-keyboard-response","59","315632","0.0-6.0-4.7","522","","","","","clear_screen","null","null","","","critical","t","d","c","240","164","237.1485","162.6685","164","240","spektor","0.02","w","240","164","164","240","237.1485","162.6685","39360","39360","38576.5967","dc","null","null","null","null","null","null","[2,3]","516.2304170794118","200.66206291618803","501.2068450077659"
"","canvas-keyboard-response","60","316766","0.0-6.0-5.7","522","","","","","make choice","1126","2","","","critical","t","d","c","240","164","237.1485","162.6685","164","240","spektor","0.02","w","240","164","164","240","237.1485","162.6685","39360","39360","38576.5967","dc","null","null","null","null","null","null","[2,3]","","",""
"","canvas-keyboard-response","61","316786","0.0-6.0-6.7","522","","","","","clear_screen","null","null","","","critical","t","d","c","240","164","237.1485","162.6685","164","240","spektor","0.02","w","240","164","164","240","237.1485","162.6685","39360","39360","38576.5967","dc","null","null","null","null","null","null","[2,3]","","",""
"","canvas-keyboard-response","62","316988","0.0-6.0-0.8","522","","","","","pre trial waiting period","null","null","","","catch","sw","l","sh","180","200","280","174","183","157","spektor","null","null","null","null","null","null","null","null","null","null","null","","180","200","260","200","36000","52000","[2,3]","518.7799044835265","176.72253526689582","520.3837555821605"
"","canvas-keyboard-response","63","317008","0.0-6.0-1.8","522","","","","","clear_screen","null","null","","","catch","sw","l","sh","180","200","280","174","183","157","spektor","null","null","null","null","null","null","null","null","null","null","null","","180","200","260","200","36000","52000","[2,3]","518.7799044835265","176.72253526689582","520.3837555821605"
"","canvas-keyboard-response","64","317529","0.0-6.0-2.8","522","","","","","rectangles no change","null","null","","","catch","sw","l","sh","180","200","280","174","183","157","spektor","null","null","null","null","null","null","null","null","null","null","null","","180","200","260","200","36000","52000","[2,3]","518.7799044835265","176.72253526689582","520.3837555821605"
"","canvas-keyboard-response","65","318865","0.0-6.0-3.8","522","","","","","rectangles with change","null","null","","","catch","sw","l","sh","180","200","280","174","183","157","spektor","null","null","null","null","null","null","null","null","null","null","null","","180","200","260","200","36000","52000","[2,3]","518.7799044835265","176.72253526689582","520.3837555821605"
"","canvas-keyboard-response","66","318884","0.0-6.0-4.8","522","","","","","clear_screen","null","null","","","catch","sw","l","sh","180","200","280","174","183","157","spektor","null","null","null","null","null","null","null","null","null","null","null","","180","200","260","200","36000","52000","[2,3]","518.7799044835265","176.72253526689582","520.3837555821605"
"","canvas-keyboard-response","67","322045","0.0-6.0-5.8","522","","","","","make choice","3149","2","","","catch","sw","l","sh","180","200","280","174","183","157","spektor","null","null","null","null","null","null","null","null","null","null","null","","180","200","260","200","36000","52000","[2,3]","","",""
"","canvas-keyboard-response","68","322064","0.0-6.0-6.8","522","","","","","clear_screen","null","null","","","catch","sw","l","sh","180","200","280","174","183","157","spektor","null","null","null","null","null","null","null","null","null","null","null","","180","200","260","200","36000","52000","[2,3]","","",""
"","canvas-keyboard-response","69","322265","0.0-6.0-0.9","522","","","","","pre trial waiting period","null","null","","","catch","l","sw","sh","162","251","191","211","226","157","trueblood","null","null","null","null","null","null","null","null","null","null","null","","180","200","260","200","36000","52000","[1,2]","442.61501712172134","451.9755689947249","483.59096128056376"
"","canvas-keyboard-response","70","322285","0.0-6.0-1.9","522","","","","","clear_screen","null","null","","","catch","l","sw","sh","162","251","191","211","226","157","trueblood","null","null","null","null","null","null","null","null","null","null","null","","180","200","260","200","36000","52000","[1,2]","442.61501712172134","451.9755689947249","483.59096128056376"
"","canvas-keyboard-response","71","322795","0.0-6.0-2.9","522","","","","","rectangles no change","null","null","","","catch","l","sw","sh","162","251","191","211","226","157","trueblood","null","null","null","null","null","null","null","null","null","null","null","","180","200","260","200","36000","52000","[1,2]","442.61501712172134","451.9755689947249","483.59096128056376"
"","canvas-keyboard-response","72","324129","0.0-6.0-3.9","522","","","","","rectangles with change","null","null","","","catch","l","sw","sh","162","251","191","211","226","157","trueblood","null","null","null","null","null","null","null","null","null","null","null","","180","200","260","200","36000","52000","[1,2]","442.61501712172134","451.9755689947249","483.59096128056376"
"","canvas-keyboard-response","73","324150","0.0-6.0-4.9","522","","","","","clear_screen","null","null","","","catch","l","sw","sh","162","251","191","211","226","157","trueblood","null","null","null","null","null","null","null","null","null","null","null","","180","200","260","200","36000","52000","[1,2]","442.61501712172134","451.9755689947249","483.59096128056376"
"","canvas-keyboard-response","74","324270","0.0-6.0-5.9","522","","","","","make choice","114","2","","","catch","l","sw","sh","162","251","191","211","226","157","trueblood","null","null","null","null","null","null","null","null","null","null","null","","180","200","260","200","36000","52000","[1,2]","","",""
"","canvas-keyboard-response","75","324288","0.0-6.0-6.9","522","","","","","clear_screen","null","null","","","catch","l","sw","sh","162","251","191","211","226","157","trueblood","null","null","null","null","null","null","null","null","null","null","null","","180","200","260","200","36000","52000","[1,2]","","",""
"","canvas-keyboard-response","76","324489","0.0-6.0-0.10","522","","","","","pre trial waiting period","null","null","","","critical","t","d","c","164","240","154.6796","220.0396","240","164","spektor","0.14","h","164","240","240","164","154.6796","220.0396","39360","39360","34035.6388","tc","null","null","null","null","null","null","[1,3]","494.7588708634088","140.84021150663924","503.0060789819046"
"","canvas-keyboard-response","77","324511","0.0-6.0-1.10","522","","","","","clear_screen","null","null","","","critical","t","d","c","164","240","154.6796","220.0396","240","164","spektor","0.14","h","164","240","240","164","154.6796","220.0396","39360","39360","34035.6388","tc","null","null","null","null","null","null","[1,3]","494.7588708634088","140.84021150663924","503.0060789819046"
"","canvas-keyboard-response","78","325023","0.0-6.0-2.10","522","","","","","rectangles no change","null","null","","","critical","t","d","c","164","240","154.6796","220.0396","240","164","spektor","0.14","h","164","240","240","164","154.6796","220.0396","39360","39360","34035.6388","tc","null","null","null","null","null","null","[1,3]","494.7588708634088","140.84021150663924","503.0060789819046"
"","canvas-keyboard-response","79","326360","0.0-6.0-3.10","522","","","","","rectangles with change","null","null","","","critical","t","d","c","164","240","154.6796","220.0396","240","164","spektor","0.14","h","164","240","240","164","154.6796","220.0396","39360","39360","34035.6388","tc","null","null","null","null","null","null","[1,3]","494.7588708634088","140.84021150663924","503.0060789819046"
"","canvas-keyboard-response","80","326379","0.0-6.0-4.10","522","","","","","clear_screen","null","null","","","critical","t","d","c","164","240","154.6796","220.0396","240","164","spektor","0.14","h","164","240","240","164","154.6796","220.0396","39360","39360","34035.6388","tc","null","null","null","null","null","null","[1,3]","494.7588708634088","140.84021150663924","503.0060789819046"
"","canvas-keyboard-response","81","327694","0.0-6.0-5.10","522","","","","","make choice","1306","1","","","critical","t","d","c","164","240","154.6796","220.0396","240","164","spektor","0.14","h","164","240","240","164","154.6796","220.0396","39360","39360","34035.6388","tc","null","null","null","null","null","null","[1,3]","","",""
"","canvas-keyboard-response","82","327712","0.0-6.0-6.10","522","","","","","clear_screen","null","null","","","critical","t","d","c","164","240","154.6796","220.0396","240","164","spektor","0.14","h","164","240","240","164","154.6796","220.0396","39360","39360","34035.6388","tc","null","null","null","null","null","null","[1,3]","","",""
"","canvas-keyboard-response","83","327914","0.0-6.0-0.11","522","","","","","pre trial waiting period","null","null","","","catch","sw","sh","l","180","200","184","214","201","263","trueblood","null","null","null","null","null","null","null","null","null","null","null","","180","200","260","200","36000","52000","[1,3]","458.998029053763","443.2443809878896","405.1242444312515"
"","canvas-keyboard-response","84","327933","0.0-6.0-1.11","522","","","","","clear_screen","null","null","","","catch","sw","sh","l","180","200","184","214","201","263","trueblood","null","null","null","null","null","null","null","null","null","null","null","","180","200","260","200","36000","52000","[1,3]","458.998029053763","443.2443809878896","405.1242444312515"
"","canvas-keyboard-response","85","328442","0.0-6.0-2.11","522","","","","","rectangles no change","null","null","","","catch","sw","sh","l","180","200","184","214","201","263","trueblood","null","null","null","null","null","null","null","null","null","null","null","","180","200","260","200","36000","52000","[1,3]","458.998029053763","443.2443809878896","405.1242444312515"
"","canvas-keyboard-response","86","329777","0.0-6.0-3.11","522","","","","","rectangles with change","null","null","","","catch","sw","sh","l","180","200","184","214","201","263","trueblood","null","null","null","null","null","null","null","null","null","null","null","","180","200","260","200","36000","52000","[1,3]","458.998029053763","443.2443809878896","405.1242444312515"
"","canvas-keyboard-response","87","329796","0.0-6.0-4.11","522","","","","","clear_screen","null","null","","","catch","sw","sh","l","180","200","184","214","201","263","trueblood","null","null","null","null","null","null","null","null","null","null","null","","180","200","260","200","36000","52000","[1,3]","458.998029053763","443.2443809878896","405.1242444312515"
"","canvas-keyboard-response","88","331030","0.0-6.0-5.11","522","","","","","make choice","1226","3","","","catch","sw","sh","l","180","200","184","214","201","263","trueblood","null","null","null","null","null","null","null","null","null","null","null","","180","200","260","200","36000","52000","[1,3]","","",""
"","canvas-keyboard-response","89","331049","0.0-6.0-6.11","522","","","","","clear_screen","null","null","","","catch","sw","sh","l","180","200","184","214","201","263","trueblood","null","null","null","null","null","null","null","null","null","null","null","","180","200","260","200","36000","52000","[1,3]","","",""
"","canvas-keyboard-response","90","331249","0.0-6.0-0.12","522","","","","","pre trial waiting period","null","null","","","catch","sw","sh","l","180","200","196","142","232","209","trueblood","null","null","null","null","null","null","null","null","null","null","null","","180","200","260","200","36000","52000","[1,3]","461.50810415981357","495.2012976003851","449.59839016828244"
"","canvas-keyboard-response","91","331269","0.0-6.0-1.12","522","","","","","clear_screen","null","null","","","catch","sw","sh","l","180","200","196","142","232","209","trueblood","null","null","null","null","null","null","null","null","null","null","null","","180","200","260","200","36000","52000","[1,3]","461.50810415981357","495.2012976003851","449.59839016828244"
"","canvas-keyboard-response","92","331782","0.0-6.0-2.12","522","","","","","rectangles no change","null","null","","","catch","sw","sh","l","180","200","196","142","232","209","trueblood","null","null","null","null","null","null","null","null","null","null","null","","180","200","260","200","36000","52000","[1,3]","461.50810415981357","495.2012976003851","449.59839016828244"
"","canvas-keyboard-response","93","333117","0.0-6.0-3.12","522","","","","","rectangles with change","null","null","","","catch","sw","sh","l","180","200","196","142","232","209","trueblood","null","null","null","null","null","null","null","null","null","null","null","","180","200","260","200","36000","52000","[1,3]","461.50810415981357","495.2012976003851","449.59839016828244"
"","canvas-keyboard-response","94","333136","0.0-6.0-4.12","522","","","","","clear_screen","null","null","","","catch","sw","sh","l","180","200","196","142","232","209","trueblood","null","null","null","null","null","null","null","null","null","null","null","","180","200","260","200","36000","52000","[1,3]","461.50810415981357","495.2012976003851","449.59839016828244"
"","canvas-keyboard-response","95","333877","0.0-6.0-5.12","522","","","","","make choice","735","3","","","catch","sw","sh","l","180","200","196","142","232","209","trueblood","null","null","null","null","null","null","null","null","null","null","null","","180","200","260","200","36000","52000","[1,3]","","",""
"","canvas-keyboard-response","96","333896","0.0-6.0-6.12","522","","","","","clear_screen","null","null","","","catch","sw","sh","l","180","200","196","142","232","209","trueblood","null","null","null","null","null","null","null","null","null","null","null","","180","200","260","200","36000","52000","[1,3]","","",""
"","canvas-keyboard-response","97","334097","0.0-6.0-0.13","522","","","","","pre trial waiting period","null","null","","","critical","t","c","d","240","164","164","240","237.1485","162.6685","spektor","0.02","w","240","164","164","240","237.1485","162.6685","39360","39360","38576.5967","td","null","null","null","null","null","null","[1,3]","503.5694406669288","154.30372399011387","494.86868525924075"
"","canvas-keyboard-response","98","334116","0.0-6.0-1.13","522","","","","","clear_screen","null","null","","","critical","t","c","d","240","164","164","240","237.1485","162.6685","spektor","0.02","w","240","164","164","240","237.1485","162.6685","39360","39360","38576.5967","td","null","null","null","null","null","null","[1,3]","503.5694406669288","154.30372399011387","494.86868525924075"
"","canvas-keyboard-response","99","334629","0.0-6.0-2.13","522","","","","","rectangles no change","null","null","","","critical","t","c","d","240","164","164","240","237.1485","162.6685","spektor","0.02","w","240","164","164","240","237.1485","162.6685","39360","39360","38576.5967","td","null","null","null","null","null","null","[1,3]","503.5694406669288","154.30372399011387","494.86868525924075"
"","canvas-keyboard-response","100","335965","0.0-6.0-3.13","522","","","","","rectangles with change","null","null","","","critical","t","c","d","240","164","164","240","237.1485","162.6685","spektor","0.02","w","240","164","164","240","237.1485","162.6685","39360","39360","38576.5967","td","null","null","null","null","null","null","[1,3]","503.5694406669288","154.30372399011387","494.86868525924075"
"","canvas-keyboard-response","101","335983","0.0-6.0-4.13","522","","","","","clear_screen","null","null","","","critical","t","c","d","240","164","164","240","237.1485","162.6685","spektor","0.02","w","240","164","164","240","237.1485","162.6685","39360","39360","38576.5967","td","null","null","null","null","null","null","[1,3]","503.5694406669288","154.30372399011387","494.86868525924075"
"","canvas-keyboard-response","102","337021","0.0-6.0-5.13","522","","","","","make choice","1032","1","","","critical","t","c","d","240","164","164","240","237.1485","162.6685","spektor","0.02","w","240","164","164","240","237.1485","162.6685","39360","39360","38576.5967","td","null","null","null","null","null","null","[1,3]","","",""
"","canvas-keyboard-response","103","337040","0.0-6.0-6.13","522","","","","","clear_screen","null","null","","","critical","t","c","d","240","164","164","240","237.1485","162.6685","spektor","0.02","w","240","164","164","240","237.1485","162.6685","39360","39360","38576.5967","td","null","null","null","null","null","null","[1,3]","","",""
"","canvas-keyboard-response","104","337240","0.0-6.0-0.14","522","","","","","pre trial waiting period","null","null","","","critical","c","d","t","164","240","220.0396","154.6796","240","164","trueblood","0.14","w","240","164","164","240","220.0396","154.6796","39360","39360","34035.6388","td","null","null","null","null","null","null","[3,2]","448.7998660504287","500.6800750001986","506.55653466832655"
"","canvas-keyboard-response","105","337261","0.0-6.0-1.14","522","","","","","clear_screen","null","null","","","critical","c","d","t","164","240","220.0396","154.6796","240","164","trueblood","0.14","w","240","164","164","240","220.0396","154.6796","39360","39360","34035.6388","td","null","null","null","null","null","null","[3,2]","448.7998660504287","500.6800750001986","506.55653466832655"
"","canvas-keyboard-response","106","337771","0.0-6.0-2.14","522","","","","","rectangles no change","null","null","","","critical","c","d","t","164","240","220.0396","154.6796","240","164","trueblood","0.14","w","240","164","164","240","220.0396","154.6796","39360","39360","34035.6388","td","null","null","null","null","null","null","[3,2]","448.7998660504287","500.6800750001986","506.55653466832655"
"","canvas-keyboard-response","107","339106","0.0-6.0-3.14","522","","","","","rectangles with change","null","null","","","critical","c","d","t","164","240","220.0396","154.6796","240","164","trueblood","0.14","w","240","164","164","240","220.0396","154.6796","39360","39360","34035.6388","td","null","null","null","null","null","null","[3,2]","448.7998660504287","500.6800750001986","506.55653466832655"
"","canvas-keyboard-response","108","339124","0.0-6.0-4.14","522","","","","","clear_screen","null","null","","","critical","c","d","t","164","240","220.0396","154.6796","240","164","trueblood","0.14","w","240","164","164","240","220.0396","154.6796","39360","39360","34035.6388","td","null","null","null","null","null","null","[3,2]","448.7998660504287","500.6800750001986","506.55653466832655"
"","canvas-keyboard-response","109","340429","0.0-6.0-5.14","522","","","","","make choice","1297","2","","","critical","c","d","t","164","240","220.0396","154.6796","240","164","trueblood","0.14","w","240","164","164","240","220.0396","154.6796","39360","39360","34035.6388","td","null","null","null","null","null","null","[3,2]","","",""
"","canvas-keyboard-response","110","340447","0.0-6.0-6.14","522","","","","","clear_screen","null","null","","","critical","c","d","t","164","240","220.0396","154.6796","240","164","trueblood","0.14","w","240","164","164","240","220.0396","154.6796","39360","39360","34035.6388","td","null","null","null","null","null","null","[3,2]","","",""
"","canvas-keyboard-response","111","340648","0.0-6.0-0.15","522","","","","","pre trial waiting period","null","null","","","critical","d","t","c","162.6685","237.1485","164","240","240","164","trueblood","0.02","h","164","240","240","164","162.6685","237.1485","39360","39360","38576.5967","dc","null","null","null","null","null","null","[1,3]","421.44501973478594","442.32151856474167","488.902916876874"
"","canvas-keyboard-response","112","340668","0.0-6.0-1.15","522","","","","","clear_screen","null","null","","","critical","d","t","c","162.6685","237.1485","164","240","240","164","trueblood","0.02","h","164","240","240","164","162.6685","237.1485","39360","39360","38576.5967","dc","null","null","null","null","null","null","[1,3]","421.44501973478594","442.32151856474167","488.902916876874"
"","canvas-keyboard-response","113","341177","0.0-6.0-2.15","522","","","","","rectangles no change","null","null","","","critical","d","t","c","162.6685","237.1485","164","240","240","164","trueblood","0.02","h","164","240","240","164","162.6685","237.1485","39360","39360","38576.5967","dc","null","null","null","null","null","null","[1,3]","421.44501973478594","442.32151856474167","488.902916876874"
"","canvas-keyboard-response","114","342512","0.0-6.0-3.15","522","","","","","rectangles with change","null","null","","","critical","d","t","c","162.6685","237.1485","164","240","240","164","trueblood","0.02","h","164","240","240","164","162.6685","237.1485","39360","39360","38576.5967","dc","null","null","null","null","null","null","[1,3]","421.44501973478594","442.32151856474167","488.902916876874"
"","canvas-keyboard-response","115","342533","0.0-6.0-4.15","522","","","","","clear_screen","null","null","","","critical","d","t","c","162.6685","237.1485","164","240","240","164","trueblood","0.02","h","164","240","240","164","162.6685","237.1485","39360","39360","38576.5967","dc","null","null","null","null","null","null","[1,3]","421.44501973478594","442.32151856474167","488.902916876874"
"","canvas-keyboard-response","116","343454","0.0-6.0-5.15","522","","","","","make choice","912","1","","","critical","d","t","c","162.6685","237.1485","164","240","240","164","trueblood","0.02","h","164","240","240","164","162.6685","237.1485","39360","39360","38576.5967","dc","null","null","null","null","null","null","[1,3]","","",""
"","canvas-keyboard-response","117","343471","0.0-6.0-6.15","522","","","","","clear_screen","null","null","","","critical","d","t","c","162.6685","237.1485","164","240","240","164","trueblood","0.02","h","164","240","240","164","162.6685","237.1485","39360","39360","38576.5967","dc","null","null","null","null","null","null","[1,3]","","",""
"","canvas-keyboard-response","118","343673","0.0-6.0-0.16","522","","","","","pre trial waiting period","null","null","","","critical","t","c","d","240","164","164","240","232.8713","160.6713","spektor","0.05","w","240","164","164","240","232.8713","160.6713","39360","39360","37415.7294","dc","null","null","null","null","null","null","[3,2]","519.1350835978325","125.26225472999704","537.1089530117799"
"","canvas-keyboard-response","119","343693","0.0-6.0-1.16","522","","","","","clear_screen","null","null","","","critical","t","c","d","240","164","164","240","232.8713","160.6713","spektor","0.05","w","240","164","164","240","232.8713","160.6713","39360","39360","37415.7294","dc","null","null","null","null","null","null","[3,2]","519.1350835978325","125.26225472999704","537.1089530117799"
"","canvas-keyboard-response","120","344203","0.0-6.0-2.16","522","","","","","rectangles no change","null","null","","","critical","t","c","d","240","164","164","240","232.8713","160.6713","spektor","0.05","w","240","164","164","240","232.8713","160.6713","39360","39360","37415.7294","dc","null","null","null","null","null","null","[3,2]","519.1350835978325","125.26225472999704","537.1089530117799"
"","canvas-keyboard-response","121","345539","0.0-6.0-3.16","522","","","","","rectangles with change","null","null","","","critical","t","c","d","240","164","164","240","232.8713","160.6713","spektor","0.05","w","240","164","164","240","232.8713","160.6713","39360","39360","37415.7294","dc","null","null","null","null","null","null","[3,2]","519.1350835978325","125.26225472999704","537.1089530117799"
"","canvas-keyboard-response","122","345558","0.0-6.0-4.16","522","","","","","clear_screen","null","null","","","critical","t","c","d","240","164","164","240","232.8713","160.6713","spektor","0.05","w","240","164","164","240","232.8713","160.6713","39360","39360","37415.7294","dc","null","null","null","null","null","null","[3,2]","519.1350835978325","125.26225472999704","537.1089530117799"
"","canvas-keyboard-response","123","346070","0.0-6.0-5.16","522","","","","","make choice","502","3","","","critical","t","c","d","240","164","164","240","232.8713","160.6713","spektor","0.05","w","240","164","164","240","232.8713","160.6713","39360","39360","37415.7294","dc","null","null","null","null","null","null","[3,2]","","",""
"","canvas-keyboard-response","124","346088","0.0-6.0-6.16","522","","","","","clear_screen","null","null","","","critical","t","c","d","240","164","164","240","232.8713","160.6713","spektor","0.05","w","240","164","164","240","232.8713","160.6713","39360","39360","37415.7294","dc","null","null","null","null","null","null","[3,2]","","",""
"","canvas-keyboard-response","125","346290","0.0-6.0-0.17","522","","","","","pre trial waiting period","null","null","","","critical","t","c","d","240","164","164","240","227.1683","158.0083","spektor","0.09","w","240","164","164","240","227.1683","158.0083","39360","39360","35894.4834","td","null","null","null","null","null","null","[1,3]","541.2015162967643","154.5542578511318","536.9346377752684"
"","canvas-keyboard-response","126","346308","0.0-6.0-1.17","522","","","","","clear_screen","null","null","","","critical","t","c","d","240","164","164","240","227.1683","158.0083","spektor","0.09","w","240","164","164","240","227.1683","158.0083","39360","39360","35894.4834","td","null","null","null","null","null","null","[1,3]","541.2015162967643","154.5542578511318","536.9346377752684"
"","canvas-keyboard-response","127","346820","0.0-6.0-2.17","522","","","","","rectangles no change","null","null","","","critical","t","c","d","240","164","164","240","227.1683","158.0083","spektor","0.09","w","240","164","164","240","227.1683","158.0083","39360","39360","35894.4834","td","null","null","null","null","null","null","[1,3]","541.2015162967643","154.5542578511318","536.9346377752684"
"","canvas-keyboard-response","128","348156","0.0-6.0-3.17","522","","","","","rectangles with change","null","null","","","critical","t","c","d","240","164","164","240","227.1683","158.0083","spektor","0.09","w","240","164","164","240","227.1683","158.0083","39360","39360","35894.4834","td","null","null","null","null","null","null","[1,3]","541.2015162967643","154.5542578511318","536.9346377752684"
"","canvas-keyboard-response","129","348178","0.0-6.0-4.17","522","","","","","clear_screen","null","null","","","critical","t","c","d","240","164","164","240","227.1683","158.0083","spektor","0.09","w","240","164","164","240","227.1683","158.0083","39360","39360","35894.4834","td","null","null","null","null","null","null","[1,3]","541.2015162967643","154.5542578511318","536.9346377752684"
"","canvas-keyboard-response","130","349117","0.0-6.0-5.17","522","","","","","make choice","931","1","","","critical","t","c","d","240","164","164","240","227.1683","158.0083","spektor","0.09","w","240","164","164","240","227.1683","158.0083","39360","39360","35894.4834","td","null","null","null","null","null","null","[1,3]","","",""
"","canvas-keyboard-response","131","349136","0.0-6.0-6.17","522","","","","","clear_screen","null","null","","","critical","t","c","d","240","164","164","240","227.1683","158.0083","spektor","0.09","w","240","164","164","240","227.1683","158.0083","39360","39360","35894.4834","td","null","null","null","null","null","null","[1,3]","","",""
"","canvas-keyboard-response","132","349338","0.0-6.0-0.18","522","","","","","pre trial waiting period","null","null","","","critical","d","c","t","164","240","240","164","164","240","spektor","0","h","164","240","240","164","164","240","39360","39360","39360","td","null","null","null","null","null","null","[3,1]","457.74902300706174","170.8914837693394","469.62116812302065"
"","canvas-keyboard-response","133","349361","0.0-6.0-1.18","522","","","","","clear_screen","null","null","","","critical","d","c","t","164","240","240","164","164","240","spektor","0","h","164","240","240","164","164","240","39360","39360","39360","td","null","null","null","null","null","null","[3,1]","457.74902300706174","170.8914837693394","469.62116812302065"
"","canvas-keyboard-response","134","349872","0.0-6.0-2.18","522","","","","","rectangles no change","null","null","","","critical","d","c","t","164","240","240","164","164","240","spektor","0","h","164","240","240","164","164","240","39360","39360","39360","td","null","null","null","null","null","null","[3,1]","457.74902300706174","170.8914837693394","469.62116812302065"
"","canvas-keyboard-response","135","351208","0.0-6.0-3.18","522","","","","","rectangles with change","null","null","","","critical","d","c","t","164","240","240","164","164","240","spektor","0","h","164","240","240","164","164","240","39360","39360","39360","td","null","null","null","null","null","null","[3,1]","457.74902300706174","170.8914837693394","469.62116812302065"
"","canvas-keyboard-response","136","351228","0.0-6.0-4.18","522","","","","","clear_screen","null","null","","","critical","d","c","t","164","240","240","164","164","240","spektor","0","h","164","240","240","164","164","240","39360","39360","39360","td","null","null","null","null","null","null","[3,1]","457.74902300706174","170.8914837693394","469.62116812302065"
"","canvas-keyboard-response","137","353661","0.0-6.0-5.18","522","","","","","make choice","2425","1","","","critical","d","c","t","164","240","240","164","164","240","spektor","0","h","164","240","240","164","164","240","39360","39360","39360","td","null","null","null","null","null","null","[3,1]","","",""
"","canvas-keyboard-response","138","353680","0.0-6.0-6.18","522","","","","","clear_screen","null","null","","","critical","d","c","t","164","240","240","164","164","240","spektor","0","h","164","240","240","164","164","240","39360","39360","39360","td","null","null","null","null","null","null","[3,1]","","",""
"","canvas-keyboard-response","139","353882","0.0-6.0-0.19","522","","","","","pre trial waiting period","null","null","","","catch","sw","sh","l","180","200","212","211","237","217","spektor","null","null","null","null","null","null","null","null","null","null","null","","180","200","260","200","36000","52000","[2,3]","477.3005920774024","127.22028778802766","486.24449274911814"
"","canvas-keyboard-response","140","353902","0.0-6.0-1.19","522","","","","","clear_screen","null","null","","","catch","sw","sh","l","180","200","212","211","237","217","spektor","null","null","null","null","null","null","null","null","null","null","null","","180","200","260","200","36000","52000","[2,3]","477.3005920774024","127.22028778802766","486.24449274911814"
"","canvas-keyboard-response","141","354414","0.0-6.0-2.19","522","","","","","rectangles no change","null","null","","","catch","sw","sh","l","180","200","212","211","237","217","spektor","null","null","null","null","null","null","null","null","null","null","null","","180","200","260","200","36000","52000","[2,3]","477.3005920774024","127.22028778802766","486.24449274911814"
"","canvas-keyboard-response","142","355750","0.0-6.0-3.19","522","","","","","rectangles with change","null","null","","","catch","sw","sh","l","180","200","212","211","237","217","spektor","null","null","null","null","null","null","null","null","null","null","null","","180","200","260","200","36000","52000","[2,3]","477.3005920774024","127.22028778802766","486.24449274911814"
"","canvas-keyboard-response","143","355769","0.0-6.0-4.19","522","","","","","clear_screen","null","null","","","catch","sw","sh","l","180","200","212","211","237","217","spektor","null","null","null","null","null","null","null","null","null","null","null","","180","200","260","200","36000","52000","[2,3]","477.3005920774024","127.22028778802766","486.24449274911814"
"","canvas-keyboard-response","144","361317","0.0-6.0-5.19","522","","","","","make choice","5541","2","","","catch","sw","sh","l","180","200","212","211","237","217","spektor","null","null","null","null","null","null","null","null","null","null","null","","180","200","260","200","36000","52000","[2,3]","","",""
"","canvas-keyboard-response","145","361336","0.0-6.0-6.19","522","","","","","clear_screen","null","null","","","catch","sw","sh","l","180","200","212","211","237","217","spektor","null","null","null","null","null","null","null","null","null","null","null","","180","200","260","200","36000","52000","[2,3]","","",""
"","canvas-keyboard-response","146","361537","0.0-6.0-0.20","522","","","","","pre trial waiting period","null","null","","","catch","l","sh","sw","171","280","191","161","197","219","trueblood","null","null","null","null","null","null","null","null","null","null","null","","180","200","260","200","36000","52000","[1,2]","405.8223637230623","485.84050691790236","462.0262656400988"
"","canvas-keyboard-response","147","361557","0.0-6.0-1.20","522","","","","","clear_screen","null","null","","","catch","l","sh","sw","171","280","191","161","197","219","trueblood","null","null","null","null","null","null","null","null","null","null","null","","180","200","260","200","36000","52000","[1,2]","405.8223637230623","485.84050691790236","462.0262656400988"
"","canvas-keyboard-response","148","362070","0.0-6.0-2.20","522","","","","","rectangles no change","null","null","","","catch","l","sh","sw","171","280","191","161","197","219","trueblood","null","null","null","null","null","null","null","null","null","null","null","","180","200","260","200","36000","52000","[1,2]","405.8223637230623","485.84050691790236","462.0262656400988"
"","canvas-keyboard-response","149","363406","0.0-6.0-3.20","522","","","","","rectangles with change","null","null","","","catch","l","sh","sw","171","280","191","161","197","219","trueblood","null","null","null","null","null","null","null","null","null","null","null","","180","200","260","200","36000","52000","[1,2]","405.8223637230623","485.84050691790236","462.0262656400988"
"","canvas-keyboard-response","150","363425","0.0-6.0-4.20","522","","","","","clear_screen","null","null","","","catch","l","sh","sw","171","280","191","161","197","219","trueblood","null","null","null","null","null","null","null","null","null","null","null","","180","200","260","200","36000","52000","[1,2]","405.8223637230623","485.84050691790236","462.0262656400988"
"","canvas-keyboard-response","151","365598","0.0-6.0-5.20","522","","","","","make choice","2164","1","","","catch","l","sh","sw","171","280","191","161","197","219","trueblood","null","null","null","null","null","null","null","null","null","null","null","","180","200","260","200","36000","52000","[1,2]","","",""
"","canvas-keyboard-response","152","365616","0.0-6.0-6.20","522","","","","","clear_screen","null","null","","","catch","l","sh","sw","171","280","191","161","197","219","trueblood","null","null","null","null","null","null","null","null","null","null","null","","180","200","260","200","36000","52000","[1,2]","","",""
"","canvas-keyboard-response","153","365818","0.0-6.0-0.21","522","","","","","pre trial waiting period","null","null","","","critical","d","t","c","227.1683","158.0083","240","164","164","240","trueblood","0.09","w","240","164","164","240","227.1683","158.0083","39360","39360","35894.4834","td","null","null","null","null","null","null","[2,1]","518.4532674907807","490.35125181288237","460.652368921383"
"","canvas-keyboard-response","154","365837","0.0-6.0-1.21","522","","","","","clear_screen","null","null","","","critical","d","t","c","227.1683","158.0083","240","164","164","240","trueblood","0.09","w","240","164","164","240","227.1683","158.0083","39360","39360","35894.4834","td","null","null","null","null","null","null","[2,1]","518.4532674907807","490.35125181288237","460.652368921383"
"","canvas-keyboard-response","155","366353","0.0-6.0-2.21","522","","","","","rectangles no change","null","null","","","critical","d","t","c","227.1683","158.0083","240","164","164","240","trueblood","0.09","w","240","164","164","240","227.1683","158.0083","39360","39360","35894.4834","td","null","null","null","null","null","null","[2,1]","518.4532674907807","490.35125181288237","460.652368921383"
"","canvas-keyboard-response","156","367688","0.0-6.0-3.21","522","","","","","rectangles with change","null","null","","","critical","d","t","c","227.1683","158.0083","240","164","164","240","trueblood","0.09","w","240","164","164","240","227.1683","158.0083","39360","39360","35894.4834","td","null","null","null","null","null","null","[2,1]","518.4532674907807","490.35125181288237","460.652368921383"
"","canvas-keyboard-response","157","367708","0.0-6.0-4.21","522","","","","","clear_screen","null","null","","","critical","d","t","c","227.1683","158.0083","240","164","164","240","trueblood","0.09","w","240","164","164","240","227.1683","158.0083","39360","39360","35894.4834","td","null","null","null","null","null","null","[2,1]","518.4532674907807","490.35125181288237","460.652368921383"
"","canvas-keyboard-response","158","372182","0.0-6.0-5.21","522","","","","","make choice","4465","2","","","critical","d","t","c","227.1683","158.0083","240","164","164","240","trueblood","0.09","w","240","164","164","240","227.1683","158.0083","39360","39360","35894.4834","td","null","null","null","null","null","null","[2,1]","","",""
"","canvas-keyboard-response","159","372199","0.0-6.0-6.21","522","","","","","clear_screen","null","null","","","critical","d","t","c","227.1683","158.0083","240","164","164","240","trueblood","0.09","w","240","164","164","240","227.1683","158.0083","39360","39360","35894.4834","td","null","null","null","null","null","null","[2,1]","","",""
"","canvas-keyboard-response","160","372401","0.0-6.0-0.22","522","","","","","pre trial waiting period","null","null","","","critical","c","t","d","240","164","164","240","164","240","spektor","0","h","164","240","240","164","164","240","39360","39360","39360","tc","null","null","null","null","null","null","[2,1]","493.5395613509376","106.13235288259116","473.2165403935662"
"","canvas-keyboard-response","161","372420","0.0-6.0-1.22","522","","","","","clear_screen","null","null","","","critical","c","t","d","240","164","164","240","164","240","spektor","0","h","164","240","240","164","164","240","39360","39360","39360","tc","null","null","null","null","null","null","[2,1]","493.5395613509376","106.13235288259116","473.2165403935662"
"","canvas-keyboard-response","162","372936","0.0-6.0-2.22","522","","","","","rectangles no change","null","null","","","critical","c","t","d","240","164","164","240","164","240","spektor","0","h","164","240","240","164","164","240","39360","39360","39360","tc","null","null","null","null","null","null","[2,1]","493.5395613509376","106.13235288259116","473.2165403935662"
"","canvas-keyboard-response","163","374273","0.0-6.0-3.22","522","","","","","rectangles with change","null","null","","","critical","c","t","d","240","164","164","240","164","240","spektor","0","h","164","240","240","164","164","240","39360","39360","39360","tc","null","null","null","null","null","null","[2,1]","493.5395613509376","106.13235288259116","473.2165403935662"
"","canvas-keyboard-response","164","374293","0.0-6.0-4.22","522","","","","","clear_screen","null","null","","","critical","c","t","d","240","164","164","240","164","240","spektor","0","h","164","240","240","164","164","240","39360","39360","39360","tc","null","null","null","null","null","null","[2,1]","493.5395613509376","106.13235288259116","473.2165403935662"
"","canvas-keyboard-response","165","377789","0.0-6.0-5.22","522","","","","","make choice","3488","2","","","critical","c","t","d","240","164","164","240","164","240","spektor","0","h","164","240","240","164","164","240","39360","39360","39360","tc","null","null","null","null","null","null","[2,1]","","",""
"","canvas-keyboard-response","166","377808","0.0-6.0-6.22","522","","","","","clear_screen","null","null","","","critical","c","t","d","240","164","164","240","164","240","spektor","0","h","164","240","240","164","164","240","39360","39360","39360","tc","null","null","null","null","null","null","[2,1]","","",""
"","canvas-keyboard-response","167","378010","0.0-6.0-0.23","522","","","","","pre trial waiting period","null","null","","","critical","t","d","c","240","164","237.1485","162.6685","164","240","trueblood","0.02","w","240","164","164","240","237.1485","162.6685","39360","39360","38576.5967","td","null","null","null","null","null","null","[1,2]","505.93109957961474","476.92805565281924","453.70450271870845"
"","canvas-keyboard-response","168","378030","0.0-6.0-1.23","522","","","","","clear_screen","null","null","","","critical","t","d","c","240","164","237.1485","162.6685","164","240","trueblood","0.02","w","240","164","164","240","237.1485","162.6685","39360","39360","38576.5967","td","null","null","null","null","null","null","[1,2]","505.93109957961474","476.92805565281924","453.70450271870845"
"","canvas-keyboard-response","169","378540","0.0-6.0-2.23","522","","","","","rectangles no change","null","null","","","critical","t","d","c","240","164","237.1485","162.6685","164","240","trueblood","0.02","w","240","164","164","240","237.1485","162.6685","39360","39360","38576.5967","td","null","null","null","null","null","null","[1,2]","505.93109957961474","476.92805565281924","453.70450271870845"
"","canvas-keyboard-response","170","379875","0.0-6.0-3.23","522","","","","","rectangles with change","null","null","","","critical","t","d","c","240","164","237.1485","162.6685","164","240","trueblood","0.02","w","240","164","164","240","237.1485","162.6685","39360","39360","38576.5967","td","null","null","null","null","null","null","[1,2]","505.93109957961474","476.92805565281924","453.70450271870845"
"","canvas-keyboard-response","171","379893","0.0-6.0-4.23","522","","","","","clear_screen","null","null","","","critical","t","d","c","240","164","237.1485","162.6685","164","240","trueblood","0.02","w","240","164","164","240","237.1485","162.6685","39360","39360","38576.5967","td","null","null","null","null","null","null","[1,2]","505.93109957961474","476.92805565281924","453.70450271870845"
"","canvas-keyboard-response","172","384022","0.0-6.0-5.23","522","","","","","make choice","4119","2","","","critical","t","d","c","240","164","237.1485","162.6685","164","240","trueblood","0.02","w","240","164","164","240","237.1485","162.6685","39360","39360","38576.5967","td","null","null","null","null","null","null","[1,2]","","",""
"","canvas-keyboard-response","173","384040","0.0-6.0-6.23","522","","","","","clear_screen","null","null","","","critical","t","d","c","240","164","237.1485","162.6685","164","240","trueblood","0.02","w","240","164","164","240","237.1485","162.6685","39360","39360","38576.5967","td","null","null","null","null","null","null","[1,2]","","",""
"","canvas-keyboard-response","174","384241","0.0-6.0-0.24","522","","","","","pre trial waiting period","null","null","","","critical","c","t","d","164","240","240","164","240","164","spektor","0","w","240","164","164","240","240","164","39360","39360","39360","dc","null","null","null","null","null","null","[3,1]","464.41322906442304","204.03772716059197","527.6119032697728"
"","canvas-keyboard-response","175","384260","0.0-6.0-1.24","522","","","","","clear_screen","null","null","","","critical","c","t","d","164","240","240","164","240","164","spektor","0","w","240","164","164","240","240","164","39360","39360","39360","dc","null","null","null","null","null","null","[3,1]","464.41322906442304","204.03772716059197","527.6119032697728"
"","canvas-keyboard-response","176","384771","0.0-6.0-2.24","522","","","","","rectangles no change","null","null","","","critical","c","t","d","164","240","240","164","240","164","spektor","0","w","240","164","164","240","240","164","39360","39360","39360","dc","null","null","null","null","null","null","[3,1]","464.41322906442304","204.03772716059197","527.6119032697728"
"","canvas-keyboard-response","177","386107","0.0-6.0-3.24","522","","","","","rectangles with change","null","null","","","critical","c","t","d","164","240","240","164","240","164","spektor","0","w","240","164","164","240","240","164","39360","39360","39360","dc","null","null","null","null","null","null","[3,1]","464.41322906442304","204.03772716059197","527.6119032697728"
"","canvas-keyboard-response","178","386127","0.0-6.0-4.24","522","","","","","clear_screen","null","null","","","critical","c","t","d","164","240","240","164","240","164","spektor","0","w","240","164","164","240","240","164","39360","39360","39360","dc","null","null","null","null","null","null","[3,1]","464.41322906442304","204.03772716059197","527.6119032697728"
"","canvas-keyboard-response","179","388757","0.0-6.0-5.24","522","","","","","make choice","2620","3","","","critical","c","t","d","164","240","240","164","240","164","spektor","0","w","240","164","164","240","240","164","39360","39360","39360","dc","null","null","null","null","null","null","[3,1]","","",""
"","canvas-keyboard-response","180","388776","0.0-6.0-6.24","522","","","","","clear_screen","null","null","","","critical","c","t","d","164","240","240","164","240","164","spektor","0","w","240","164","164","240","240","164","39360","39360","39360","dc","null","null","null","null","null","null","[3,1]","","",""
"","canvas-keyboard-response","181","388978","0.0-6.0-0.25","522","","","","","pre trial waiting period","null","null","","","critical","d","c","t","160.6713","232.8713","240","164","164","240","trueblood","0.05","h","164","240","240","164","160.6713","232.8713","39360","39360","37415.7294","dc","null","null","null","null","null","null","[1,2]","440.96392031570974","499.85568790305894","451.3459053432932"
"","canvas-keyboard-response","182","388996","0.0-6.0-1.25","522","","","","","clear_screen","null","null","","","critical","d","c","t","160.6713","232.8713","240","164","164","240","trueblood","0.05","h","164","240","240","164","160.6713","232.8713","39360","39360","37415.7294","dc","null","null","null","null","null","null","[1,2]","440.96392031570974","499.85568790305894","451.3459053432932"
"","canvas-keyboard-response","183","389507","0.0-6.0-2.25","522","","","","","rectangles no change","null","null","","","critical","d","c","t","160.6713","232.8713","240","164","164","240","trueblood","0.05","h","164","240","240","164","160.6713","232.8713","39360","39360","37415.7294","dc","null","null","null","null","null","null","[1,2]","440.96392031570974","499.85568790305894","451.3459053432932"
"","canvas-keyboard-response","184","390843","0.0-6.0-3.25","522","","","","","rectangles with change","null","null","","","critical","d","c","t","160.6713","232.8713","240","164","164","240","trueblood","0.05","h","164","240","240","164","160.6713","232.8713","39360","39360","37415.7294","dc","null","null","null","null","null","null","[1,2]","440.96392031570974","499.85568790305894","451.3459053432932"
"","canvas-keyboard-response","185","390861","0.0-6.0-4.25","522","","","","","clear_screen","null","null","","","critical","d","c","t","160.6713","232.8713","240","164","164","240","trueblood","0.05","h","164","240","240","164","160.6713","232.8713","39360","39360","37415.7294","dc","null","null","null","null","null","null","[1,2]","440.96392031570974","499.85568790305894","451.3459053432932"
"","canvas-keyboard-response","186","390934","0.0-6.0-5.25","522","","","","","make choice","64","2","","","critical","d","c","t","160.6713","232.8713","240","164","164","240","trueblood","0.05","h","164","240","240","164","160.6713","232.8713","39360","39360","37415.7294","dc","null","null","null","null","null","null","[1,2]","","",""
"","canvas-keyboard-response","187","390952","0.0-6.0-6.25","522","","","","","clear_screen","null","null","","","critical","d","c","t","160.6713","232.8713","240","164","164","240","trueblood","0.05","h","164","240","240","164","160.6713","232.8713","39360","39360","37415.7294","dc","null","null","null","null","null","null","[1,2]","","",""
"","canvas-keyboard-response","188","391152","0.0-6.0-0.26","522","","","","","pre trial waiting period","null","null","","","critical","t","d","c","240","164","237.1485","162.6685","164","240","trueblood","0.02","w","240","164","164","240","237.1485","162.6685","39360","39360","38576.5967","tc","null","null","null","null","null","null","[1,3]","510.38847982672974","503.63125312097725","468.0457086924607"
"","canvas-keyboard-response","189","391171","0.0-6.0-1.26","522","","","","","clear_screen","null","null","","","critical","t","d","c","240","164","237.1485","162.6685","164","240","trueblood","0.02","w","240","164","164","240","237.1485","162.6685","39360","39360","38576.5967","tc","null","null","null","null","null","null","[1,3]","510.38847982672974","503.63125312097725","468.0457086924607"
"","canvas-keyboard-response","190","391684","0.0-6.0-2.26","522","","","","","rectangles no change","null","null","","","critical","t","d","c","240","164","237.1485","162.6685","164","240","trueblood","0.02","w","240","164","164","240","237.1485","162.6685","39360","39360","38576.5967","tc","null","null","null","null","null","null","[1,3]","510.38847982672974","503.63125312097725","468.0457086924607"
"","canvas-keyboard-response","191","393020","0.0-6.0-3.26","522","","","","","rectangles with change","null","null","","","critical","t","d","c","240","164","237.1485","162.6685","164","240","trueblood","0.02","w","240","164","164","240","237.1485","162.6685","39360","39360","38576.5967","tc","null","null","null","null","null","null","[1,3]","510.38847982672974","503.63125312097725","468.0457086924607"
"","canvas-keyboard-response","192","393038","0.0-6.0-4.26","522","","","","","clear_screen","null","null","","","critical","t","d","c","240","164","237.1485","162.6685","164","240","trueblood","0.02","w","240","164","164","240","237.1485","162.6685","39360","39360","38576.5967","tc","null","null","null","null","null","null","[1,3]","510.38847982672974","503.63125312097725","468.0457086924607"
"","canvas-keyboard-response","193","394813","0.0-6.0-5.26","522","","","","","make choice","1767","3","","","critical","t","d","c","240","164","237.1485","162.6685","164","240","trueblood","0.02","w","240","164","164","240","237.1485","162.6685","39360","39360","38576.5967","tc","null","null","null","null","null","null","[1,3]","","",""
"","canvas-keyboard-response","194","394830","0.0-6.0-6.26","522","","","","","clear_screen","null","null","","","critical","t","d","c","240","164","237.1485","162.6685","164","240","trueblood","0.02","w","240","164","164","240","237.1485","162.6685","39360","39360","38576.5967","tc","null","null","null","null","null","null","[1,3]","","",""
"","canvas-keyboard-response","195","395031","0.0-6.0-0.27","522","","","","","pre trial waiting period","null","null","","","catch","l","sh","sw","263","202","202","174","144","191","trueblood","null","null","null","null","null","null","null","null","null","null","null","","180","200","260","200","36000","52000","[1,2]","454.9811289197788","504.2993994996217","477.2096396829802"
"","canvas-keyboard-response","196","395051","0.0-6.0-1.27","522","","","","","clear_screen","null","null","","","catch","l","sh","sw","263","202","202","174","144","191","trueblood","null","null","null","null","null","null","null","null","null","null","null","","180","200","260","200","36000","52000","[1,2]","454.9811289197788","504.2993994996217","477.2096396829802"
"","canvas-keyboard-response","197","395561","0.0-6.0-2.27","522","","","","","rectangles no change","null","null","","","catch","l","sh","sw","263","202","202","174","144","191","trueblood","null","null","null","null","null","null","null","null","null","null","null","","180","200","260","200","36000","52000","[1,2]","454.9811289197788","504.2993994996217","477.2096396829802"
"","canvas-keyboard-response","198","396896","0.0-6.0-3.27","522","","","","","rectangles with change","null","null","","","catch","l","sh","sw","263","202","202","174","144","191","trueblood","null","null","null","null","null","null","null","null","null","null","null","","180","200","260","200","36000","52000","[1,2]","454.9811289197788","504.2993994996217","477.2096396829802"
"","canvas-keyboard-response","199","396914","0.0-6.0-4.27","522","","","","","clear_screen","null","null","","","catch","l","sh","sw","263","202","202","174","144","191","trueblood","null","null","null","null","null","null","null","null","null","null","null","","180","200","260","200","36000","52000","[1,2]","454.9811289197788","504.2993994996217","477.2096396829802"
"","canvas-keyboard-response","200","397013","0.0-6.0-5.27","522","","","","","make choice","92","1","","","catch","l","sh","sw","263","202","202","174","144","191","trueblood","null","null","null","null","null","null","null","null","null","null","null","","180","200","260","200","36000","52000","[1,2]","","",""
"","canvas-keyboard-response","201","397031","0.0-6.0-6.27","522","","","","","clear_screen","null","null","","","catch","l","sh","sw","263","202","202","174","144","191","trueblood","null","null","null","null","null","null","null","null","null","null","null","","180","200","260","200","36000","52000","[1,2]","","",""
"","canvas-keyboard-response","202","397232","0.0-6.0-0.28","522","","","","","pre trial waiting period","null","null","","","catch","l","sw","sh","210","252","198","174","214","174","spektor","null","null","null","null","null","null","null","null","null","null","null","","180","200","260","200","36000","52000","[1,3]","453.9365803855973","156.32647201797394","489.974762777834"
"","canvas-keyboard-response","203","397255","0.0-6.0-1.28","522","","","","","clear_screen","null","null","","","catch","l","sw","sh","210","252","198","174","214","174","spektor","null","null","null","null","null","null","null","null","null","null","null","","180","200","260","200","36000","52000","[1,3]","453.9365803855973","156.32647201797394","489.974762777834"
"","canvas-keyboard-response","204","397767","0.0-6.0-2.28","522","","","","","rectangles no change","null","null","","","catch","l","sw","sh","210","252","198","174","214","174","spektor","null","null","null","null","null","null","null","null","null","null","null","","180","200","260","200","36000","52000","[1,3]","453.9365803855973","156.32647201797394","489.974762777834"
"","canvas-keyboard-response","205","399104","0.0-6.0-3.28","522","","","","","rectangles with change","null","null","","","catch","l","sw","sh","210","252","198","174","214","174","spektor","null","null","null","null","null","null","null","null","null","null","null","","180","200","260","200","36000","52000","[1,3]","453.9365803855973","156.32647201797394","489.974762777834"
"","canvas-keyboard-response","206","399122","0.0-6.0-4.28","522","","","","","clear_screen","null","null","","","catch","l","sw","sh","210","252","198","174","214","174","spektor","null","null","null","null","null","null","null","null","null","null","null","","180","200","260","200","36000","52000","[1,3]","453.9365803855973","156.32647201797394","489.974762777834"
"","canvas-keyboard-response","207","399237","0.0-6.0-5.28","522","","","","","make choice","108","1","","","catch","l","sw","sh","210","252","198","174","214","174","spektor","null","null","null","null","null","null","null","null","null","null","null","","180","200","260","200","36000","52000","[1,3]","","",""
"","canvas-keyboard-response","208","399255","0.0-6.0-6.28","522","","","","","clear_screen","null","null","","","catch","l","sw","sh","210","252","198","174","214","174","spektor","null","null","null","null","null","null","null","null","null","null","null","","180","200","260","200","36000","52000","[1,3]","","",""
"","canvas-keyboard-response","209","399456","0.0-6.0-0.29","522","","","","","pre trial waiting period","null","null","","","catch","sw","sh","l","180","200","219","208","181","251","spektor","null","null","null","null","null","null","null","null","null","null","null","","180","200","260","200","36000","52000","[1,3]","507.49307587843447","127.1168369989605","496.03428165299255"
"","canvas-keyboard-response","210","399476","0.0-6.0-1.29","522","","","","","clear_screen","null","null","","","catch","sw","sh","l","180","200","219","208","181","251","spektor","null","null","null","null","null","null","null","null","null","null","null","","180","200","260","200","36000","52000","[1,3]","507.49307587843447","127.1168369989605","496.03428165299255"
"","canvas-keyboard-response","211","399988","0.0-6.0-2.29","522","","","","","rectangles no change","null","null","","","catch","sw","sh","l","180","200","219","208","181","251","spektor","null","null","null","null","null","null","null","null","null","null","null","","180","200","260","200","36000","52000","[1,3]","507.49307587843447","127.1168369989605","496.03428165299255"
"","canvas-keyboard-response","212","401322","0.0-6.0-3.29","522","","","","","rectangles with change","null","null","","","catch","sw","sh","l","180","200","219","208","181","251","spektor","null","null","null","null","null","null","null","null","null","null","null","","180","200","260","200","36000","52000","[1,3]","507.49307587843447","127.1168369989605","496.03428165299255"
"","canvas-keyboard-response","213","401341","0.0-6.0-4.29","522","","","","","clear_screen","null","null","","","catch","sw","sh","l","180","200","219","208","181","251","spektor","null","null","null","null","null","null","null","null","null","null","null","","180","200","260","200","36000","52000","[1,3]","507.49307587843447","127.1168369989605","496.03428165299255"
"","canvas-keyboard-response","214","401389","0.0-6.0-5.29","522","","","","","make choice","40","3","","","catch","sw","sh","l","180","200","219","208","181","251","spektor","null","null","null","null","null","null","null","null","null","null","null","","180","200","260","200","36000","52000","[1,3]","","",""
"","canvas-keyboard-response","215","401408","0.0-6.0-6.29","522","","","","","clear_screen","null","null","","","catch","sw","sh","l","180","200","219","208","181","251","spektor","null","null","null","null","null","null","null","null","null","null","null","","180","200","260","200","36000","52000","[1,3]","","",""
"","canvas-keyboard-response","216","401609","0.0-6.0-0.30","522","","","","","pre trial waiting period","null","null","","","catch","l","sh","sw","245","207","189","199","177","184","trueblood","null","null","null","null","null","null","null","null","null","null","null","","180","200","260","200","36000","52000","[1,3]","473.25686546435736","482.1128477690318","477.0231036512058"
"","canvas-keyboard-response","217","401633","0.0-6.0-1.30","522","","","","","clear_screen","null","null","","","catch","l","sh","sw","245","207","189","199","177","184","trueblood","null","null","null","null","null","null","null","null","null","null","null","","180","200","260","200","36000","52000","[1,3]","473.25686546435736","482.1128477690318","477.0231036512058"
"","canvas-keyboard-response","218","402145","0.0-6.0-2.30","522","","","","","rectangles no change","null","null","","","catch","l","sh","sw","245","207","189","199","177","184","trueblood","null","null","null","null","null","null","null","null","null","null","null","","180","200","260","200","36000","52000","[1,3]","473.25686546435736","482.1128477690318","477.0231036512058"
"","canvas-keyboard-response","219","403482","0.0-6.0-3.30","522","","","","","rectangles with change","null","null","","","catch","l","sh","sw","245","207","189","199","177","184","trueblood","null","null","null","null","null","null","null","null","null","null","null","","180","200","260","200","36000","52000","[1,3]","473.25686546435736","482.1128477690318","477.0231036512058"
"","canvas-keyboard-response","220","403501","0.0-6.0-4.30","522","","","","","clear_screen","null","null","","","catch","l","sh","sw","245","207","189","199","177","184","trueblood","null","null","null","null","null","null","null","null","null","null","null","","180","200","260","200","36000","52000","[1,3]","473.25686546435736","482.1128477690318","477.0231036512058"
"","canvas-keyboard-response","221","407686","0.0-6.0-5.30","522","","","","","make choice","4175","3","","","catch","l","sh","sw","245","207","189","199","177","184","trueblood","null","null","null","null","null","null","null","null","null","null","null","","180","200","260","200","36000","52000","[1,3]","","",""
"","canvas-keyboard-response","222","407709","0.0-6.0-6.30","522","","","","","clear_screen","null","null","","","catch","l","sh","sw","245","207","189","199","177","184","trueblood","null","null","null","null","null","null","null","null","null","null","null","","180","200","260","200","36000","52000","[1,3]","","",""
"","canvas-keyboard-response","223","407912","0.0-6.0-0.31","522","","","","","pre trial waiting period","null","null","","","catch","sw","sh","l","180","200","209","150","198","263","spektor","null","null","null","null","null","null","null","null","null","null","null","","180","200","260","200","36000","52000","[1,3]","503.4194980242355","184.66781517517725","487.8728471001544"
"","canvas-keyboard-response","224","407933","0.0-6.0-1.31","522","","","","","clear_screen","null","null","","","catch","sw","sh","l","180","200","209","150","198","263","spektor","null","null","null","null","null","null","null","null","null","null","null","","180","200","260","200","36000","52000","[1,3]","503.4194980242355","184.66781517517725","487.8728471001544"
"","canvas-keyboard-response","225","408446","0.0-6.0-2.31","522","","","","","rectangles no change","null","null","","","catch","sw","sh","l","180","200","209","150","198","263","spektor","null","null","null","null","null","null","null","null","null","null","null","","180","200","260","200","36000","52000","[1,3]","503.4194980242355","184.66781517517725","487.8728471001544"
"","canvas-keyboard-response","226","409782","0.0-6.0-3.31","522","","","","","rectangles with change","null","null","","","catch","sw","sh","l","180","200","209","150","198","263","spektor","null","null","null","null","null","null","null","null","null","null","null","","180","200","260","200","36000","52000","[1,3]","503.4194980242355","184.66781517517725","487.8728471001544"
"","canvas-keyboard-response","227","409802","0.0-6.0-4.31","522","","","","","clear_screen","null","null","","","catch","sw","sh","l","180","200","209","150","198","263","spektor","null","null","null","null","null","null","null","null","null","null","null","","180","200","260","200","36000","52000","[1,3]","503.4194980242355","184.66781517517725","487.8728471001544"
"","canvas-keyboard-response","228","415246","0.0-6.0-5.31","522","","","","","make choice","5435","1","","","catch","sw","sh","l","180","200","209","150","198","263","spektor","null","null","null","null","null","null","null","null","null","null","null","","180","200","260","200","36000","52000","[1,3]","","",""
"","canvas-keyboard-response","229","415264","0.0-6.0-6.31","522","","","","","clear_screen","null","null","","","catch","sw","sh","l","180","200","209","150","198","263","spektor","null","null","null","null","null","null","null","null","null","null","null","","180","200","260","200","36000","52000","[1,3]","","",""
"","canvas-keyboard-response","230","415466","0.0-6.0-0.32","522","","","","","pre trial waiting period","null","null","","","critical","t","c","d","164","240","240","164","162.6685","237.1485","trueblood","0.02","h","164","240","240","164","162.6685","237.1485","39360","39360","38576.5967","tc","null","null","null","null","null","null","[1,2]","443.1517200367826","487.29084895432374","466.6488677960218"
"","canvas-keyboard-response","231","415486","0.0-6.0-1.32","522","","","","","clear_screen","null","null","","","critical","t","c","d","164","240","240","164","162.6685","237.1485","trueblood","0.02","h","164","240","240","164","162.6685","237.1485","39360","39360","38576.5967","tc","null","null","null","null","null","null","[1,2]","443.1517200367826","487.29084895432374","466.6488677960218"
"","canvas-keyboard-response","232","415996","0.0-6.0-2.32","522","","","","","rectangles no change","null","null","","","critical","t","c","d","164","240","240","164","162.6685","237.1485","trueblood","0.02","h","164","240","240","164","162.6685","237.1485","39360","39360","38576.5967","tc","null","null","null","null","null","null","[1,2]","443.1517200367826","487.29084895432374","466.6488677960218"
"","canvas-keyboard-response","233","417331","0.0-6.0-3.32","522","","","","","rectangles with change","null","null","","","critical","t","c","d","164","240","240","164","162.6685","237.1485","trueblood","0.02","h","164","240","240","164","162.6685","237.1485","39360","39360","38576.5967","tc","null","null","null","null","null","null","[1,2]","443.1517200367826","487.29084895432374","466.6488677960218"
"","canvas-keyboard-response","234","417351","0.0-6.0-4.32","522","","","","","clear_screen","null","null","","","critical","t","c","d","164","240","240","164","162.6685","237.1485","trueblood","0.02","h","164","240","240","164","162.6685","237.1485","39360","39360","38576.5967","tc","null","null","null","null","null","null","[1,2]","443.1517200367826","487.29084895432374","466.6488677960218"
"","canvas-keyboard-response","235","417517","0.0-6.0-5.32","522","","","","","make choice","151","1","","","critical","t","c","d","164","240","240","164","162.6685","237.1485","trueblood","0.02","h","164","240","240","164","162.6685","237.1485","39360","39360","38576.5967","tc","null","null","null","null","null","null","[1,2]","","",""
"","canvas-keyboard-response","236","417536","0.0-6.0-6.32","522","","","","","clear_screen","null","null","","","critical","t","c","d","164","240","240","164","162.6685","237.1485","trueblood","0.02","h","164","240","240","164","162.6685","237.1485","39360","39360","38576.5967","tc","null","null","null","null","null","null","[1,2]","","",""
"","canvas-keyboard-response","237","417737","0.0-6.0-0.33","522","","","","","pre trial waiting period","null","null","","","catch","sw","l","sh","180","200","203","228","225","179","spektor","null","null","null","null","null","null","null","null","null","null","null","","180","200","260","200","36000","52000","[2,3]","494.172328607203","121.52845906106418","528.9096709412656"
"","canvas-keyboard-response","238","417758","0.0-6.0-1.33","522","","","","","clear_screen","null","null","","","catch","sw","l","sh","180","200","203","228","225","179","spektor","null","null","null","null","null","null","null","null","null","null","null","","180","200","260","200","36000","52000","[2,3]","494.172328607203","121.52845906106418","528.9096709412656"
"","canvas-keyboard-response","239","418270","0.0-6.0-2.33","522","","","","","rectangles no change","null","null","","","catch","sw","l","sh","180","200","203","228","225","179","spektor","null","null","null","null","null","null","null","null","null","null","null","","180","200","260","200","36000","52000","[2,3]","494.172328607203","121.52845906106418","528.9096709412656"
"","canvas-keyboard-response","240","419605","0.0-6.0-3.33","522","","","","","rectangles with change","null","null","","","catch","sw","l","sh","180","200","203","228","225","179","spektor","null","null","null","null","null","null","null","null","null","null","null","","180","200","260","200","36000","52000","[2,3]","494.172328607203","121.52845906106418","528.9096709412656"
"","canvas-keyboard-response","241","419626","0.0-6.0-4.33","522","","","","","clear_screen","null","null","","","catch","sw","l","sh","180","200","203","228","225","179","spektor","null","null","null","null","null","null","null","null","null","null","null","","180","200","260","200","36000","52000","[2,3]","494.172328607203","121.52845906106418","528.9096709412656"
"","canvas-keyboard-response","242","419733","0.0-6.0-5.33","522","","","","","make choice","99","3","","","catch","sw","l","sh","180","200","203","228","225","179","spektor","null","null","null","null","null","null","null","null","null","null","null","","180","200","260","200","36000","52000","[2,3]","","",""
"","canvas-keyboard-response","243","419751","0.0-6.0-6.33","522","","","","","clear_screen","null","null","","","catch","sw","l","sh","180","200","203","228","225","179","spektor","null","null","null","null","null","null","null","null","null","null","null","","180","200","260","200","36000","52000","[2,3]","","",""
"","canvas-keyboard-response","244","419953","0.0-6.0-0.34","522","","","","","pre trial waiting period","null","null","","","critical","d","t","c","237.1485","162.6685","240","164","164","240","spektor","0.02","w","240","164","164","240","237.1485","162.6685","39360","39360","38576.5967","tc","null","null","null","null","null","null","[2,3]","500.03492697432625","196.26983342133582","462.56710035206703"
"","canvas-keyboard-response","245","419972","0.0-6.0-1.34","522","","","","","clear_screen","null","null","","","critical","d","t","c","237.1485","162.6685","240","164","164","240","spektor","0.02","w","240","164","164","240","237.1485","162.6685","39360","39360","38576.5967","tc","null","null","null","null","null","null","[2,3]","500.03492697432625","196.26983342133582","462.56710035206703"
"","canvas-keyboard-response","246","420486","0.0-6.0-2.34","522","","","","","rectangles no change","null","null","","","critical","d","t","c","237.1485","162.6685","240","164","164","240","spektor","0.02","w","240","164","164","240","237.1485","162.6685","39360","39360","38576.5967","tc","null","null","null","null","null","null","[2,3]","500.03492697432625","196.26983342133582","462.56710035206703"
"","canvas-keyboard-response","247","421821","0.0-6.0-3.34","522","","","","","rectangles with change","null","null","","","critical","d","t","c","237.1485","162.6685","240","164","164","240","spektor","0.02","w","240","164","164","240","237.1485","162.6685","39360","39360","38576.5967","tc","null","null","null","null","null","null","[2,3]","500.03492697432625","196.26983342133582","462.56710035206703"
"","canvas-keyboard-response","248","421840","0.0-6.0-4.34","522","","","","","clear_screen","null","null","","","critical","d","t","c","237.1485","162.6685","240","164","164","240","spektor","0.02","w","240","164","164","240","237.1485","162.6685","39360","39360","38576.5967","tc","null","null","null","null","null","null","[2,3]","500.03492697432625","196.26983342133582","462.56710035206703"
"","canvas-keyboard-response","249","421989","0.0-6.0-5.34","522","","","","","make choice","141","3","","","critical","d","t","c","237.1485","162.6685","240","164","164","240","spektor","0.02","w","240","164","164","240","237.1485","162.6685","39360","39360","38576.5967","tc","null","null","null","null","null","null","[2,3]","","",""
"","canvas-keyboard-response","250","422007","0.0-6.0-6.34","522","","","","","clear_screen","null","null","","","critical","d","t","c","237.1485","162.6685","240","164","164","240","spektor","0.02","w","240","164","164","240","237.1485","162.6685","39360","39360","38576.5967","tc","null","null","null","null","null","null","[2,3]","","",""
"","canvas-keyboard-response","251","422208","0.0-6.0-0.35","522","","","","","pre trial waiting period","null","null","","","catch","sh","l","sw","238","194","282","239","217","215","trueblood","null","null","null","null","null","null","null","null","null","null","null","","180","200","260","200","36000","52000","[1,2]","473.19354830616805","468.7347313715066","442.2022864439629"
"","canvas-keyboard-response","252","422228","0.0-6.0-1.35","522","","","","","clear_screen","null","null","","","catch","sh","l","sw","238","194","282","239","217","215","trueblood","null","null","null","null","null","null","null","null","null","null","null","","180","200","260","200","36000","52000","[1,2]","473.19354830616805","468.7347313715066","442.2022864439629"
"","canvas-keyboard-response","253","422738","0.0-6.0-2.35","522","","","","","rectangles no change","null","null","","","catch","sh","l","sw","238","194","282","239","217","215","trueblood","null","null","null","null","null","null","null","null","null","null","null","","180","200","260","200","36000","52000","[1,2]","473.19354830616805","468.7347313715066","442.2022864439629"
"","canvas-keyboard-response","254","424074","0.0-6.0-3.35","522","","","","","rectangles with change","null","null","","","catch","sh","l","sw","238","194","282","239","217","215","trueblood","null","null","null","null","null","null","null","null","null","null","null","","180","200","260","200","36000","52000","[1,2]","473.19354830616805","468.7347313715066","442.2022864439629"
"","canvas-keyboard-response","255","424093","0.0-6.0-4.35","522","","","","","clear_screen","null","null","","","catch","sh","l","sw","238","194","282","239","217","215","trueblood","null","null","null","null","null","null","null","null","null","null","null","","180","200","260","200","36000","52000","[1,2]","473.19354830616805","468.7347313715066","442.2022864439629"
"","canvas-keyboard-response","256","428741","0.0-6.0-5.35","522","","","","","make choice","4638","2","","","catch","sh","l","sw","238","194","282","239","217","215","trueblood","null","null","null","null","null","null","null","null","null","null","null","","180","200","260","200","36000","52000","[1,2]","","",""
"","canvas-keyboard-response","257","428761","0.0-6.0-6.35","522","","","","","clear_screen","null","null","","","catch","sh","l","sw","238","194","282","239","217","215","trueblood","null","null","null","null","null","null","null","null","null","null","null","","180","200","260","200","36000","52000","[1,2]","","",""
"","canvas-keyboard-response","258","428962","0.0-6.0-0.36","522","","","","","pre trial waiting period","null","null","","","catch","l","sw","sh","213","266","190","188","208","207","spektor","null","null","null","null","null","null","null","null","null","null","null","","180","200","260","200","36000","52000","[1,3]","466.73831213800787","131.58590082982488","472.18413515587366"
"","canvas-keyboard-response","259","428984","0.0-6.0-1.36","522","","","","","clear_screen","null","null","","","catch","l","sw","sh","213","266","190","188","208","207","spektor","null","null","null","null","null","null","null","null","null","null","null","","180","200","260","200","36000","52000","[1,3]","466.73831213800787","131.58590082982488","472.18413515587366"
"","canvas-keyboard-response","260","429494","0.0-6.0-2.36","522","","","","","rectangles no change","null","null","","","catch","l","sw","sh","213","266","190","188","208","207","spektor","null","null","null","null","null","null","null","null","null","null","null","","180","200","260","200","36000","52000","[1,3]","466.73831213800787","131.58590082982488","472.18413515587366"
"","canvas-keyboard-response","261","430831","0.0-6.0-3.36","522","","","","","rectangles with change","null","null","","","catch","l","sw","sh","213","266","190","188","208","207","spektor","null","null","null","null","null","null","null","null","null","null","null","","180","200","260","200","36000","52000","[1,3]","466.73831213800787","131.58590082982488","472.18413515587366"
"","canvas-keyboard-response","262","430849","0.0-6.0-4.36","522","","","","","clear_screen","null","null","","","catch","l","sw","sh","213","266","190","188","208","207","spektor","null","null","null","null","null","null","null","null","null","null","null","","180","200","260","200","36000","52000","[1,3]","466.73831213800787","131.58590082982488","472.18413515587366"
"","canvas-keyboard-response","263","439493","0.0-6.0-5.36","522","","","","","make choice","8637","3","","","catch","l","sw","sh","213","266","190","188","208","207","spektor","null","null","null","null","null","null","null","null","null","null","null","","180","200","260","200","36000","52000","[1,3]","","",""
"","canvas-keyboard-response","264","439511","0.0-6.0-6.36","522","","","","","clear_screen","null","null","","","catch","l","sw","sh","213","266","190","188","208","207","spektor","null","null","null","null","null","null","null","null","null","null","null","","180","200","260","200","36000","52000","[1,3]","","",""
"","canvas-keyboard-response","265","439712","0.0-6.0-0.37","522","","","","","pre trial waiting period","null","null","","","catch","sw","sh","l","180","200","166","196","235","204","spektor","null","null","null","null","null","null","null","null","null","null","null","","180","200","260","200","36000","52000","[1,3]","487.3786583113287","175.8857845461402","495.171200774699"
"","canvas-keyboard-response","266","439731","0.0-6.0-1.37","522","","","","","clear_screen","null","null","","","catch","sw","sh","l","180","200","166","196","235","204","spektor","null","null","null","null","null","null","null","null","null","null","null","","180","200","260","200","36000","52000","[1,3]","487.3786583113287","175.8857845461402","495.171200774699"
"","canvas-keyboard-response","267","440241","0.0-6.0-2.37","522","","","","","rectangles no change","null","null","","","catch","sw","sh","l","180","200","166","196","235","204","spektor","null","null","null","null","null","null","null","null","null","null","null","","180","200","260","200","36000","52000","[1,3]","487.3786583113287","175.8857845461402","495.171200774699"
