"success","trial_type","trial_index","time_elapsed","internal_node_id","sub_n","timeout","failed_images","failed_audio","failed_video","screen_id","rt","response","stimulus","view_history","trial","r1","r2","r3","w1","h1","w2","h2","w3","h3","display","tdd","tdo","tw","th","cw","ch","dw","dh","ta","ca","da","probe","csls","csss","clls","clss","sa","la","probe_rects","r1yloc","r2yloc","r3yloc"
"true","fullscreen","0","10693","0.0-0.0","549","","","","","","","","","","","","","","","","","","","","","","","","","","","","","","","","","","","","","","","","","",""
"true","preload","1","10765","0.0-1.0","549","false","[]","[]","[]","img preload","","","","","","","","","","","","","","","","","","","","","","","","","","","","","","","","","","","","",""
"","survey-html-form","2","12404","0.0-2.0","549","","","","","enter-sub-number","1630","{""response"":""549""}","","","","","","","","","","","","","","","","","","","","","","","","","","","","","","","","","","",""
"","image-button-response","3","17492","0.0-3.0","549","","","","","","5024","0","consent.png","","","","","","","","","","","","","","","","","","","","","","","","","","","","","","","","","",""
"","html-button-response","4","19756","0.0-4.0","549","","","","","intro mssg","2259","0","<div style= ""font-size:25px;"" <p> <strong> Welcome! </strong><br> <p style=""color:#8B0000; font-size:25px;""><strong> Please do NOT exit full screen until you are done with the experiment. </strong> </p><p style=""font-size:25px;color:#8B0000;""> <strong> Your data will be lost <br> if you try to go back or refresh the page after the experiment starts. Feel free to click ""previous"" during the instructions, however.</strong> </p><br><p> <strong> Thanks in advance for your contribution to our research! </strong></p>","","","","","","","","","","","","","","","","","","","","","","","","","","","","","","","","","",""
"","instructions","5","82877","0.0-5.0","549","","","","","instructions","63118","","","[{""page_index"":0,""viewing_time"":9229},{""page_index"":1,""viewing_time"":10201},{""page_index"":2,""viewing_time"":3255},{""page_index"":3,""viewing_time"":26513},{""page_index"":4,""viewing_time"":5869},{""page_index"":5,""viewing_time"":3578},{""page_index"":6,""viewing_time"":3281},{""page_index"":7,""viewing_time"":1192}]","","","","","","","","","","","","","","","","","","","","","","","","","","","","","","","","",""
"","canvas-keyboard-response","6","83084","0.0-6.0-0.0","549","","","","","pre trial waiting period","null","null","","","critical","d","t","c","237.1485","162.6685","240","164","164","240","spektor","0.02","w","240","164","164","240","237.1485","162.6685","39360","39360","38576.5967","tc","null","null","null","null","null","null","[2,3]","539.5678918459851","204.14360713108883","456.93422826164397"
"","canvas-keyboard-response","7","83108","0.0-6.0-1.0","549","","","","","clear_screen","null","null","","","critical","d","t","c","237.1485","162.6685","240","164","164","240","spektor","0.02","w","240","164","164","240","237.1485","162.6685","39360","39360","38576.5967","tc","null","null","null","null","null","null","[2,3]","539.5678918459851","204.14360713108883","456.93422826164397"
"","canvas-keyboard-response","8","83620","0.0-6.0-2.0","549","","","","","rectangles no change","null","null","","","critical","d","t","c","237.1485","162.6685","240","164","164","240","spektor","0.02","w","240","164","164","240","237.1485","162.6685","39360","39360","38576.5967","tc","null","null","null","null","null","null","[2,3]","539.5678918459851","204.14360713108883","456.93422826164397"
"","canvas-keyboard-response","9","84957","0.0-6.0-3.0","549","","","","","rectangles with change","null","null","","","critical","d","t","c","237.1485","162.6685","240","164","164","240","spektor","0.02","w","240","164","164","240","237.1485","162.6685","39360","39360","38576.5967","tc","null","null","null","null","null","null","[2,3]","539.5678918459851","204.14360713108883","456.93422826164397"
"","canvas-keyboard-response","10","84978","0.0-6.0-4.0","549","","","","","clear_screen","null","null","","","critical","d","t","c","237.1485","162.6685","240","164","164","240","spektor","0.02","w","240","164","164","240","237.1485","162.6685","39360","39360","38576.5967","tc","null","null","null","null","null","null","[2,3]","539.5678918459851","204.14360713108883","456.93422826164397"
"","canvas-keyboard-response","11","89348","0.0-6.0-5.0","549","","","","","make choice","4364","3","","","critical","d","t","c","237.1485","162.6685","240","164","164","240","spektor","0.02","w","240","164","164","240","237.1485","162.6685","39360","39360","38576.5967","tc","null","null","null","null","null","null","[2,3]","","",""
"","canvas-keyboard-response","12","89368","0.0-6.0-6.0","549","","","","","clear_screen","null","null","","","critical","d","t","c","237.1485","162.6685","240","164","164","240","spektor","0.02","w","240","164","164","240","237.1485","162.6685","39360","39360","38576.5967","tc","null","null","null","null","null","null","[2,3]","","",""
"","canvas-keyboard-response","13","89570","0.0-6.0-0.1","549","","","","","pre trial waiting period","null","null","","","critical","c","d","t","240","164","162.6685","237.1485","164","240","trueblood","0.02","h","164","240","240","164","162.6685","237.1485","39360","39360","38576.5967","dc","null","null","null","null","null","null","[2,1]","505.4673066390896","447.630016750605","423.1592362524584"
"","canvas-keyboard-response","14","89594","0.0-6.0-1.1","549","","","","","clear_screen","null","null","","","critical","c","d","t","240","164","162.6685","237.1485","164","240","trueblood","0.02","h","164","240","240","164","162.6685","237.1485","39360","39360","38576.5967","dc","null","null","null","null","null","null","[2,1]","505.4673066390896","447.630016750605","423.1592362524584"
"","canvas-keyboard-response","15","90099","0.0-6.0-2.1","549","","","","","rectangles no change","null","null","","","critical","c","d","t","240","164","162.6685","237.1485","164","240","trueblood","0.02","h","164","240","240","164","162.6685","237.1485","39360","39360","38576.5967","dc","null","null","null","null","null","null","[2,1]","505.4673066390896","447.630016750605","423.1592362524584"
"","canvas-keyboard-response","16","91434","0.0-6.0-3.1","549","","","","","rectangles with change","null","null","","","critical","c","d","t","240","164","162.6685","237.1485","164","240","trueblood","0.02","h","164","240","240","164","162.6685","237.1485","39360","39360","38576.5967","dc","null","null","null","null","null","null","[2,1]","505.4673066390896","447.630016750605","423.1592362524584"
"","canvas-keyboard-response","17","91455","0.0-6.0-4.1","549","","","","","clear_screen","null","null","","","critical","c","d","t","240","164","162.6685","237.1485","164","240","trueblood","0.02","h","164","240","240","164","162.6685","237.1485","39360","39360","38576.5967","dc","null","null","null","null","null","null","[2,1]","505.4673066390896","447.630016750605","423.1592362524584"
"","canvas-keyboard-response","18","92668","0.0-6.0-5.1","549","","","","","make choice","1205","2","","","critical","c","d","t","240","164","162.6685","237.1485","164","240","trueblood","0.02","h","164","240","240","164","162.6685","237.1485","39360","39360","38576.5967","dc","null","null","null","null","null","null","[2,1]","","",""
"","canvas-keyboard-response","19","92688","0.0-6.0-6.1","549","","","","","clear_screen","null","null","","","critical","c","d","t","240","164","162.6685","237.1485","164","240","trueblood","0.02","h","164","240","240","164","162.6685","237.1485","39360","39360","38576.5967","dc","null","null","null","null","null","null","[2,1]","","",""
"","canvas-keyboard-response","20","92889","0.0-6.0-0.2","549","","","","","pre trial waiting period","null","null","","","critical","c","t","d","240","164","164","240","154.6796","220.0396","spektor","0.14","h","164","240","240","164","154.6796","220.0396","39360","39360","34035.6388","dc","null","null","null","null","null","null","[3,1]","521.4308916655316","110.84739423226951","496.43802163738866"
"","canvas-keyboard-response","21","92908","0.0-6.0-1.2","549","","","","","clear_screen","null","null","","","critical","c","t","d","240","164","164","240","154.6796","220.0396","spektor","0.14","h","164","240","240","164","154.6796","220.0396","39360","39360","34035.6388","dc","null","null","null","null","null","null","[3,1]","521.4308916655316","110.84739423226951","496.43802163738866"
"","canvas-keyboard-response","22","93414","0.0-6.0-2.2","549","","","","","rectangles no change","null","null","","","critical","c","t","d","240","164","164","240","154.6796","220.0396","spektor","0.14","h","164","240","240","164","154.6796","220.0396","39360","39360","34035.6388","dc","null","null","null","null","null","null","[3,1]","521.4308916655316","110.84739423226951","496.43802163738866"
"","canvas-keyboard-response","23","94746","0.0-6.0-3.2","549","","","","","rectangles with change","null","null","","","critical","c","t","d","240","164","164","240","154.6796","220.0396","spektor","0.14","h","164","240","240","164","154.6796","220.0396","39360","39360","34035.6388","dc","null","null","null","null","null","null","[3,1]","521.4308916655316","110.84739423226951","496.43802163738866"
"","canvas-keyboard-response","24","94765","0.0-6.0-4.2","549","","","","","clear_screen","null","null","","","critical","c","t","d","240","164","164","240","154.6796","220.0396","spektor","0.14","h","164","240","240","164","154.6796","220.0396","39360","39360","34035.6388","dc","null","null","null","null","null","null","[3,1]","521.4308916655316","110.84739423226951","496.43802163738866"
"","canvas-keyboard-response","25","96539","0.0-6.0-5.2","549","","","","","make choice","1766","1","","","critical","c","t","d","240","164","164","240","154.6796","220.0396","spektor","0.14","h","164","240","240","164","154.6796","220.0396","39360","39360","34035.6388","dc","null","null","null","null","null","null","[3,1]","","",""
"","canvas-keyboard-response","26","96557","0.0-6.0-6.2","549","","","","","clear_screen","null","null","","","critical","c","t","d","240","164","164","240","154.6796","220.0396","spektor","0.14","h","164","240","240","164","154.6796","220.0396","39360","39360","34035.6388","dc","null","null","null","null","null","null","[3,1]","","",""
"","canvas-keyboard-response","27","96759","0.0-6.0-0.3","549","","","","","pre trial waiting period","null","null","","","critical","t","d","c","240","164","232.8713","160.6713","164","240","trueblood","0.05","w","240","164","164","240","232.8713","160.6713","39360","39360","37415.7294","td","null","null","null","null","null","null","[1,2]","506.0049313576316","489.33786290121355","441.9298674986011"
"","canvas-keyboard-response","28","96779","0.0-6.0-1.3","549","","","","","clear_screen","null","null","","","critical","t","d","c","240","164","232.8713","160.6713","164","240","trueblood","0.05","w","240","164","164","240","232.8713","160.6713","39360","39360","37415.7294","td","null","null","null","null","null","null","[1,2]","506.0049313576316","489.33786290121355","441.9298674986011"
"","canvas-keyboard-response","29","97284","0.0-6.0-2.3","549","","","","","rectangles no change","null","null","","","critical","t","d","c","240","164","232.8713","160.6713","164","240","trueblood","0.05","w","240","164","164","240","232.8713","160.6713","39360","39360","37415.7294","td","null","null","null","null","null","null","[1,2]","506.0049313576316","489.33786290121355","441.9298674986011"
"","canvas-keyboard-response","30","98619","0.0-6.0-3.3","549","","","","","rectangles with change","null","null","","","critical","t","d","c","240","164","232.8713","160.6713","164","240","trueblood","0.05","w","240","164","164","240","232.8713","160.6713","39360","39360","37415.7294","td","null","null","null","null","null","null","[1,2]","506.0049313576316","489.33786290121355","441.9298674986011"
"","canvas-keyboard-response","31","98641","0.0-6.0-4.3","549","","","","","clear_screen","null","null","","","critical","t","d","c","240","164","232.8713","160.6713","164","240","trueblood","0.05","w","240","164","164","240","232.8713","160.6713","39360","39360","37415.7294","td","null","null","null","null","null","null","[1,2]","506.0049313576316","489.33786290121355","441.9298674986011"
"","canvas-keyboard-response","32","99514","0.0-6.0-5.3","549","","","","","make choice","868","1","","","critical","t","d","c","240","164","232.8713","160.6713","164","240","trueblood","0.05","w","240","164","164","240","232.8713","160.6713","39360","39360","37415.7294","td","null","null","null","null","null","null","[1,2]","","",""
"","canvas-keyboard-response","33","99532","0.0-6.0-6.3","549","","","","","clear_screen","null","null","","","critical","t","d","c","240","164","232.8713","160.6713","164","240","trueblood","0.05","w","240","164","164","240","232.8713","160.6713","39360","39360","37415.7294","td","null","null","null","null","null","null","[1,2]","","",""
"","canvas-keyboard-response","34","99733","0.0-6.0-0.4","549","","","","","pre trial waiting period","null","null","","","critical","c","t","d","240","164","164","240","158.0083","227.1683","spektor","0.09","h","164","240","240","164","158.0083","227.1683","39360","39360","35894.4834","td","null","null","null","null","null","null","[2,3]","512.1491270817229","116.87730447533745","483.3236192893452"
"","canvas-keyboard-response","35","99755","0.0-6.0-1.4","549","","","","","clear_screen","null","null","","","critical","c","t","d","240","164","164","240","158.0083","227.1683","spektor","0.09","h","164","240","240","164","158.0083","227.1683","39360","39360","35894.4834","td","null","null","null","null","null","null","[2,3]","512.1491270817229","116.87730447533745","483.3236192893452"
"","canvas-keyboard-response","36","100262","0.0-6.0-2.4","549","","","","","rectangles no change","null","null","","","critical","c","t","d","240","164","164","240","158.0083","227.1683","spektor","0.09","h","164","240","240","164","158.0083","227.1683","39360","39360","35894.4834","td","null","null","null","null","null","null","[2,3]","512.1491270817229","116.87730447533745","483.3236192893452"
"","canvas-keyboard-response","37","101597","0.0-6.0-3.4","549","","","","","rectangles with change","null","null","","","critical","c","t","d","240","164","164","240","158.0083","227.1683","spektor","0.09","h","164","240","240","164","158.0083","227.1683","39360","39360","35894.4834","td","null","null","null","null","null","null","[2,3]","512.1491270817229","116.87730447533745","483.3236192893452"
"","canvas-keyboard-response","38","101617","0.0-6.0-4.4","549","","","","","clear_screen","null","null","","","critical","c","t","d","240","164","164","240","158.0083","227.1683","spektor","0.09","h","164","240","240","164","158.0083","227.1683","39360","39360","35894.4834","td","null","null","null","null","null","null","[2,3]","512.1491270817229","116.87730447533745","483.3236192893452"
"","canvas-keyboard-response","39","102523","0.0-6.0-5.4","549","","","","","make choice","900","2","","","critical","c","t","d","240","164","164","240","158.0083","227.1683","spektor","0.09","h","164","240","240","164","158.0083","227.1683","39360","39360","35894.4834","td","null","null","null","null","null","null","[2,3]","","",""
"","canvas-keyboard-response","40","102543","0.0-6.0-6.4","549","","","","","clear_screen","null","null","","","critical","c","t","d","240","164","164","240","158.0083","227.1683","spektor","0.09","h","164","240","240","164","158.0083","227.1683","39360","39360","35894.4834","td","null","null","null","null","null","null","[2,3]","","",""
"","canvas-keyboard-response","41","102745","0.0-6.0-0.5","549","","","","","pre trial waiting period","null","null","","","critical","c","t","d","240","164","164","240","164","240","trueblood","0","h","164","240","240","164","164","240","39360","39360","39360","dc","null","null","null","null","null","null","[3,1]","476.8467386798501","450.1063627337271","419.9068264881904"
"","canvas-keyboard-response","42","102766","0.0-6.0-1.5","549","","","","","clear_screen","null","null","","","critical","c","t","d","240","164","164","240","164","240","trueblood","0","h","164","240","240","164","164","240","39360","39360","39360","dc","null","null","null","null","null","null","[3,1]","476.8467386798501","450.1063627337271","419.9068264881904"
"","canvas-keyboard-response","43","103277","0.0-6.0-2.5","549","","","","","rectangles no change","null","null","","","critical","c","t","d","240","164","164","240","164","240","trueblood","0","h","164","240","240","164","164","240","39360","39360","39360","dc","null","null","null","null","null","null","[3,1]","476.8467386798501","450.1063627337271","419.9068264881904"
"","canvas-keyboard-response","44","104615","0.0-6.0-3.5","549","","","","","rectangles with change","null","null","","","critical","c","t","d","240","164","164","240","164","240","trueblood","0","h","164","240","240","164","164","240","39360","39360","39360","dc","null","null","null","null","null","null","[3,1]","476.8467386798501","450.1063627337271","419.9068264881904"
"","canvas-keyboard-response","45","104635","0.0-6.0-4.5","549","","","","","clear_screen","null","null","","","critical","c","t","d","240","164","164","240","164","240","trueblood","0","h","164","240","240","164","164","240","39360","39360","39360","dc","null","null","null","null","null","null","[3,1]","476.8467386798501","450.1063627337271","419.9068264881904"
"","canvas-keyboard-response","46","105380","0.0-6.0-5.5","549","","","","","make choice","738","1","","","critical","c","t","d","240","164","164","240","164","240","trueblood","0","h","164","240","240","164","164","240","39360","39360","39360","dc","null","null","null","null","null","null","[3,1]","","",""
"","canvas-keyboard-response","47","105400","0.0-6.0-6.5","549","","","","","clear_screen","null","null","","","critical","c","t","d","240","164","164","240","164","240","trueblood","0","h","164","240","240","164","164","240","39360","39360","39360","dc","null","null","null","null","null","null","[3,1]","","",""
"","canvas-keyboard-response","48","105600","0.0-6.0-0.6","549","","","","","pre trial waiting period","null","null","","","catch","l","sh","sw","294","206","171","177","162","181","trueblood","null","null","null","null","null","null","null","null","null","null","null","","180","200","260","200","36000","52000","[1,3]","483.8661769739839","474.88144657043796","496.06224060059355"
"","canvas-keyboard-response","49","105620","0.0-6.0-1.6","549","","","","","clear_screen","null","null","","","catch","l","sh","sw","294","206","171","177","162","181","trueblood","null","null","null","null","null","null","null","null","null","null","null","","180","200","260","200","36000","52000","[1,3]","483.8661769739839","474.88144657043796","496.06224060059355"
"","canvas-keyboard-response","50","106129","0.0-6.0-2.6","549","","","","","rectangles no change","null","null","","","catch","l","sh","sw","294","206","171","177","162","181","trueblood","null","null","null","null","null","null","null","null","null","null","null","","180","200","260","200","36000","52000","[1,3]","483.8661769739839","474.88144657043796","496.06224060059355"
"","canvas-keyboard-response","51","107468","0.0-6.0-3.6","549","","","","","rectangles with change","null","null","","","catch","l","sh","sw","294","206","171","177","162","181","trueblood","null","null","null","null","null","null","null","null","null","null","null","","180","200","260","200","36000","52000","[1,3]","483.8661769739839","474.88144657043796","496.06224060059355"
"","canvas-keyboard-response","52","107489","0.0-6.0-4.6","549","","","","","clear_screen","null","null","","","catch","l","sh","sw","294","206","171","177","162","181","trueblood","null","null","null","null","null","null","null","null","null","null","null","","180","200","260","200","36000","52000","[1,3]","483.8661769739839","474.88144657043796","496.06224060059355"
"","canvas-keyboard-response","53","107924","0.0-6.0-5.6","549","","","","","make choice","428","1","","","catch","l","sh","sw","294","206","171","177","162","181","trueblood","null","null","null","null","null","null","null","null","null","null","null","","180","200","260","200","36000","52000","[1,3]","","",""
"","canvas-keyboard-response","54","107941","0.0-6.0-6.6","549","","","","","clear_screen","null","null","","","catch","l","sh","sw","294","206","171","177","162","181","trueblood","null","null","null","null","null","null","null","null","null","null","null","","180","200","260","200","36000","52000","[1,3]","","",""
"","canvas-keyboard-response","55","108143","0.0-6.0-0.7","549","","","","","pre trial waiting period","null","null","","","catch","l","sh","sw","240","173","202","212","206","173","trueblood","null","null","null","null","null","null","null","null","null","null","null","","180","200","260","200","36000","52000","[1,3]","512.3699275276658","464.0389058304539","502.2875485928807"
"","canvas-keyboard-response","56","108164","0.0-6.0-1.7","549","","","","","clear_screen","null","null","","","catch","l","sh","sw","240","173","202","212","206","173","trueblood","null","null","null","null","null","null","null","null","null","null","null","","180","200","260","200","36000","52000","[1,3]","512.3699275276658","464.0389058304539","502.2875485928807"
"","canvas-keyboard-response","57","108670","0.0-6.0-2.7","549","","","","","rectangles no change","null","null","","","catch","l","sh","sw","240","173","202","212","206","173","trueblood","null","null","null","null","null","null","null","null","null","null","null","","180","200","260","200","36000","52000","[1,3]","512.3699275276658","464.0389058304539","502.2875485928807"
"","canvas-keyboard-response","58","110004","0.0-6.0-3.7","549","","","","","rectangles with change","null","null","","","catch","l","sh","sw","240","173","202","212","206","173","trueblood","null","null","null","null","null","null","null","null","null","null","null","","180","200","260","200","36000","52000","[1,3]","512.3699275276658","464.0389058304539","502.2875485928807"
"","canvas-keyboard-response","59","110022","0.0-6.0-4.7","549","","","","","clear_screen","null","null","","","catch","l","sh","sw","240","173","202","212","206","173","trueblood","null","null","null","null","null","null","null","null","null","null","null","","180","200","260","200","36000","52000","[1,3]","512.3699275276658","464.0389058304539","502.2875485928807"
"","canvas-keyboard-response","60","110420","0.0-6.0-5.7","549","","","","","make choice","390","1","","","catch","l","sh","sw","240","173","202","212","206","173","trueblood","null","null","null","null","null","null","null","null","null","null","null","","180","200","260","200","36000","52000","[1,3]","","",""
"","canvas-keyboard-response","61","110439","0.0-6.0-6.7","549","","","","","clear_screen","null","null","","","catch","l","sh","sw","240","173","202","212","206","173","trueblood","null","null","null","null","null","null","null","null","null","null","null","","180","200","260","200","36000","52000","[1,3]","","",""
"","canvas-keyboard-response","62","110641","0.0-6.0-0.8","549","","","","","pre trial waiting period","null","null","","","critical","t","c","d","240","164","164","240","237.1485","162.6685","spektor","0.02","w","240","164","164","240","237.1485","162.6685","39360","39360","38576.5967","td","null","null","null","null","null","null","[1,3]","520.3088532438011","156.63685457173798","497.13048952795765"
"","canvas-keyboard-response","63","110662","0.0-6.0-1.8","549","","","","","clear_screen","null","null","","","critical","t","c","d","240","164","164","240","237.1485","162.6685","spektor","0.02","w","240","164","164","240","237.1485","162.6685","39360","39360","38576.5967","td","null","null","null","null","null","null","[1,3]","520.3088532438011","156.63685457173798","497.13048952795765"
"","canvas-keyboard-response","64","111168","0.0-6.0-2.8","549","","","","","rectangles no change","null","null","","","critical","t","c","d","240","164","164","240","237.1485","162.6685","spektor","0.02","w","240","164","164","240","237.1485","162.6685","39360","39360","38576.5967","td","null","null","null","null","null","null","[1,3]","520.3088532438011","156.63685457173798","497.13048952795765"
"","canvas-keyboard-response","65","112503","0.0-6.0-3.8","549","","","","","rectangles with change","null","null","","","critical","t","c","d","240","164","164","240","237.1485","162.6685","spektor","0.02","w","240","164","164","240","237.1485","162.6685","39360","39360","38576.5967","td","null","null","null","null","null","null","[1,3]","520.3088532438011","156.63685457173798","497.13048952795765"
"","canvas-keyboard-response","66","112524","0.0-6.0-4.8","549","","","","","clear_screen","null","null","","","critical","t","c","d","240","164","164","240","237.1485","162.6685","spektor","0.02","w","240","164","164","240","237.1485","162.6685","39360","39360","38576.5967","td","null","null","null","null","null","null","[1,3]","520.3088532438011","156.63685457173798","497.13048952795765"
"","canvas-keyboard-response","67","112940","0.0-6.0-5.8","549","","","","","make choice","407","1","","","critical","t","c","d","240","164","164","240","237.1485","162.6685","spektor","0.02","w","240","164","164","240","237.1485","162.6685","39360","39360","38576.5967","td","null","null","null","null","null","null","[1,3]","","",""
"","canvas-keyboard-response","68","112958","0.0-6.0-6.8","549","","","","","clear_screen","null","null","","","critical","t","c","d","240","164","164","240","237.1485","162.6685","spektor","0.02","w","240","164","164","240","237.1485","162.6685","39360","39360","38576.5967","td","null","null","null","null","null","null","[1,3]","","",""
"","canvas-keyboard-response","69","113159","0.0-6.0-0.9","549","","","","","pre trial waiting period","null","null","","","catch","l","sw","sh","283","232","189","197","180","194","trueblood","null","null","null","null","null","null","null","null","null","null","null","","180","200","260","200","36000","52000","[1,3]","472.78536400905404","449.0895364153349","452.3387221353817"
"","canvas-keyboard-response","70","113181","0.0-6.0-1.9","549","","","","","clear_screen","null","null","","","catch","l","sw","sh","283","232","189","197","180","194","trueblood","null","null","null","null","null","null","null","null","null","null","null","","180","200","260","200","36000","52000","[1,3]","472.78536400905404","449.0895364153349","452.3387221353817"
"","canvas-keyboard-response","71","113687","0.0-6.0-2.9","549","","","","","rectangles no change","null","null","","","catch","l","sw","sh","283","232","189","197","180","194","trueblood","null","null","null","null","null","null","null","null","null","null","null","","180","200","260","200","36000","52000","[1,3]","472.78536400905404","449.0895364153349","452.3387221353817"
"","canvas-keyboard-response","72","115022","0.0-6.0-3.9","549","","","","","rectangles with change","null","null","","","catch","l","sw","sh","283","232","189","197","180","194","trueblood","null","null","null","null","null","null","null","null","null","null","null","","180","200","260","200","36000","52000","[1,3]","472.78536400905404","449.0895364153349","452.3387221353817"
"","canvas-keyboard-response","73","115045","0.0-6.0-4.9","549","","","","","clear_screen","null","null","","","catch","l","sw","sh","283","232","189","197","180","194","trueblood","null","null","null","null","null","null","null","null","null","null","null","","180","200","260","200","36000","52000","[1,3]","472.78536400905404","449.0895364153349","452.3387221353817"
"","canvas-keyboard-response","74","115403","0.0-6.0-5.9","549","","","","","make choice","353","1","","","catch","l","sw","sh","283","232","189","197","180","194","trueblood","null","null","null","null","null","null","null","null","null","null","null","","180","200","260","200","36000","52000","[1,3]","","",""
"","canvas-keyboard-response","75","115423","0.0-6.0-6.9","549","","","","","clear_screen","null","null","","","catch","l","sw","sh","283","232","189","197","180","194","trueblood","null","null","null","null","null","null","null","null","null","null","null","","180","200","260","200","36000","52000","[1,3]","","",""
"","canvas-keyboard-response","76","115623","0.0-6.0-0.10","549","","","","","pre trial waiting period","null","null","","","catch","sw","sh","l","180","200","195","180","281","210","spektor","null","null","null","null","null","null","null","null","null","null","null","","180","200","260","200","36000","52000","[2,3]","512.1359409385763","163.17730847196387","511.2509352265273"
"","canvas-keyboard-response","77","115643","0.0-6.0-1.10","549","","","","","clear_screen","null","null","","","catch","sw","sh","l","180","200","195","180","281","210","spektor","null","null","null","null","null","null","null","null","null","null","null","","180","200","260","200","36000","52000","[2,3]","512.1359409385763","163.17730847196387","511.2509352265273"
"","canvas-keyboard-response","78","116149","0.0-6.0-2.10","549","","","","","rectangles no change","null","null","","","catch","sw","sh","l","180","200","195","180","281","210","spektor","null","null","null","null","null","null","null","null","null","null","null","","180","200","260","200","36000","52000","[2,3]","512.1359409385763","163.17730847196387","511.2509352265273"
"","canvas-keyboard-response","79","117485","0.0-6.0-3.10","549","","","","","rectangles with change","null","null","","","catch","sw","sh","l","180","200","195","180","281","210","spektor","null","null","null","null","null","null","null","null","null","null","null","","180","200","260","200","36000","52000","[2,3]","512.1359409385763","163.17730847196387","511.2509352265273"
"","canvas-keyboard-response","80","117506","0.0-6.0-4.10","549","","","","","clear_screen","null","null","","","catch","sw","sh","l","180","200","195","180","281","210","spektor","null","null","null","null","null","null","null","null","null","null","null","","180","200","260","200","36000","52000","[2,3]","512.1359409385763","163.17730847196387","511.2509352265273"
"","canvas-keyboard-response","81","117956","0.0-6.0-5.10","549","","","","","make choice","442","3","","","catch","sw","sh","l","180","200","195","180","281","210","spektor","null","null","null","null","null","null","null","null","null","null","null","","180","200","260","200","36000","52000","[2,3]","","",""
"","canvas-keyboard-response","82","117972","0.0-6.0-6.10","549","","","","","clear_screen","null","null","","","catch","sw","sh","l","180","200","195","180","281","210","spektor","null","null","null","null","null","null","null","null","null","null","null","","180","200","260","200","36000","52000","[2,3]","","",""
"","canvas-keyboard-response","83","118173","0.0-6.0-0.11","549","","","","","pre trial waiting period","null","null","","","critical","c","t","d","240","164","164","240","164","240","spektor","0","h","164","240","240","164","164","240","39360","39360","39360","dc","null","null","null","null","null","null","[3,1]","512.0604978220896","92.96438954332551","486.76815031802744"
"","canvas-keyboard-response","84","118192","0.0-6.0-1.11","549","","","","","clear_screen","null","null","","","critical","c","t","d","240","164","164","240","164","240","spektor","0","h","164","240","240","164","164","240","39360","39360","39360","dc","null","null","null","null","null","null","[3,1]","512.0604978220896","92.96438954332551","486.76815031802744"
"","canvas-keyboard-response","85","118700","0.0-6.0-2.11","549","","","","","rectangles no change","null","null","","","critical","c","t","d","240","164","164","240","164","240","spektor","0","h","164","240","240","164","164","240","39360","39360","39360","dc","null","null","null","null","null","null","[3,1]","512.0604978220896","92.96438954332551","486.76815031802744"
"","canvas-keyboard-response","86","120029","0.0-6.0-3.11","549","","","","","rectangles with change","null","null","","","critical","c","t","d","240","164","164","240","164","240","spektor","0","h","164","240","240","164","164","240","39360","39360","39360","dc","null","null","null","null","null","null","[3,1]","512.0604978220896","92.96438954332551","486.76815031802744"
"","canvas-keyboard-response","87","120049","0.0-6.0-4.11","549","","","","","clear_screen","null","null","","","critical","c","t","d","240","164","164","240","164","240","spektor","0","h","164","240","240","164","164","240","39360","39360","39360","dc","null","null","null","null","null","null","[3,1]","512.0604978220896","92.96438954332551","486.76815031802744"
"","canvas-keyboard-response","88","121356","0.0-6.0-5.11","549","","","","","make choice","1303","1","","","critical","c","t","d","240","164","164","240","164","240","spektor","0","h","164","240","240","164","164","240","39360","39360","39360","dc","null","null","null","null","null","null","[3,1]","","",""
"","canvas-keyboard-response","89","121375","0.0-6.0-6.11","549","","","","","clear_screen","null","null","","","critical","c","t","d","240","164","164","240","164","240","spektor","0","h","164","240","240","164","164","240","39360","39360","39360","dc","null","null","null","null","null","null","[3,1]","","",""
"","canvas-keyboard-response","90","121576","0.0-6.0-0.12","549","","","","","pre trial waiting period","null","null","","","critical","d","c","t","154.6796","220.0396","240","164","164","240","trueblood","0.14","h","164","240","240","164","154.6796","220.0396","39360","39360","34035.6388","dc","null","null","null","null","null","null","[1,2]","469.5360562309083","479.4215214041234","422.16041170727885"
"","canvas-keyboard-response","91","121595","0.0-6.0-1.12","549","","","","","clear_screen","null","null","","","critical","d","c","t","154.6796","220.0396","240","164","164","240","trueblood","0.14","h","164","240","240","164","154.6796","220.0396","39360","39360","34035.6388","dc","null","null","null","null","null","null","[1,2]","469.5360562309083","479.4215214041234","422.16041170727885"
"","canvas-keyboard-response","92","122105","0.0-6.0-2.12","549","","","","","rectangles no change","null","null","","","critical","d","c","t","154.6796","220.0396","240","164","164","240","trueblood","0.14","h","164","240","240","164","154.6796","220.0396","39360","39360","34035.6388","dc","null","null","null","null","null","null","[1,2]","469.5360562309083","479.4215214041234","422.16041170727885"
"","canvas-keyboard-response","93","123442","0.0-6.0-3.12","549","","","","","rectangles with change","null","null","","","critical","d","c","t","154.6796","220.0396","240","164","164","240","trueblood","0.14","h","164","240","240","164","154.6796","220.0396","39360","39360","34035.6388","dc","null","null","null","null","null","null","[1,2]","469.5360562309083","479.4215214041234","422.16041170727885"
"","canvas-keyboard-response","94","123462","0.0-6.0-4.12","549","","","","","clear_screen","null","null","","","critical","d","c","t","154.6796","220.0396","240","164","164","240","trueblood","0.14","h","164","240","240","164","154.6796","220.0396","39360","39360","34035.6388","dc","null","null","null","null","null","null","[1,2]","469.5360562309083","479.4215214041234","422.16041170727885"
"","canvas-keyboard-response","95","124427","0.0-6.0-5.12","549","","","","","make choice","961","2","","","critical","d","c","t","154.6796","220.0396","240","164","164","240","trueblood","0.14","h","164","240","240","164","154.6796","220.0396","39360","39360","34035.6388","dc","null","null","null","null","null","null","[1,2]","","",""
"","canvas-keyboard-response","96","124446","0.0-6.0-6.12","549","","","","","clear_screen","null","null","","","critical","d","c","t","154.6796","220.0396","240","164","164","240","trueblood","0.14","h","164","240","240","164","154.6796","220.0396","39360","39360","34035.6388","dc","null","null","null","null","null","null","[1,2]","","",""
"","canvas-keyboard-response","97","124648","0.0-6.0-0.13","549","","","","","pre trial waiting period","null","null","","","critical","c","d","t","164","240","232.8713","160.6713","240","164","trueblood","0.05","w","240","164","164","240","232.8713","160.6713","39360","39360","37415.7294","dc","null","null","null","null","null","null","[2,1]","425.13366464350065","498.54166224796705","514.3637899936854"
"","canvas-keyboard-response","98","124666","0.0-6.0-1.13","549","","","","","clear_screen","null","null","","","critical","c","d","t","164","240","232.8713","160.6713","240","164","trueblood","0.05","w","240","164","164","240","232.8713","160.6713","39360","39360","37415.7294","dc","null","null","null","null","null","null","[2,1]","425.13366464350065","498.54166224796705","514.3637899936854"
"","canvas-keyboard-response","99","125172","0.0-6.0-2.13","549","","","","","rectangles no change","null","null","","","critical","c","d","t","164","240","232.8713","160.6713","240","164","trueblood","0.05","w","240","164","164","240","232.8713","160.6713","39360","39360","37415.7294","dc","null","null","null","null","null","null","[2,1]","425.13366464350065","498.54166224796705","514.3637899936854"
"","canvas-keyboard-response","100","126511","0.0-6.0-3.13","549","","","","","rectangles with change","null","null","","","critical","c","d","t","164","240","232.8713","160.6713","240","164","trueblood","0.05","w","240","164","164","240","232.8713","160.6713","39360","39360","37415.7294","dc","null","null","null","null","null","null","[2,1]","425.13366464350065","498.54166224796705","514.3637899936854"
"","canvas-keyboard-response","101","126531","0.0-6.0-4.13","549","","","","","clear_screen","null","null","","","critical","c","d","t","164","240","232.8713","160.6713","240","164","trueblood","0.05","w","240","164","164","240","232.8713","160.6713","39360","39360","37415.7294","dc","null","null","null","null","null","null","[2,1]","425.13366464350065","498.54166224796705","514.3637899936854"
"","canvas-keyboard-response","102","128923","0.0-6.0-5.13","549","","","","","make choice","2388","1","","","critical","c","d","t","164","240","232.8713","160.6713","240","164","trueblood","0.05","w","240","164","164","240","232.8713","160.6713","39360","39360","37415.7294","dc","null","null","null","null","null","null","[2,1]","","",""
"","canvas-keyboard-response","103","128944","0.0-6.0-6.13","549","","","","","clear_screen","null","null","","","critical","c","d","t","164","240","232.8713","160.6713","240","164","trueblood","0.05","w","240","164","164","240","232.8713","160.6713","39360","39360","37415.7294","dc","null","null","null","null","null","null","[2,1]","","",""
"","canvas-keyboard-response","104","129145","0.0-6.0-0.14","549","","","","","pre trial waiting period","null","null","","","critical","d","c","t","220.0396","154.6796","164","240","240","164","spektor","0.14","w","240","164","164","240","220.0396","154.6796","39360","39360","34035.6388","dc","null","null","null","null","null","null","[1,2]","497.9868008742511","123.18047775890007","503.7264880182854"
"","canvas-keyboard-response","105","129164","0.0-6.0-1.14","549","","","","","clear_screen","null","null","","","critical","d","c","t","220.0396","154.6796","164","240","240","164","spektor","0.14","w","240","164","164","240","220.0396","154.6796","39360","39360","34035.6388","dc","null","null","null","null","null","null","[1,2]","497.9868008742511","123.18047775890007","503.7264880182854"
"","canvas-keyboard-response","106","129671","0.0-6.0-2.14","549","","","","","rectangles no change","null","null","","","critical","d","c","t","220.0396","154.6796","164","240","240","164","spektor","0.14","w","240","164","164","240","220.0396","154.6796","39360","39360","34035.6388","dc","null","null","null","null","null","null","[1,2]","497.9868008742511","123.18047775890007","503.7264880182854"
"","canvas-keyboard-response","107","131004","0.0-6.0-3.14","549","","","","","rectangles with change","null","null","","","critical","d","c","t","220.0396","154.6796","164","240","240","164","spektor","0.14","w","240","164","164","240","220.0396","154.6796","39360","39360","34035.6388","dc","null","null","null","null","null","null","[1,2]","497.9868008742511","123.18047775890007","503.7264880182854"
"","canvas-keyboard-response","108","131023","0.0-6.0-4.14","549","","","","","clear_screen","null","null","","","critical","d","c","t","220.0396","154.6796","164","240","240","164","spektor","0.14","w","240","164","164","240","220.0396","154.6796","39360","39360","34035.6388","dc","null","null","null","null","null","null","[1,2]","497.9868008742511","123.18047775890007","503.7264880182854"
"","canvas-keyboard-response","109","131355","0.0-6.0-5.14","549","","","","","make choice","328","1","","","critical","d","c","t","220.0396","154.6796","164","240","240","164","spektor","0.14","w","240","164","164","240","220.0396","154.6796","39360","39360","34035.6388","dc","null","null","null","null","null","null","[1,2]","","",""
"","canvas-keyboard-response","110","131374","0.0-6.0-6.14","549","","","","","clear_screen","null","null","","","critical","d","c","t","220.0396","154.6796","164","240","240","164","spektor","0.14","w","240","164","164","240","220.0396","154.6796","39360","39360","34035.6388","dc","null","null","null","null","null","null","[1,2]","","",""
"","canvas-keyboard-response","111","131575","0.0-6.0-0.15","549","","","","","pre trial waiting period","null","null","","","critical","d","c","t","227.1683","158.0083","164","240","240","164","trueblood","0.09","w","240","164","164","240","227.1683","158.0083","39360","39360","35894.4834","dc","null","null","null","null","null","null","[1,2]","510.5472735239583","423.53372153083126","469.7426181579426"
"","canvas-keyboard-response","112","131594","0.0-6.0-1.15","549","","","","","clear_screen","null","null","","","critical","d","c","t","227.1683","158.0083","164","240","240","164","trueblood","0.09","w","240","164","164","240","227.1683","158.0083","39360","39360","35894.4834","dc","null","null","null","null","null","null","[1,2]","510.5472735239583","423.53372153083126","469.7426181579426"
"","canvas-keyboard-response","113","132103","0.0-6.0-2.15","549","","","","","rectangles no change","null","null","","","critical","d","c","t","227.1683","158.0083","164","240","240","164","trueblood","0.09","w","240","164","164","240","227.1683","158.0083","39360","39360","35894.4834","dc","null","null","null","null","null","null","[1,2]","510.5472735239583","423.53372153083126","469.7426181579426"
"","canvas-keyboard-response","114","133442","0.0-6.0-3.15","549","","","","","rectangles with change","null","null","","","critical","d","c","t","227.1683","158.0083","164","240","240","164","trueblood","0.09","w","240","164","164","240","227.1683","158.0083","39360","39360","35894.4834","dc","null","null","null","null","null","null","[1,2]","510.5472735239583","423.53372153083126","469.7426181579426"
"","canvas-keyboard-response","115","133462","0.0-6.0-4.15","549","","","","","clear_screen","null","null","","","critical","d","c","t","227.1683","158.0083","164","240","240","164","trueblood","0.09","w","240","164","164","240","227.1683","158.0083","39360","39360","35894.4834","dc","null","null","null","null","null","null","[1,2]","510.5472735239583","423.53372153083126","469.7426181579426"
"","canvas-keyboard-response","116","133851","0.0-6.0-5.15","549","","","","","make choice","379","1","","","critical","d","c","t","227.1683","158.0083","164","240","240","164","trueblood","0.09","w","240","164","164","240","227.1683","158.0083","39360","39360","35894.4834","dc","null","null","null","null","null","null","[1,2]","","",""
"","canvas-keyboard-response","117","133869","0.0-6.0-6.15","549","","","","","clear_screen","null","null","","","critical","d","c","t","227.1683","158.0083","164","240","240","164","trueblood","0.09","w","240","164","164","240","227.1683","158.0083","39360","39360","35894.4834","dc","null","null","null","null","null","null","[1,2]","","",""
"","canvas-keyboard-response","118","134069","0.0-6.0-0.16","549","","","","","pre trial waiting period","null","null","","","critical","t","d","c","164","240","158.0083","227.1683","240","164","trueblood","0.09","h","164","240","240","164","158.0083","227.1683","39360","39360","35894.4834","dc","null","null","null","null","null","null","[2,3]","464.4761058374843","470.9707507915838","509.18468060326956"
"","canvas-keyboard-response","119","134090","0.0-6.0-1.16","549","","","","","clear_screen","null","null","","","critical","t","d","c","164","240","158.0083","227.1683","240","164","trueblood","0.09","h","164","240","240","164","158.0083","227.1683","39360","39360","35894.4834","dc","null","null","null","null","null","null","[2,3]","464.4761058374843","470.9707507915838","509.18468060326956"
"","canvas-keyboard-response","120","134595","0.0-6.0-2.16","549","","","","","rectangles no change","null","null","","","critical","t","d","c","164","240","158.0083","227.1683","240","164","trueblood","0.09","h","164","240","240","164","158.0083","227.1683","39360","39360","35894.4834","dc","null","null","null","null","null","null","[2,3]","464.4761058374843","470.9707507915838","509.18468060326956"
"","canvas-keyboard-response","121","135930","0.0-6.0-3.16","549","","","","","rectangles with change","null","null","","","critical","t","d","c","164","240","158.0083","227.1683","240","164","trueblood","0.09","h","164","240","240","164","158.0083","227.1683","39360","39360","35894.4834","dc","null","null","null","null","null","null","[2,3]","464.4761058374843","470.9707507915838","509.18468060326956"
"","canvas-keyboard-response","122","135952","0.0-6.0-4.16","549","","","","","clear_screen","null","null","","","critical","t","d","c","164","240","158.0083","227.1683","240","164","trueblood","0.09","h","164","240","240","164","158.0083","227.1683","39360","39360","35894.4834","dc","null","null","null","null","null","null","[2,3]","464.4761058374843","470.9707507915838","509.18468060326956"
"","canvas-keyboard-response","123","136923","0.0-6.0-5.16","549","","","","","make choice","967","3","","","critical","t","d","c","164","240","158.0083","227.1683","240","164","trueblood","0.09","h","164","240","240","164","158.0083","227.1683","39360","39360","35894.4834","dc","null","null","null","null","null","null","[2,3]","","",""
"","canvas-keyboard-response","124","136942","0.0-6.0-6.16","549","","","","","clear_screen","null","null","","","critical","t","d","c","164","240","158.0083","227.1683","240","164","trueblood","0.09","h","164","240","240","164","158.0083","227.1683","39360","39360","35894.4834","dc","null","null","null","null","null","null","[2,3]","","",""
"","canvas-keyboard-response","125","137143","0.0-6.0-0.17","549","","","","","pre trial waiting period","null","null","","","critical","d","t","c","154.6796","220.0396","164","240","240","164","spektor","0.14","h","164","240","240","164","154.6796","220.0396","39360","39360","34035.6388","tc","null","null","null","null","null","null","[2,3]","486.7597993034338","133.68105275457913","533.6643084328352"
"","canvas-keyboard-response","126","137162","0.0-6.0-1.17","549","","","","","clear_screen","null","null","","","critical","d","t","c","154.6796","220.0396","164","240","240","164","spektor","0.14","h","164","240","240","164","154.6796","220.0396","39360","39360","34035.6388","tc","null","null","null","null","null","null","[2,3]","486.7597993034338","133.68105275457913","533.6643084328352"
"","canvas-keyboard-response","127","137670","0.0-6.0-2.17","549","","","","","rectangles no change","null","null","","","critical","d","t","c","154.6796","220.0396","164","240","240","164","spektor","0.14","h","164","240","240","164","154.6796","220.0396","39360","39360","34035.6388","tc","null","null","null","null","null","null","[2,3]","486.7597993034338","133.68105275457913","533.6643084328352"
"","canvas-keyboard-response","128","139009","0.0-6.0-3.17","549","","","","","rectangles with change","null","null","","","critical","d","t","c","154.6796","220.0396","164","240","240","164","spektor","0.14","h","164","240","240","164","154.6796","220.0396","39360","39360","34035.6388","tc","null","null","null","null","null","null","[2,3]","486.7597993034338","133.68105275457913","533.6643084328352"
"","canvas-keyboard-response","129","139027","0.0-6.0-4.17","549","","","","","clear_screen","null","null","","","critical","d","t","c","154.6796","220.0396","164","240","240","164","spektor","0.14","h","164","240","240","164","154.6796","220.0396","39360","39360","34035.6388","tc","null","null","null","null","null","null","[2,3]","486.7597993034338","133.68105275457913","533.6643084328352"
"","canvas-keyboard-response","130","139410","0.0-6.0-5.17","549","","","","","make choice","376","3","","","critical","d","t","c","154.6796","220.0396","164","240","240","164","spektor","0.14","h","164","240","240","164","154.6796","220.0396","39360","39360","34035.6388","tc","null","null","null","null","null","null","[2,3]","","",""
"","canvas-keyboard-response","131","139427","0.0-6.0-6.17","549","","","","","clear_screen","null","null","","","critical","d","t","c","154.6796","220.0396","164","240","240","164","spektor","0.14","h","164","240","240","164","154.6796","220.0396","39360","39360","34035.6388","tc","null","null","null","null","null","null","[2,3]","","",""
"","canvas-keyboard-response","132","139628","0.0-6.0-0.18","549","","","","","pre trial waiting period","null","null","","","critical","t","c","d","164","240","240","164","160.6713","232.8713","spektor","0.05","h","164","240","240","164","160.6713","232.8713","39360","39360","37415.7294","tc","null","null","null","null","null","null","[1,2]","484.3680704703585","175.47382510086683","470.12249242952066"
"","canvas-keyboard-response","133","139650","0.0-6.0-1.18","549","","","","","clear_screen","null","null","","","critical","t","c","d","164","240","240","164","160.6713","232.8713","spektor","0.05","h","164","240","240","164","160.6713","232.8713","39360","39360","37415.7294","tc","null","null","null","null","null","null","[1,2]","484.3680704703585","175.47382510086683","470.12249242952066"
"","canvas-keyboard-response","134","140157","0.0-6.0-2.18","549","","","","","rectangles no change","null","null","","","critical","t","c","d","164","240","240","164","160.6713","232.8713","spektor","0.05","h","164","240","240","164","160.6713","232.8713","39360","39360","37415.7294","tc","null","null","null","null","null","null","[1,2]","484.3680704703585","175.47382510086683","470.12249242952066"
"","canvas-keyboard-response","135","141495","0.0-6.0-3.18","549","","","","","rectangles with change","null","null","","","critical","t","c","d","164","240","240","164","160.6713","232.8713","spektor","0.05","h","164","240","240","164","160.6713","232.8713","39360","39360","37415.7294","tc","null","null","null","null","null","null","[1,2]","484.3680704703585","175.47382510086683","470.12249242952066"
"","canvas-keyboard-response","136","141518","0.0-6.0-4.18","549","","","","","clear_screen","null","null","","","critical","t","c","d","164","240","240","164","160.6713","232.8713","spektor","0.05","h","164","240","240","164","160.6713","232.8713","39360","39360","37415.7294","tc","null","null","null","null","null","null","[1,2]","484.3680704703585","175.47382510086683","470.12249242952066"
"","canvas-keyboard-response","137","142499","0.0-6.0-5.18","549","","","","","make choice","976","2","","","critical","t","c","d","164","240","240","164","160.6713","232.8713","spektor","0.05","h","164","240","240","164","160.6713","232.8713","39360","39360","37415.7294","tc","null","null","null","null","null","null","[1,2]","","",""
"","canvas-keyboard-response","138","142519","0.0-6.0-6.18","549","","","","","clear_screen","null","null","","","critical","t","c","d","164","240","240","164","160.6713","232.8713","spektor","0.05","h","164","240","240","164","160.6713","232.8713","39360","39360","37415.7294","tc","null","null","null","null","null","null","[1,2]","","",""
"","canvas-keyboard-response","139","142719","0.0-6.0-0.19","549","","","","","pre trial waiting period","null","null","","","critical","d","t","c","164","240","164","240","240","164","spektor","0","h","164","240","240","164","164","240","39360","39360","39360","tc","null","null","null","null","null","null","[2,3]","457.90480554556626","121.67603759588641","530.3751119173528"
"","canvas-keyboard-response","140","142740","0.0-6.0-1.19","549","","","","","clear_screen","null","null","","","critical","d","t","c","164","240","164","240","240","164","spektor","0","h","164","240","240","164","164","240","39360","39360","39360","tc","null","null","null","null","null","null","[2,3]","457.90480554556626","121.67603759588641","530.3751119173528"
"","canvas-keyboard-response","141","143248","0.0-6.0-2.19","549","","","","","rectangles no change","null","null","","","critical","d","t","c","164","240","164","240","240","164","spektor","0","h","164","240","240","164","164","240","39360","39360","39360","tc","null","null","null","null","null","null","[2,3]","457.90480554556626","121.67603759588641","530.3751119173528"
"","canvas-keyboard-response","142","144586","0.0-6.0-3.19","549","","","","","rectangles with change","null","null","","","critical","d","t","c","164","240","164","240","240","164","spektor","0","h","164","240","240","164","164","240","39360","39360","39360","tc","null","null","null","null","null","null","[2,3]","457.90480554556626","121.67603759588641","530.3751119173528"
"","canvas-keyboard-response","143","144608","0.0-6.0-4.19","549","","","","","clear_screen","null","null","","","critical","d","t","c","164","240","164","240","240","164","spektor","0","h","164","240","240","164","164","240","39360","39360","39360","tc","null","null","null","null","null","null","[2,3]","457.90480554556626","121.67603759588641","530.3751119173528"
"","canvas-keyboard-response","144","145100","0.0-6.0-5.19","549","","","","","make choice","487","3","","","critical","d","t","c","164","240","164","240","240","164","spektor","0","h","164","240","240","164","164","240","39360","39360","39360","tc","null","null","null","null","null","null","[2,3]","","",""
"","canvas-keyboard-response","145","145117","0.0-6.0-6.19","549","","","","","clear_screen","null","null","","","critical","d","t","c","164","240","164","240","240","164","spektor","0","h","164","240","240","164","164","240","39360","39360","39360","tc","null","null","null","null","null","null","[2,3]","","",""
"","canvas-keyboard-response","146","145317","0.0-6.0-0.20","549","","","","","pre trial waiting period","null","null","","","catch","l","sw","sh","276","215","188","220","229","187","trueblood","null","null","null","null","null","null","null","null","null","null","null","","180","200","260","200","36000","52000","[1,3]","440.83646565759454","460.65840580255275","493.97408421652443"
"","canvas-keyboard-response","147","145340","0.0-6.0-1.20","549","","","","","clear_screen","null","null","","","catch","l","sw","sh","276","215","188","220","229","187","trueblood","null","null","null","null","null","null","null","null","null","null","null","","180","200","260","200","36000","52000","[1,3]","440.83646565759454","460.65840580255275","493.97408421652443"
"","canvas-keyboard-response","148","145843","0.0-6.0-2.20","549","","","","","rectangles no change","null","null","","","catch","l","sw","sh","276","215","188","220","229","187","trueblood","null","null","null","null","null","null","null","null","null","null","null","","180","200","260","200","36000","52000","[1,3]","440.83646565759454","460.65840580255275","493.97408421652443"
"","canvas-keyboard-response","149","147178","0.0-6.0-3.20","549","","","","","rectangles with change","null","null","","","catch","l","sw","sh","276","215","188","220","229","187","trueblood","null","null","null","null","null","null","null","null","null","null","null","","180","200","260","200","36000","52000","[1,3]","440.83646565759454","460.65840580255275","493.97408421652443"
"","canvas-keyboard-response","150","147201","0.0-6.0-4.20","549","","","","","clear_screen","null","null","","","catch","l","sw","sh","276","215","188","220","229","187","trueblood","null","null","null","null","null","null","null","null","null","null","null","","180","200","260","200","36000","52000","[1,3]","440.83646565759454","460.65840580255275","493.97408421652443"
"","canvas-keyboard-response","151","147636","0.0-6.0-5.20","549","","","","","make choice","428","1","","","catch","l","sw","sh","276","215","188","220","229","187","trueblood","null","null","null","null","null","null","null","null","null","null","null","","180","200","260","200","36000","52000","[1,3]","","",""
"","canvas-keyboard-response","152","147654","0.0-6.0-6.20","549","","","","","clear_screen","null","null","","","catch","l","sw","sh","276","215","188","220","229","187","trueblood","null","null","null","null","null","null","null","null","null","null","null","","180","200","260","200","36000","52000","[1,3]","","",""
"","canvas-keyboard-response","153","147855","0.0-6.0-0.21","549","","","","","pre trial waiting period","null","null","","","critical","d","t","c","240","164","240","164","164","240","spektor","0","w","240","164","164","240","240","164","39360","39360","39360","dc","null","null","null","null","null","null","[1,3]","500.52749686253435","172.78169505406913","486.75542389292355"
"","canvas-keyboard-response","154","147876","0.0-6.0-1.21","549","","","","","clear_screen","null","null","","","critical","d","t","c","240","164","240","164","164","240","spektor","0","w","240","164","164","240","240","164","39360","39360","39360","dc","null","null","null","null","null","null","[1,3]","500.52749686253435","172.78169505406913","486.75542389292355"
"","canvas-keyboard-response","155","148380","0.0-6.0-2.21","549","","","","","rectangles no change","null","null","","","critical","d","t","c","240","164","240","164","164","240","spektor","0","w","240","164","164","240","240","164","39360","39360","39360","dc","null","null","null","null","null","null","[1,3]","500.52749686253435","172.78169505406913","486.75542389292355"
"","canvas-keyboard-response","156","149717","0.0-6.0-3.21","549","","","","","rectangles with change","null","null","","","critical","d","t","c","240","164","240","164","164","240","spektor","0","w","240","164","164","240","240","164","39360","39360","39360","dc","null","null","null","null","null","null","[1,3]","500.52749686253435","172.78169505406913","486.75542389292355"
"","canvas-keyboard-response","157","149736","0.0-6.0-4.21","549","","","","","clear_screen","null","null","","","critical","d","t","c","240","164","240","164","164","240","spektor","0","w","240","164","164","240","240","164","39360","39360","39360","dc","null","null","null","null","null","null","[1,3]","500.52749686253435","172.78169505406913","486.75542389292355"
"","canvas-keyboard-response","158","150132","0.0-6.0-5.21","549","","","","","make choice","390","1","","","critical","d","t","c","240","164","240","164","164","240","spektor","0","w","240","164","164","240","240","164","39360","39360","39360","dc","null","null","null","null","null","null","[1,3]","","",""
"","canvas-keyboard-response","159","150154","0.0-6.0-6.21","549","","","","","clear_screen","null","null","","","critical","d","t","c","240","164","240","164","164","240","spektor","0","w","240","164","164","240","240","164","39360","39360","39360","dc","null","null","null","null","null","null","[1,3]","","",""
"","canvas-keyboard-response","160","150355","0.0-6.0-0.22","549","","","","","pre trial waiting period","null","null","","","critical","t","d","c","164","240","162.6685","237.1485","240","164","trueblood","0.02","h","164","240","240","164","162.6685","237.1485","39360","39360","38576.5967","tc","null","null","null","null","null","null","[1,3]","424.6495548108114","436.6604646826898","491.7006511500247"
"","canvas-keyboard-response","161","150373","0.0-6.0-1.22","549","","","","","clear_screen","null","null","","","critical","t","d","c","164","240","162.6685","237.1485","240","164","trueblood","0.02","h","164","240","240","164","162.6685","237.1485","39360","39360","38576.5967","tc","null","null","null","null","null","null","[1,3]","424.6495548108114","436.6604646826898","491.7006511500247"
"","canvas-keyboard-response","162","150880","0.0-6.0-2.22","549","","","","","rectangles no change","null","null","","","critical","t","d","c","164","240","162.6685","237.1485","240","164","trueblood","0.02","h","164","240","240","164","162.6685","237.1485","39360","39360","38576.5967","tc","null","null","null","null","null","null","[1,3]","424.6495548108114","436.6604646826898","491.7006511500247"
"","canvas-keyboard-response","163","152217","0.0-6.0-3.22","549","","","","","rectangles with change","null","null","","","critical","t","d","c","164","240","162.6685","237.1485","240","164","trueblood","0.02","h","164","240","240","164","162.6685","237.1485","39360","39360","38576.5967","tc","null","null","null","null","null","null","[1,3]","424.6495548108114","436.6604646826898","491.7006511500247"
"","canvas-keyboard-response","164","152239","0.0-6.0-4.22","549","","","","","clear_screen","null","null","","","critical","t","d","c","164","240","162.6685","237.1485","240","164","trueblood","0.02","h","164","240","240","164","162.6685","237.1485","39360","39360","38576.5967","tc","null","null","null","null","null","null","[1,3]","424.6495548108114","436.6604646826898","491.7006511500247"
"","canvas-keyboard-response","165","153004","0.0-6.0-5.22","549","","","","","make choice","758","3","","","critical","t","d","c","164","240","162.6685","237.1485","240","164","trueblood","0.02","h","164","240","240","164","162.6685","237.1485","39360","39360","38576.5967","tc","null","null","null","null","null","null","[1,3]","","",""
"","canvas-keyboard-response","166","153024","0.0-6.0-6.22","549","","","","","clear_screen","null","null","","","critical","t","d","c","164","240","162.6685","237.1485","240","164","trueblood","0.02","h","164","240","240","164","162.6685","237.1485","39360","39360","38576.5967","tc","null","null","null","null","null","null","[1,3]","","",""
"","canvas-keyboard-response","167","153226","0.0-6.0-0.23","549","","","","","pre trial waiting period","null","null","","","catch","sw","sh","l","180","200","226","155","292","219","spektor","null","null","null","null","null","null","null","null","null","null","null","","180","200","260","200","36000","52000","[2,3]","492.1808060082342","184.95750667298108","478.8601464015456"
"","canvas-keyboard-response","168","153247","0.0-6.0-1.23","549","","","","","clear_screen","null","null","","","catch","sw","sh","l","180","200","226","155","292","219","spektor","null","null","null","null","null","null","null","null","null","null","null","","180","200","260","200","36000","52000","[2,3]","492.1808060082342","184.95750667298108","478.8601464015456"
"","canvas-keyboard-response","169","153756","0.0-6.0-2.23","549","","","","","rectangles no change","null","null","","","catch","sw","sh","l","180","200","226","155","292","219","spektor","null","null","null","null","null","null","null","null","null","null","null","","180","200","260","200","36000","52000","[2,3]","492.1808060082342","184.95750667298108","478.8601464015456"
"","canvas-keyboard-response","170","155094","0.0-6.0-3.23","549","","","","","rectangles with change","null","null","","","catch","sw","sh","l","180","200","226","155","292","219","spektor","null","null","null","null","null","null","null","null","null","null","null","","180","200","260","200","36000","52000","[2,3]","492.1808060082342","184.95750667298108","478.8601464015456"
"","canvas-keyboard-response","171","155117","0.0-6.0-4.23","549","","","","","clear_screen","null","null","","","catch","sw","sh","l","180","200","226","155","292","219","spektor","null","null","null","null","null","null","null","null","null","null","null","","180","200","260","200","36000","52000","[2,3]","492.1808060082342","184.95750667298108","478.8601464015456"
"","canvas-keyboard-response","172","155507","0.0-6.0-5.23","549","","","","","make choice","383","3","","","catch","sw","sh","l","180","200","226","155","292","219","spektor","null","null","null","null","null","null","null","null","null","null","null","","180","200","260","200","36000","52000","[2,3]","","",""
"","canvas-keyboard-response","173","155525","0.0-6.0-6.23","549","","","","","clear_screen","null","null","","","catch","sw","sh","l","180","200","226","155","292","219","spektor","null","null","null","null","null","null","null","null","null","null","null","","180","200","260","200","36000","52000","[2,3]","","",""
"","canvas-keyboard-response","174","155728","0.0-6.0-0.24","549","","","","","pre trial waiting period","null","null","","","catch","l","sw","sh","292","208","210","206","161","199","trueblood","null","null","null","null","null","null","null","null","null","null","null","","180","200","260","200","36000","52000","[1,2]","468.9292337829242","490.0769967707005","480.8779655560019"
"","canvas-keyboard-response","175","155747","0.0-6.0-1.24","549","","","","","clear_screen","null","null","","","catch","l","sw","sh","292","208","210","206","161","199","trueblood","null","null","null","null","null","null","null","null","null","null","null","","180","200","260","200","36000","52000","[1,2]","468.9292337829242","490.0769967707005","480.8779655560019"
"","canvas-keyboard-response","176","156256","0.0-6.0-2.24","549","","","","","rectangles no change","null","null","","","catch","l","sw","sh","292","208","210","206","161","199","trueblood","null","null","null","null","null","null","null","null","null","null","null","","180","200","260","200","36000","52000","[1,2]","468.9292337829242","490.0769967707005","480.8779655560019"
"","canvas-keyboard-response","177","157592","0.0-6.0-3.24","549","","","","","rectangles with change","null","null","","","catch","l","sw","sh","292","208","210","206","161","199","trueblood","null","null","null","null","null","null","null","null","null","null","null","","180","200","260","200","36000","52000","[1,2]","468.9292337829242","490.0769967707005","480.8779655560019"
"","canvas-keyboard-response","178","157613","0.0-6.0-4.24","549","","","","","clear_screen","null","null","","","catch","l","sw","sh","292","208","210","206","161","199","trueblood","null","null","null","null","null","null","null","null","null","null","null","","180","200","260","200","36000","52000","[1,2]","468.9292337829242","490.0769967707005","480.8779655560019"
"","canvas-keyboard-response","179","158003","0.0-6.0-5.24","549","","","","","make choice","385","1","","","catch","l","sw","sh","292","208","210","206","161","199","trueblood","null","null","null","null","null","null","null","null","null","null","null","","180","200","260","200","36000","52000","[1,2]","","",""
"","canvas-keyboard-response","180","158023","0.0-6.0-6.24","549","","","","","clear_screen","null","null","","","catch","l","sw","sh","292","208","210","206","161","199","trueblood","null","null","null","null","null","null","null","null","null","null","null","","180","200","260","200","36000","52000","[1,2]","","",""
"","canvas-keyboard-response","181","158224","0.0-6.0-0.25","549","","","","","pre trial waiting period","null","null","","","catch","sh","l","sw","238","191","289","177","208","207","trueblood","null","null","null","null","null","null","null","null","null","null","null","","180","200","260","200","36000","52000","[2,3]","499.39589247706385","502.0085885651683","465.39211303891136"
"","canvas-keyboard-response","182","158246","0.0-6.0-1.25","549","","","","","clear_screen","null","null","","","catch","sh","l","sw","238","191","289","177","208","207","trueblood","null","null","null","null","null","null","null","null","null","null","null","","180","200","260","200","36000","52000","[2,3]","499.39589247706385","502.0085885651683","465.39211303891136"
"","canvas-keyboard-response","183","158752","0.0-6.0-2.25","549","","","","","rectangles no change","null","null","","","catch","sh","l","sw","238","191","289","177","208","207","trueblood","null","null","null","null","null","null","null","null","null","null","null","","180","200","260","200","36000","52000","[2,3]","499.39589247706385","502.0085885651683","465.39211303891136"
"","canvas-keyboard-response","184","160088","0.0-6.0-3.25","549","","","","","rectangles with change","null","null","","","catch","sh","l","sw","238","191","289","177","208","207","trueblood","null","null","null","null","null","null","null","null","null","null","null","","180","200","260","200","36000","52000","[2,3]","499.39589247706385","502.0085885651683","465.39211303891136"
"","canvas-keyboard-response","185","160108","0.0-6.0-4.25","549","","","","","clear_screen","null","null","","","catch","sh","l","sw","238","191","289","177","208","207","trueblood","null","null","null","null","null","null","null","null","null","null","null","","180","200","260","200","36000","52000","[2,3]","499.39589247706385","502.0085885651683","465.39211303891136"
"","canvas-keyboard-response","186","160580","0.0-6.0-5.25","549","","","","","make choice","466","2","","","catch","sh","l","sw","238","191","289","177","208","207","trueblood","null","null","null","null","null","null","null","null","null","null","null","","180","200","260","200","36000","52000","[2,3]","","",""
"","canvas-keyboard-response","187","160598","0.0-6.0-6.25","549","","","","","clear_screen","null","null","","","catch","sh","l","sw","238","191","289","177","208","207","trueblood","null","null","null","null","null","null","null","null","null","null","null","","180","200","260","200","36000","52000","[2,3]","","",""
"","canvas-keyboard-response","188","160799","0.0-6.0-0.26","549","","","","","pre trial waiting period","null","null","","","critical","c","d","t","240","164","162.6685","237.1485","164","240","spektor","0.02","h","164","240","240","164","162.6685","237.1485","39360","39360","38576.5967","dc","null","null","null","null","null","null","[2,1]","519.4796998432828","100.307796901519","472.15936927903937"
"","canvas-keyboard-response","189","160819","0.0-6.0-1.26","549","","","","","clear_screen","null","null","","","critical","c","d","t","240","164","162.6685","237.1485","164","240","spektor","0.02","h","164","240","240","164","162.6685","237.1485","39360","39360","38576.5967","dc","null","null","null","null","null","null","[2,1]","519.4796998432828","100.307796901519","472.15936927903937"
"","canvas-keyboard-response","190","161334","0.0-6.0-2.26","549","","","","","rectangles no change","null","null","","","critical","c","d","t","240","164","162.6685","237.1485","164","240","spektor","0.02","h","164","240","240","164","162.6685","237.1485","39360","39360","38576.5967","dc","null","null","null","null","null","null","[2,1]","519.4796998432828","100.307796901519","472.15936927903937"
"","canvas-keyboard-response","191","162669","0.0-6.0-3.26","549","","","","","rectangles with change","null","null","","","critical","c","d","t","240","164","162.6685","237.1485","164","240","spektor","0.02","h","164","240","240","164","162.6685","237.1485","39360","39360","38576.5967","dc","null","null","null","null","null","null","[2,1]","519.4796998432828","100.307796901519","472.15936927903937"
"","canvas-keyboard-response","192","162691","0.0-6.0-4.26","549","","","","","clear_screen","null","null","","","critical","c","d","t","240","164","162.6685","237.1485","164","240","spektor","0.02","h","164","240","240","164","162.6685","237.1485","39360","39360","38576.5967","dc","null","null","null","null","null","null","[2,1]","519.4796998432828","100.307796901519","472.15936927903937"
"","canvas-keyboard-response","193","163092","0.0-6.0-5.26","549","","","","","make choice","395","1","","","critical","c","d","t","240","164","162.6685","237.1485","164","240","spektor","0.02","h","164","240","240","164","162.6685","237.1485","39360","39360","38576.5967","dc","null","null","null","null","null","null","[2,1]","","",""
"","canvas-keyboard-response","194","163110","0.0-6.0-6.26","549","","","","","clear_screen","null","null","","","critical","c","d","t","240","164","162.6685","237.1485","164","240","spektor","0.02","h","164","240","240","164","162.6685","237.1485","39360","39360","38576.5967","dc","null","null","null","null","null","null","[2,1]","","",""
"","canvas-keyboard-response","195","163311","0.0-6.0-0.27","549","","","","","pre trial waiting period","null","null","","","critical","d","c","t","232.8713","160.6713","164","240","240","164","trueblood","0.05","w","240","164","164","240","232.8713","160.6713","39360","39360","37415.7294","tc","null","null","null","null","null","null","[3,2]","499.9205074591448","444.37361794495916","488.22327211825905"
"","canvas-keyboard-response","196","163330","0.0-6.0-1.27","549","","","","","clear_screen","null","null","","","critical","d","c","t","232.8713","160.6713","164","240","240","164","trueblood","0.05","w","240","164","164","240","232.8713","160.6713","39360","39360","37415.7294","tc","null","null","null","null","null","null","[3,2]","499.9205074591448","444.37361794495916","488.22327211825905"
"","canvas-keyboard-response","197","163837","0.0-6.0-2.27","549","","","","","rectangles no change","null","null","","","critical","d","c","t","232.8713","160.6713","164","240","240","164","trueblood","0.05","w","240","164","164","240","232.8713","160.6713","39360","39360","37415.7294","tc","null","null","null","null","null","null","[3,2]","499.9205074591448","444.37361794495916","488.22327211825905"
"","canvas-keyboard-response","198","165174","0.0-6.0-3.27","549","","","","","rectangles with change","null","null","","","critical","d","c","t","232.8713","160.6713","164","240","240","164","trueblood","0.05","w","240","164","164","240","232.8713","160.6713","39360","39360","37415.7294","tc","null","null","null","null","null","null","[3,2]","499.9205074591448","444.37361794495916","488.22327211825905"
"","canvas-keyboard-response","199","165194","0.0-6.0-4.27","549","","","","","clear_screen","null","null","","","critical","d","c","t","232.8713","160.6713","164","240","240","164","trueblood","0.05","w","240","164","164","240","232.8713","160.6713","39360","39360","37415.7294","tc","null","null","null","null","null","null","[3,2]","499.9205074591448","444.37361794495916","488.22327211825905"
"","canvas-keyboard-response","200","166524","0.0-6.0-5.27","549","","","","","make choice","1326","3","","","critical","d","c","t","232.8713","160.6713","164","240","240","164","trueblood","0.05","w","240","164","164","240","232.8713","160.6713","39360","39360","37415.7294","tc","null","null","null","null","null","null","[3,2]","","",""
"","canvas-keyboard-response","201","166541","0.0-6.0-6.27","549","","","","","clear_screen","null","null","","","critical","d","c","t","232.8713","160.6713","164","240","240","164","trueblood","0.05","w","240","164","164","240","232.8713","160.6713","39360","39360","37415.7294","tc","null","null","null","null","null","null","[3,2]","","",""
"","canvas-keyboard-response","202","166742","0.0-6.0-0.28","549","","","","","pre trial waiting period","null","null","","","catch","sh","l","sw","191","142","214","272","212","181","trueblood","null","null","null","null","null","null","null","null","null","null","null","","180","200","260","200","36000","52000","[1,2]","487.158683888392","440.82821970081824","497.57628564392775"
"","canvas-keyboard-response","203","166760","0.0-6.0-1.28","549","","","","","clear_screen","null","null","","","catch","sh","l","sw","191","142","214","272","212","181","trueblood","null","null","null","null","null","null","null","null","null","null","null","","180","200","260","200","36000","52000","[1,2]","487.158683888392","440.82821970081824","497.57628564392775"
"","canvas-keyboard-response","204","167268","0.0-6.0-2.28","549","","","","","rectangles no change","null","null","","","catch","sh","l","sw","191","142","214","272","212","181","trueblood","null","null","null","null","null","null","null","null","null","null","null","","180","200","260","200","36000","52000","[1,2]","487.158683888392","440.82821970081824","497.57628564392775"
"","canvas-keyboard-response","205","168602","0.0-6.0-3.28","549","","","","","rectangles with change","null","null","","","catch","sh","l","sw","191","142","214","272","212","181","trueblood","null","null","null","null","null","null","null","null","null","null","null","","180","200","260","200","36000","52000","[1,2]","487.158683888392","440.82821970081824","497.57628564392775"
"","canvas-keyboard-response","206","168622","0.0-6.0-4.28","549","","","","","clear_screen","null","null","","","catch","sh","l","sw","191","142","214","272","212","181","trueblood","null","null","null","null","null","null","null","null","null","null","null","","180","200","260","200","36000","52000","[1,2]","487.158683888392","440.82821970081824","497.57628564392775"
"","canvas-keyboard-response","207","168883","0.0-6.0-5.28","549","","","","","make choice","255","2","","","catch","sh","l","sw","191","142","214","272","212","181","trueblood","null","null","null","null","null","null","null","null","null","null","null","","180","200","260","200","36000","52000","[1,2]","","",""
"","canvas-keyboard-response","208","168903","0.0-6.0-6.28","549","","","","","clear_screen","null","null","","","catch","sh","l","sw","191","142","214","272","212","181","trueblood","null","null","null","null","null","null","null","null","null","null","null","","180","200","260","200","36000","52000","[1,2]","","",""
"","canvas-keyboard-response","209","169104","0.0-6.0-0.29","549","","","","","pre trial waiting period","null","null","","","critical","t","c","d","164","240","240","164","162.6685","237.1485","spektor","0.02","h","164","240","240","164","162.6685","237.1485","39360","39360","38576.5967","td","null","null","null","null","null","null","[1,3]","457.66120346849704","175.14273041937065","469.71074359706046"
"","canvas-keyboard-response","210","169126","0.0-6.0-1.29","549","","","","","clear_screen","null","null","","","critical","t","c","d","164","240","240","164","162.6685","237.1485","spektor","0.02","h","164","240","240","164","162.6685","237.1485","39360","39360","38576.5967","td","null","null","null","null","null","null","[1,3]","457.66120346849704","175.14273041937065","469.71074359706046"
"","canvas-keyboard-response","211","169634","0.0-6.0-2.29","549","","","","","rectangles no change","null","null","","","critical","t","c","d","164","240","240","164","162.6685","237.1485","spektor","0.02","h","164","240","240","164","162.6685","237.1485","39360","39360","38576.5967","td","null","null","null","null","null","null","[1,3]","457.66120346849704","175.14273041937065","469.71074359706046"
"","canvas-keyboard-response","212","170973","0.0-6.0-3.29","549","","","","","rectangles with change","null","null","","","critical","t","c","d","164","240","240","164","162.6685","237.1485","spektor","0.02","h","164","240","240","164","162.6685","237.1485","39360","39360","38576.5967","td","null","null","null","null","null","null","[1,3]","457.66120346849704","175.14273041937065","469.71074359706046"
"","canvas-keyboard-response","213","170994","0.0-6.0-4.29","549","","","","","clear_screen","null","null","","","critical","t","c","d","164","240","240","164","162.6685","237.1485","spektor","0.02","h","164","240","240","164","162.6685","237.1485","39360","39360","38576.5967","td","null","null","null","null","null","null","[1,3]","457.66120346849704","175.14273041937065","469.71074359706046"
"","canvas-keyboard-response","214","171436","0.0-6.0-5.29","549","","","","","make choice","433","1","","","critical","t","c","d","164","240","240","164","162.6685","237.1485","spektor","0.02","h","164","240","240","164","162.6685","237.1485","39360","39360","38576.5967","td","null","null","null","null","null","null","[1,3]","","",""
"","canvas-keyboard-response","215","171454","0.0-6.0-6.29","549","","","","","clear_screen","null","null","","","critical","t","c","d","164","240","240","164","162.6685","237.1485","spektor","0.02","h","164","240","240","164","162.6685","237.1485","39360","39360","38576.5967","td","null","null","null","null","null","null","[1,3]","","",""
"","canvas-keyboard-response","216","171656","0.0-6.0-0.30","549","","","","","pre trial waiting period","null","null","","","critical","t","d","c","164","240","164","240","240","164","spektor","0","h","164","240","240","164","164","240","39360","39360","39360","td","null","null","null","null","null","null","[1,2]","486.19470882393796","117.03937991731158","511.7286907265628"
"","canvas-keyboard-response","217","171675","0.0-6.0-1.30","549","","","","","clear_screen","null","null","","","critical","t","d","c","164","240","164","240","240","164","spektor","0","h","164","240","240","164","164","240","39360","39360","39360","td","null","null","null","null","null","null","[1,2]","486.19470882393796","117.03937991731158","511.7286907265628"
"","canvas-keyboard-response","218","172184","0.0-6.0-2.30","549","","","","","rectangles no change","null","null","","","critical","t","d","c","164","240","164","240","240","164","spektor","0","h","164","240","240","164","164","240","39360","39360","39360","td","null","null","null","null","null","null","[1,2]","486.19470882393796","117.03937991731158","511.7286907265628"
"","canvas-keyboard-response","219","173520","0.0-6.0-3.30","549","","","","","rectangles with change","null","null","","","critical","t","d","c","164","240","164","240","240","164","spektor","0","h","164","240","240","164","164","240","39360","39360","39360","td","null","null","null","null","null","null","[1,2]","486.19470882393796","117.03937991731158","511.7286907265628"
"","canvas-keyboard-response","220","173539","0.0-6.0-4.30","549","","","","","clear_screen","null","null","","","critical","t","d","c","164","240","164","240","240","164","spektor","0","h","164","240","240","164","164","240","39360","39360","39360","td","null","null","null","null","null","null","[1,2]","486.19470882393796","117.03937991731158","511.7286907265628"
"","canvas-keyboard-response","221","174635","0.0-6.0-5.30","549","","","","","make choice","1089","2","","","critical","t","d","c","164","240","164","240","240","164","spektor","0","h","164","240","240","164","164","240","39360","39360","39360","td","null","null","null","null","null","null","[1,2]","","",""
"","canvas-keyboard-response","222","174655","0.0-6.0-6.30","549","","","","","clear_screen","null","null","","","critical","t","d","c","164","240","164","240","240","164","spektor","0","h","164","240","240","164","164","240","39360","39360","39360","td","null","null","null","null","null","null","[1,2]","","",""
"","canvas-keyboard-response","223","174855","0.0-6.0-0.31","549","","","","","pre trial waiting period","null","null","","","catch","l","sh","sw","282","196","205","163","156","199","spektor","null","null","null","null","null","null","null","null","null","null","null","","180","200","260","200","36000","52000","[1,3]","515.8795912263031","183.8163627962407","484.15152403041856"
"","canvas-keyboard-response","224","174876","0.0-6.0-1.31","549","","","","","clear_screen","null","null","","","catch","l","sh","sw","282","196","205","163","156","199","spektor","null","null","null","null","null","null","null","null","null","null","null","","180","200","260","200","36000","52000","[1,3]","515.8795912263031","183.8163627962407","484.15152403041856"
"","canvas-keyboard-response","225","175385","0.0-6.0-2.31","549","","","","","rectangles no change","null","null","","","catch","l","sh","sw","282","196","205","163","156","199","spektor","null","null","null","null","null","null","null","null","null","null","null","","180","200","260","200","36000","52000","[1,3]","515.8795912263031","183.8163627962407","484.15152403041856"
"","canvas-keyboard-response","226","176722","0.0-6.0-3.31","549","","","","","rectangles with change","null","null","","","catch","l","sh","sw","282","196","205","163","156","199","spektor","null","null","null","null","null","null","null","null","null","null","null","","180","200","260","200","36000","52000","[1,3]","515.8795912263031","183.8163627962407","484.15152403041856"
"","canvas-keyboard-response","227","176742","0.0-6.0-4.31","549","","","","","clear_screen","null","null","","","catch","l","sh","sw","282","196","205","163","156","199","spektor","null","null","null","null","null","null","null","null","null","null","null","","180","200","260","200","36000","52000","[1,3]","515.8795912263031","183.8163627962407","484.15152403041856"
"","canvas-keyboard-response","228","177139","0.0-6.0-5.31","549","","","","","make choice","390","1","","","catch","l","sh","sw","282","196","205","163","156","199","spektor","null","null","null","null","null","null","null","null","null","null","null","","180","200","260","200","36000","52000","[1,3]","","",""
"","canvas-keyboard-response","229","177162","0.0-6.0-6.31","549","","","","","clear_screen","null","null","","","catch","l","sh","sw","282","196","205","163","156","199","spektor","null","null","null","null","null","null","null","null","null","null","null","","180","200","260","200","36000","52000","[1,3]","","",""
"","canvas-keyboard-response","230","177363","0.0-6.0-0.32","549","","","","","pre trial waiting period","null","null","","","catch","sh","sw","l","181","177","193","168","295","222","spektor","null","null","null","null","null","null","null","null","null","null","null","","180","200","260","200","36000","52000","[2,3]","532.6080313569207","168.65325969889636","498.1489695956162"
"","canvas-keyboard-response","231","177386","0.0-6.0-1.32","549","","","","","clear_screen","null","null","","","catch","sh","sw","l","181","177","193","168","295","222","spektor","null","null","null","null","null","null","null","null","null","null","null","","180","200","260","200","36000","52000","[2,3]","532.6080313569207","168.65325969889636","498.1489695956162"
"","canvas-keyboard-response","232","177892","0.0-6.0-2.32","549","","","","","rectangles no change","null","null","","","catch","sh","sw","l","181","177","193","168","295","222","spektor","null","null","null","null","null","null","null","null","null","null","null","","180","200","260","200","36000","52000","[2,3]","532.6080313569207","168.65325969889636","498.1489695956162"
"","canvas-keyboard-response","233","179230","0.0-6.0-3.32","549","","","","","rectangles with change","null","null","","","catch","sh","sw","l","181","177","193","168","295","222","spektor","null","null","null","null","null","null","null","null","null","null","null","","180","200","260","200","36000","52000","[2,3]","532.6080313569207","168.65325969889636","498.1489695956162"
"","canvas-keyboard-response","234","179250","0.0-6.0-4.32","549","","","","","clear_screen","null","null","","","catch","sh","sw","l","181","177","193","168","295","222","spektor","null","null","null","null","null","null","null","null","null","null","null","","180","200","260","200","36000","52000","[2,3]","532.6080313569207","168.65325969889636","498.1489695956162"
"","canvas-keyboard-response","235","179620","0.0-6.0-5.32","549","","","","","make choice","365","3","","","catch","sh","sw","l","181","177","193","168","295","222","spektor","null","null","null","null","null","null","null","null","null","null","null","","180","200","260","200","36000","52000","[2,3]","","",""
"","canvas-keyboard-response","236","179636","0.0-6.0-6.32","549","","","","","clear_screen","null","null","","","catch","sh","sw","l","181","177","193","168","295","222","spektor","null","null","null","null","null","null","null","null","null","null","null","","180","200","260","200","36000","52000","[2,3]","","",""
"","canvas-keyboard-response","237","179838","0.0-6.0-0.33","549","","","","","pre trial waiting period","null","null","","","catch","sw","sh","l","180","200","168","218","195","227","trueblood","null","null","null","null","null","null","null","null","null","null","null","","180","200","260","200","36000","52000","[1,3]","455.8407783778064","461.1875731560671","471.63911770706653"
"","canvas-keyboard-response","238","179858","0.0-6.0-1.33","549","","","","","clear_screen","null","null","","","catch","sw","sh","l","180","200","168","218","195","227","trueblood","null","null","null","null","null","null","null","null","null","null","null","","180","200","260","200","36000","52000","[1,3]","455.8407783778064","461.1875731560671","471.63911770706653"
"","canvas-keyboard-response","239","180370","0.0-6.0-2.33","549","","","","","rectangles no change","null","null","","","catch","sw","sh","l","180","200","168","218","195","227","trueblood","null","null","null","null","null","null","null","null","null","null","null","","180","200","260","200","36000","52000","[1,3]","455.8407783778064","461.1875731560671","471.63911770706653"
"","canvas-keyboard-response","240","181709","0.0-6.0-3.33","549","","","","","rectangles with change","null","null","","","catch","sw","sh","l","180","200","168","218","195","227","trueblood","null","null","null","null","null","null","null","null","null","null","null","","180","200","260","200","36000","52000","[1,3]","455.8407783778064","461.1875731560671","471.63911770706653"
"","canvas-keyboard-response","241","181729","0.0-6.0-4.33","549","","","","","clear_screen","null","null","","","catch","sw","sh","l","180","200","168","218","195","227","trueblood","null","null","null","null","null","null","null","null","null","null","null","","180","200","260","200","36000","52000","[1,3]","455.8407783778064","461.1875731560671","471.63911770706653"
"","canvas-keyboard-response","242","182034","0.0-6.0-5.33","549","","","","","make choice","300","3","","","catch","sw","sh","l","180","200","168","218","195","227","trueblood","null","null","null","null","null","null","null","null","null","null","null","","180","200","260","200","36000","52000","[1,3]","","",""
"","canvas-keyboard-response","243","182050","0.0-6.0-6.33","549","","","","","clear_screen","null","null","","","catch","sw","sh","l","180","200","168","218","195","227","trueblood","null","null","null","null","null","null","null","null","null","null","null","","180","200","260","200","36000","52000","[1,3]","","",""
"","canvas-keyboard-response","244","182252","0.0-6.0-0.34","549","","","","","pre trial waiting period","null","null","","","critical","c","d","t","240","164","158.0083","227.1683","164","240","spektor","0.09","h","164","240","240","164","158.0083","227.1683","39360","39360","35894.4834","dc","null","null","null","null","null","null","[2,1]","501.89859790505966","114.45029316422288","461.20620000657505"
"","canvas-keyboard-response","245","182274","0.0-6.0-1.34","549","","","","","clear_screen","null","null","","","critical","c","d","t","240","164","158.0083","227.1683","164","240","spektor","0.09","h","164","240","240","164","158.0083","227.1683","39360","39360","35894.4834","dc","null","null","null","null","null","null","[2,1]","501.89859790505966","114.45029316422288","461.20620000657505"
"","canvas-keyboard-response","246","182781","0.0-6.0-2.34","549","","","","","rectangles no change","null","null","","","critical","c","d","t","240","164","158.0083","227.1683","164","240","spektor","0.09","h","164","240","240","164","158.0083","227.1683","39360","39360","35894.4834","dc","null","null","null","null","null","null","[2,1]","501.89859790505966","114.45029316422288","461.20620000657505"
"","canvas-keyboard-response","247","184117","0.0-6.0-3.34","549","","","","","rectangles with change","null","null","","","critical","c","d","t","240","164","158.0083","227.1683","164","240","spektor","0.09","h","164","240","240","164","158.0083","227.1683","39360","39360","35894.4834","dc","null","null","null","null","null","null","[2,1]","501.89859790505966","114.45029316422288","461.20620000657505"
"","canvas-keyboard-response","248","184136","0.0-6.0-4.34","549","","","","","clear_screen","null","null","","","critical","c","d","t","240","164","158.0083","227.1683","164","240","spektor","0.09","h","164","240","240","164","158.0083","227.1683","39360","39360","35894.4834","dc","null","null","null","null","null","null","[2,1]","501.89859790505966","114.45029316422288","461.20620000657505"
"","canvas-keyboard-response","249","184484","0.0-6.0-5.34","549","","","","","make choice","340","1","","","critical","c","d","t","240","164","158.0083","227.1683","164","240","spektor","0.09","h","164","240","240","164","158.0083","227.1683","39360","39360","35894.4834","dc","null","null","null","null","null","null","[2,1]","","",""
"","canvas-keyboard-response","250","184502","0.0-6.0-6.34","549","","","","","clear_screen","null","null","","","critical","c","d","t","240","164","158.0083","227.1683","164","240","spektor","0.09","h","164","240","240","164","158.0083","227.1683","39360","39360","35894.4834","dc","null","null","null","null","null","null","[2,1]","","",""
"","canvas-keyboard-response","251","184703","0.0-6.0-0.35","549","","","","","pre trial waiting period","null","null","","","critical","c","t","d","164","240","240","164","237.1485","162.6685","spektor","0.02","w","240","164","164","240","237.1485","162.6685","39360","39360","38576.5967","dc","null","null","null","null","null","null","[3,1]","472.4870522378092","193.6413022323106","527.4147732751326"
"","canvas-keyboard-response","252","184723","0.0-6.0-1.35","549","","","","","clear_screen","null","null","","","critical","c","t","d","164","240","240","164","237.1485","162.6685","spektor","0.02","w","240","164","164","240","237.1485","162.6685","39360","39360","38576.5967","dc","null","null","null","null","null","null","[3,1]","472.4870522378092","193.6413022323106","527.4147732751326"
"","canvas-keyboard-response","253","185228","0.0-6.0-2.35","549","","","","","rectangles no change","null","null","","","critical","c","t","d","164","240","240","164","237.1485","162.6685","spektor","0.02","w","240","164","164","240","237.1485","162.6685","39360","39360","38576.5967","dc","null","null","null","null","null","null","[3,1]","472.4870522378092","193.6413022323106","527.4147732751326"
"","canvas-keyboard-response","254","186569","0.0-6.0-3.35","549","","","","","rectangles with change","null","null","","","critical","c","t","d","164","240","240","164","237.1485","162.6685","spektor","0.02","w","240","164","164","240","237.1485","162.6685","39360","39360","38576.5967","dc","null","null","null","null","null","null","[3,1]","472.4870522378092","193.6413022323106","527.4147732751326"
"","canvas-keyboard-response","255","186587","0.0-6.0-4.35","549","","","","","clear_screen","null","null","","","critical","c","t","d","164","240","240","164","237.1485","162.6685","spektor","0.02","w","240","164","164","240","237.1485","162.6685","39360","39360","38576.5967","dc","null","null","null","null","null","null","[3,1]","472.4870522378092","193.6413022323106","527.4147732751326"
"","canvas-keyboard-response","256","187036","0.0-6.0-5.35","549","","","","","make choice","443","1","","","critical","c","t","d","164","240","240","164","237.1485","162.6685","spektor","0.02","w","240","164","164","240","237.1485","162.6685","39360","39360","38576.5967","dc","null","null","null","null","null","null","[3,1]","","",""
"","canvas-keyboard-response","257","187054","0.0-6.0-6.35","549","","","","","clear_screen","null","null","","","critical","c","t","d","164","240","240","164","237.1485","162.6685","spektor","0.02","w","240","164","164","240","237.1485","162.6685","39360","39360","38576.5967","dc","null","null","null","null","null","null","[3,1]","","",""
"","canvas-keyboard-response","258","187255","0.0-6.0-0.36","549","","","","","pre trial waiting period","null","null","","","critical","c","d","t","164","240","232.8713","160.6713","240","164","spektor","0.05","w","240","164","164","240","232.8713","160.6713","39360","39360","37415.7294","dc","null","null","null","null","null","null","[2,1]","475.47270057253655","215.62403065517742","529.0616968483231"
"","canvas-keyboard-response","259","187277","0.0-6.0-1.36","549","","","","","clear_screen","null","null","","","critical","c","d","t","164","240","232.8713","160.6713","240","164","spektor","0.05","w","240","164","164","240","232.8713","160.6713","39360","39360","37415.7294","dc","null","null","null","null","null","null","[2,1]","475.47270057253655","215.62403065517742","529.0616968483231"
"","canvas-keyboard-response","260","187785","0.0-6.0-2.36","549","","","","","rectangles no change","null","null","","","critical","c","d","t","164","240","232.8713","160.6713","240","164","spektor","0.05","w","240","164","164","240","232.8713","160.6713","39360","39360","37415.7294","dc","null","null","null","null","null","null","[2,1]","475.47270057253655","215.62403065517742","529.0616968483231"
"","canvas-keyboard-response","261","189123","0.0-6.0-3.36","549","","","","","rectangles with change","null","null","","","critical","c","d","t","164","240","232.8713","160.6713","240","164","spektor","0.05","w","240","164","164","240","232.8713","160.6713","39360","39360","37415.7294","dc","null","null","null","null","null","null","[2,1]","475.47270057253655","215.62403065517742","529.0616968483231"
"","canvas-keyboard-response","262","189140","0.0-6.0-4.36","549","","","","","clear_screen","null","null","","","critical","c","d","t","164","240","232.8713","160.6713","240","164","spektor","0.05","w","240","164","164","240","232.8713","160.6713","39360","39360","37415.7294","dc","null","null","null","null","null","null","[2,1]","475.47270057253655","215.62403065517742","529.0616968483231"
"","canvas-keyboard-response","263","189745","0.0-6.0-5.36","549","","","","","make choice","595","1","","","critical","c","d","t","164","240","232.8713","160.6713","240","164","spektor","0.05","w","240","164","164","240","232.8713","160.6713","39360","39360","37415.7294","dc","null","null","null","null","null","null","[2,1]","","",""
"","canvas-keyboard-response","264","189761","0.0-6.0-6.36","549","","","","","clear_screen","null","null","","","critical","c","d","t","164","240","232.8713","160.6713","240","164","spektor","0.05","w","240","164","164","240","232.8713","160.6713","39360","39360","37415.7294","dc","null","null","null","null","null","null","[2,1]","","",""
"","canvas-keyboard-response","265","189962","0.0-6.0-0.37","549","","","","","pre trial waiting period","null","null","","","catch","sw","sh","l","180","200","164","187","238","195","spektor","null","null","null","null","null","null","null","null","null","null","null","","180","200","260","200","36000","52000","[1,3]","488.3128714297355","169.26885266501648","496.08365783912836"
"","canvas-keyboard-response","266","189986","0.0-6.0-1.37","549","","","","","clear_screen","null","null","","","catch","sw","sh","l","180","200","164","187","238","195","spektor","null","null","null","null","null","null","null","null","null","null","null","","180","200","260","200","36000","52000","[1,3]","488.3128714297355","169.26885266501648","496.08365783912836"
