"success","trial_type","trial_index","time_elapsed","internal_node_id","sub_n","timeout","failed_images","failed_audio","failed_video","screen_id","rt","response","stimulus","view_history","trial","r1","r2","r3","w1","h1","w2","h2","w3","h3","display","tdd","tdo","tw","th","cw","ch","dw","dh","ta","ca","da","probe","csls","csss","clls","clss","sa","la","probe_rects","r1yloc","r2yloc","r3yloc"
"true","fullscreen","0","2593","0.0-0.0","560","","","","","","","","","","","","","","","","","","","","","","","","","","","","","","","","","","","","","","","","","",""
"true","preload","1","2609","0.0-1.0","560","false","[]","[]","[]","img preload","","","","","","","","","","","","","","","","","","","","","","","","","","","","","","","","","","","","",""
"","survey-html-form","2","5952","0.0-2.0","560","","","","","enter-sub-number","3336","{""response"":""560""}","","","","","","","","","","","","","","","","","","","","","","","","","","","","","","","","","","",""
"","image-button-response","3","21339","0.0-3.0","560","","","","","","15323","0","consent.png","","","","","","","","","","","","","","","","","","","","","","","","","","","","","","","","","",""
"","html-button-response","4","26347","0.0-4.0","560","","","","","intro mssg","5003","0","<div style= ""font-size:25px;"" <p> <strong> Welcome! </strong><br> <p style=""color:#8B0000; font-size:25px;""><strong> Please do NOT exit full screen until you are done with the experiment. </strong> </p><p style=""font-size:25px;color:#8B0000;""> <strong> Your data will be lost <br> if you try to go back or refresh the page after the experiment starts. Feel free to click ""previous"" during the instructions, however.</strong> </p><br><p> <strong> Thanks in advance for your contribution to our research! </strong></p>","","","","","","","","","","","","","","","","","","","","","","","","","","","","","","","","","",""
"","instructions","5","107787","0.0-5.0","560","","","","","instructions","81435","","","[{""page_index"":0,""viewing_time"":13579},{""page_index"":1,""viewing_time"":11368},{""page_index"":2,""viewing_time"":5384},{""page_index"":3,""viewing_time"":34792},{""page_index"":4,""viewing_time"":9520},{""page_index"":5,""viewing_time"":3176},{""page_index"":6,""viewing_time"":2496},{""page_index"":7,""viewing_time"":1120}]","","","","","","","","","","","","","","","","","","","","","","","","","","","","","","","","",""
"","canvas-keyboard-response","6","107993","0.0-6.0-0.0","560","","","","","pre trial waiting period","null","null","","","critical","c","t","d","240","164","164","240","164","240","spektor","0","h","164","240","240","164","164","240","39360","39360","39360","td","null","null","null","null","null","null","[2,3]","536.404155131815","124.0415208729963","488.00512907219513"
"","canvas-keyboard-response","7","108020","0.0-6.0-1.0","560","","","","","clear_screen","null","null","","","critical","c","t","d","240","164","164","240","164","240","spektor","0","h","164","240","240","164","164","240","39360","39360","39360","td","null","null","null","null","null","null","[2,3]","536.404155131815","124.0415208729963","488.00512907219513"
"","canvas-keyboard-response","8","108531","0.0-6.0-2.0","560","","","","","rectangles no change","null","null","","","critical","c","t","d","240","164","164","240","164","240","spektor","0","h","164","240","240","164","164","240","39360","39360","39360","td","null","null","null","null","null","null","[2,3]","536.404155131815","124.0415208729963","488.00512907219513"
"","canvas-keyboard-response","9","109868","0.0-6.0-3.0","560","","","","","rectangles with change","null","null","","","critical","c","t","d","240","164","164","240","164","240","spektor","0","h","164","240","240","164","164","240","39360","39360","39360","td","null","null","null","null","null","null","[2,3]","536.404155131815","124.0415208729963","488.00512907219513"
"","canvas-keyboard-response","10","109891","0.0-6.0-4.0","560","","","","","clear_screen","null","null","","","critical","c","t","d","240","164","164","240","164","240","spektor","0","h","164","240","240","164","164","240","39360","39360","39360","td","null","null","null","null","null","null","[2,3]","536.404155131815","124.0415208729963","488.00512907219513"
"","canvas-keyboard-response","11","113179","0.0-6.0-5.0","560","","","","","make choice","3282","3","","","critical","c","t","d","240","164","164","240","164","240","spektor","0","h","164","240","240","164","164","240","39360","39360","39360","td","null","null","null","null","null","null","[2,3]","","",""
"","canvas-keyboard-response","12","113196","0.0-6.0-6.0","560","","","","","clear_screen","null","null","","","critical","c","t","d","240","164","164","240","164","240","spektor","0","h","164","240","240","164","164","240","39360","39360","39360","td","null","null","null","null","null","null","[2,3]","","",""
"","canvas-keyboard-response","13","113398","0.0-6.0-0.1","560","","","","","pre trial waiting period","null","null","","","critical","c","t","d","240","164","164","240","158.0083","227.1683","spektor","0.09","h","164","240","240","164","158.0083","227.1683","39360","39360","35894.4834","td","null","null","null","null","null","null","[2,3]","533.9019273672048","119.08660273736956","500.5183959613909"
"","canvas-keyboard-response","14","113419","0.0-6.0-1.1","560","","","","","clear_screen","null","null","","","critical","c","t","d","240","164","164","240","158.0083","227.1683","spektor","0.09","h","164","240","240","164","158.0083","227.1683","39360","39360","35894.4834","td","null","null","null","null","null","null","[2,3]","533.9019273672048","119.08660273736956","500.5183959613909"
"","canvas-keyboard-response","15","113927","0.0-6.0-2.1","560","","","","","rectangles no change","null","null","","","critical","c","t","d","240","164","164","240","158.0083","227.1683","spektor","0.09","h","164","240","240","164","158.0083","227.1683","39360","39360","35894.4834","td","null","null","null","null","null","null","[2,3]","533.9019273672048","119.08660273736956","500.5183959613909"
"","canvas-keyboard-response","16","115263","0.0-6.0-3.1","560","","","","","rectangles with change","null","null","","","critical","c","t","d","240","164","164","240","158.0083","227.1683","spektor","0.09","h","164","240","240","164","158.0083","227.1683","39360","39360","35894.4834","td","null","null","null","null","null","null","[2,3]","533.9019273672048","119.08660273736956","500.5183959613909"
"","canvas-keyboard-response","17","115286","0.0-6.0-4.1","560","","","","","clear_screen","null","null","","","critical","c","t","d","240","164","164","240","158.0083","227.1683","spektor","0.09","h","164","240","240","164","158.0083","227.1683","39360","39360","35894.4834","td","null","null","null","null","null","null","[2,3]","533.9019273672048","119.08660273736956","500.5183959613909"
"","canvas-keyboard-response","18","117395","0.0-6.0-5.1","560","","","","","make choice","2099","2","","","critical","c","t","d","240","164","164","240","158.0083","227.1683","spektor","0.09","h","164","240","240","164","158.0083","227.1683","39360","39360","35894.4834","td","null","null","null","null","null","null","[2,3]","","",""
"","canvas-keyboard-response","19","117414","0.0-6.0-6.1","560","","","","","clear_screen","null","null","","","critical","c","t","d","240","164","164","240","158.0083","227.1683","spektor","0.09","h","164","240","240","164","158.0083","227.1683","39360","39360","35894.4834","td","null","null","null","null","null","null","[2,3]","","",""
"","canvas-keyboard-response","20","117616","0.0-6.0-0.2","560","","","","","pre trial waiting period","null","null","","","catch","sw","l","sh","180","200","233","169","187","157","spektor","null","null","null","null","null","null","null","null","null","null","null","","180","200","260","200","36000","52000","[2,3]","507.036498697556","183.14878074600253","507.77886971836097"
"","canvas-keyboard-response","21","117636","0.0-6.0-1.2","560","","","","","clear_screen","null","null","","","catch","sw","l","sh","180","200","233","169","187","157","spektor","null","null","null","null","null","null","null","null","null","null","null","","180","200","260","200","36000","52000","[2,3]","507.036498697556","183.14878074600253","507.77886971836097"
"","canvas-keyboard-response","22","118145","0.0-6.0-2.2","560","","","","","rectangles no change","null","null","","","catch","sw","l","sh","180","200","233","169","187","157","spektor","null","null","null","null","null","null","null","null","null","null","null","","180","200","260","200","36000","52000","[2,3]","507.036498697556","183.14878074600253","507.77886971836097"
"","canvas-keyboard-response","23","119482","0.0-6.0-3.2","560","","","","","rectangles with change","null","null","","","catch","sw","l","sh","180","200","233","169","187","157","spektor","null","null","null","null","null","null","null","null","null","null","null","","180","200","260","200","36000","52000","[2,3]","507.036498697556","183.14878074600253","507.77886971836097"
"","canvas-keyboard-response","24","119505","0.0-6.0-4.2","560","","","","","clear_screen","null","null","","","catch","sw","l","sh","180","200","233","169","187","157","spektor","null","null","null","null","null","null","null","null","null","null","null","","180","200","260","200","36000","52000","[2,3]","507.036498697556","183.14878074600253","507.77886971836097"
"","canvas-keyboard-response","25","120754","0.0-6.0-5.2","560","","","","","make choice","1243","2","","","catch","sw","l","sh","180","200","233","169","187","157","spektor","null","null","null","null","null","null","null","null","null","null","null","","180","200","260","200","36000","52000","[2,3]","","",""
"","canvas-keyboard-response","26","120774","0.0-6.0-6.2","560","","","","","clear_screen","null","null","","","catch","sw","l","sh","180","200","233","169","187","157","spektor","null","null","null","null","null","null","null","null","null","null","null","","180","200","260","200","36000","52000","[2,3]","","",""
"","canvas-keyboard-response","27","120975","0.0-6.0-0.3","560","","","","","pre trial waiting period","null","null","","","catch","sh","sw","l","168","151","177","172","203","221","trueblood","null","null","null","null","null","null","null","null","null","null","null","","180","200","260","200","36000","52000","[1,3]","480.1712460338627","467.7854405797917","433.54631392461397"
"","canvas-keyboard-response","28","120994","0.0-6.0-1.3","560","","","","","clear_screen","null","null","","","catch","sh","sw","l","168","151","177","172","203","221","trueblood","null","null","null","null","null","null","null","null","null","null","null","","180","200","260","200","36000","52000","[1,3]","480.1712460338627","467.7854405797917","433.54631392461397"
"","canvas-keyboard-response","29","121500","0.0-6.0-2.3","560","","","","","rectangles no change","null","null","","","catch","sh","sw","l","168","151","177","172","203","221","trueblood","null","null","null","null","null","null","null","null","null","null","null","","180","200","260","200","36000","52000","[1,3]","480.1712460338627","467.7854405797917","433.54631392461397"
"","canvas-keyboard-response","30","122835","0.0-6.0-3.3","560","","","","","rectangles with change","null","null","","","catch","sh","sw","l","168","151","177","172","203","221","trueblood","null","null","null","null","null","null","null","null","null","null","null","","180","200","260","200","36000","52000","[1,3]","480.1712460338627","467.7854405797917","433.54631392461397"
"","canvas-keyboard-response","31","122852","0.0-6.0-4.3","560","","","","","clear_screen","null","null","","","catch","sh","sw","l","168","151","177","172","203","221","trueblood","null","null","null","null","null","null","null","null","null","null","null","","180","200","260","200","36000","52000","[1,3]","480.1712460338627","467.7854405797917","433.54631392461397"
"","canvas-keyboard-response","32","123563","0.0-6.0-5.3","560","","","","","make choice","705","3","","","catch","sh","sw","l","168","151","177","172","203","221","trueblood","null","null","null","null","null","null","null","null","null","null","null","","180","200","260","200","36000","52000","[1,3]","","",""
"","canvas-keyboard-response","33","123580","0.0-6.0-6.3","560","","","","","clear_screen","null","null","","","catch","sh","sw","l","168","151","177","172","203","221","trueblood","null","null","null","null","null","null","null","null","null","null","null","","180","200","260","200","36000","52000","[1,3]","","",""
"","canvas-keyboard-response","34","123781","0.0-6.0-0.4","560","","","","","pre trial waiting period","null","null","","","catch","sh","l","sw","218","178","270","182","158","180","trueblood","null","null","null","null","null","null","null","null","null","null","null","","180","200","260","200","36000","52000","[1,2]","468.40008826314363","503.12873051091793","501.74090375084114"
"","canvas-keyboard-response","35","123800","0.0-6.0-1.4","560","","","","","clear_screen","null","null","","","catch","sh","l","sw","218","178","270","182","158","180","trueblood","null","null","null","null","null","null","null","null","null","null","null","","180","200","260","200","36000","52000","[1,2]","468.40008826314363","503.12873051091793","501.74090375084114"
"","canvas-keyboard-response","36","124312","0.0-6.0-2.4","560","","","","","rectangles no change","null","null","","","catch","sh","l","sw","218","178","270","182","158","180","trueblood","null","null","null","null","null","null","null","null","null","null","null","","180","200","260","200","36000","52000","[1,2]","468.40008826314363","503.12873051091793","501.74090375084114"
"","canvas-keyboard-response","37","125650","0.0-6.0-3.4","560","","","","","rectangles with change","null","null","","","catch","sh","l","sw","218","178","270","182","158","180","trueblood","null","null","null","null","null","null","null","null","null","null","null","","180","200","260","200","36000","52000","[1,2]","468.40008826314363","503.12873051091793","501.74090375084114"
"","canvas-keyboard-response","38","125667","0.0-6.0-4.4","560","","","","","clear_screen","null","null","","","catch","sh","l","sw","218","178","270","182","158","180","trueblood","null","null","null","null","null","null","null","null","null","null","null","","180","200","260","200","36000","52000","[1,2]","468.40008826314363","503.12873051091793","501.74090375084114"
"","canvas-keyboard-response","39","125995","0.0-6.0-5.4","560","","","","","make choice","320","2","","","catch","sh","l","sw","218","178","270","182","158","180","trueblood","null","null","null","null","null","null","null","null","null","null","null","","180","200","260","200","36000","52000","[1,2]","","",""
"","canvas-keyboard-response","40","126014","0.0-6.0-6.4","560","","","","","clear_screen","null","null","","","catch","sh","l","sw","218","178","270","182","158","180","trueblood","null","null","null","null","null","null","null","null","null","null","null","","180","200","260","200","36000","52000","[1,2]","","",""
"","canvas-keyboard-response","41","126215","0.0-6.0-0.5","560","","","","","pre trial waiting period","null","null","","","catch","l","sh","sw","187","240","195","197","167","184","trueblood","null","null","null","null","null","null","null","null","null","null","null","","180","200","260","200","36000","52000","[1,2]","442.99314012666383","476.39479785796385","480.6939681394632"
"","canvas-keyboard-response","42","126237","0.0-6.0-1.5","560","","","","","clear_screen","null","null","","","catch","l","sh","sw","187","240","195","197","167","184","trueblood","null","null","null","null","null","null","null","null","null","null","null","","180","200","260","200","36000","52000","[1,2]","442.99314012666383","476.39479785796385","480.6939681394632"
"","canvas-keyboard-response","43","126748","0.0-6.0-2.5","560","","","","","rectangles no change","null","null","","","catch","l","sh","sw","187","240","195","197","167","184","trueblood","null","null","null","null","null","null","null","null","null","null","null","","180","200","260","200","36000","52000","[1,2]","442.99314012666383","476.39479785796385","480.6939681394632"
"","canvas-keyboard-response","44","128083","0.0-6.0-3.5","560","","","","","rectangles with change","null","null","","","catch","l","sh","sw","187","240","195","197","167","184","trueblood","null","null","null","null","null","null","null","null","null","null","null","","180","200","260","200","36000","52000","[1,2]","442.99314012666383","476.39479785796385","480.6939681394632"
"","canvas-keyboard-response","45","128102","0.0-6.0-4.5","560","","","","","clear_screen","null","null","","","catch","l","sh","sw","187","240","195","197","167","184","trueblood","null","null","null","null","null","null","null","null","null","null","null","","180","200","260","200","36000","52000","[1,2]","442.99314012666383","476.39479785796385","480.6939681394632"
"","canvas-keyboard-response","46","128905","0.0-6.0-5.5","560","","","","","make choice","797","1","","","catch","l","sh","sw","187","240","195","197","167","184","trueblood","null","null","null","null","null","null","null","null","null","null","null","","180","200","260","200","36000","52000","[1,2]","","",""
"","canvas-keyboard-response","47","128921","0.0-6.0-6.5","560","","","","","clear_screen","null","null","","","catch","l","sh","sw","187","240","195","197","167","184","trueblood","null","null","null","null","null","null","null","null","null","null","null","","180","200","260","200","36000","52000","[1,2]","","",""
"","canvas-keyboard-response","48","129122","0.0-6.0-0.6","560","","","","","pre trial waiting period","null","null","","","critical","d","c","t","158.0083","227.1683","240","164","164","240","spektor","0.09","h","164","240","240","164","158.0083","227.1683","39360","39360","35894.4834","tc","null","null","null","null","null","null","[3,2]","510.1905018739004","178.29958843836707","470.7664556408121"
"","canvas-keyboard-response","49","129142","0.0-6.0-1.6","560","","","","","clear_screen","null","null","","","critical","d","c","t","158.0083","227.1683","240","164","164","240","spektor","0.09","h","164","240","240","164","158.0083","227.1683","39360","39360","35894.4834","tc","null","null","null","null","null","null","[3,2]","510.1905018739004","178.29958843836707","470.7664556408121"
"","canvas-keyboard-response","50","129651","0.0-6.0-2.6","560","","","","","rectangles no change","null","null","","","critical","d","c","t","158.0083","227.1683","240","164","164","240","spektor","0.09","h","164","240","240","164","158.0083","227.1683","39360","39360","35894.4834","tc","null","null","null","null","null","null","[3,2]","510.1905018739004","178.29958843836707","470.7664556408121"
"","canvas-keyboard-response","51","130986","0.0-6.0-3.6","560","","","","","rectangles with change","null","null","","","critical","d","c","t","158.0083","227.1683","240","164","164","240","spektor","0.09","h","164","240","240","164","158.0083","227.1683","39360","39360","35894.4834","tc","null","null","null","null","null","null","[3,2]","510.1905018739004","178.29958843836707","470.7664556408121"
"","canvas-keyboard-response","52","131005","0.0-6.0-4.6","560","","","","","clear_screen","null","null","","","critical","d","c","t","158.0083","227.1683","240","164","164","240","spektor","0.09","h","164","240","240","164","158.0083","227.1683","39360","39360","35894.4834","tc","null","null","null","null","null","null","[3,2]","510.1905018739004","178.29958843836707","470.7664556408121"
"","canvas-keyboard-response","53","131683","0.0-6.0-5.6","560","","","","","make choice","673","2","","","critical","d","c","t","158.0083","227.1683","240","164","164","240","spektor","0.09","h","164","240","240","164","158.0083","227.1683","39360","39360","35894.4834","tc","null","null","null","null","null","null","[3,2]","","",""
"","canvas-keyboard-response","54","131700","0.0-6.0-6.6","560","","","","","clear_screen","null","null","","","critical","d","c","t","158.0083","227.1683","240","164","164","240","spektor","0.09","h","164","240","240","164","158.0083","227.1683","39360","39360","35894.4834","tc","null","null","null","null","null","null","[3,2]","","",""
"","canvas-keyboard-response","55","131901","0.0-6.0-0.7","560","","","","","pre trial waiting period","null","null","","","catch","sh","sw","l","205","148","144","160","273","216","trueblood","null","null","null","null","null","null","null","null","null","null","null","","180","200","260","200","36000","52000","[1,3]","514.0058368802027","491.8210709723254","476.4429060028787"
"","canvas-keyboard-response","56","131920","0.0-6.0-1.7","560","","","","","clear_screen","null","null","","","catch","sh","sw","l","205","148","144","160","273","216","trueblood","null","null","null","null","null","null","null","null","null","null","null","","180","200","260","200","36000","52000","[1,3]","514.0058368802027","491.8210709723254","476.4429060028787"
"","canvas-keyboard-response","57","132425","0.0-6.0-2.7","560","","","","","rectangles no change","null","null","","","catch","sh","sw","l","205","148","144","160","273","216","trueblood","null","null","null","null","null","null","null","null","null","null","null","","180","200","260","200","36000","52000","[1,3]","514.0058368802027","491.8210709723254","476.4429060028787"
"","canvas-keyboard-response","58","133760","0.0-6.0-3.7","560","","","","","rectangles with change","null","null","","","catch","sh","sw","l","205","148","144","160","273","216","trueblood","null","null","null","null","null","null","null","null","null","null","null","","180","200","260","200","36000","52000","[1,3]","514.0058368802027","491.8210709723254","476.4429060028787"
"","canvas-keyboard-response","59","133781","0.0-6.0-4.7","560","","","","","clear_screen","null","null","","","catch","sh","sw","l","205","148","144","160","273","216","trueblood","null","null","null","null","null","null","null","null","null","null","null","","180","200","260","200","36000","52000","[1,3]","514.0058368802027","491.8210709723254","476.4429060028787"
"","canvas-keyboard-response","60","133937","0.0-6.0-5.7","560","","","","","make choice","151","3","","","catch","sh","sw","l","205","148","144","160","273","216","trueblood","null","null","null","null","null","null","null","null","null","null","null","","180","200","260","200","36000","52000","[1,3]","","",""
"","canvas-keyboard-response","61","133955","0.0-6.0-6.7","560","","","","","clear_screen","null","null","","","catch","sh","sw","l","205","148","144","160","273","216","trueblood","null","null","null","null","null","null","null","null","null","null","null","","180","200","260","200","36000","52000","[1,3]","","",""
"","canvas-keyboard-response","62","134156","0.0-6.0-0.8","560","","","","","pre trial waiting period","null","null","","","critical","c","d","t","240","164","154.6796","220.0396","164","240","spektor","0.14","h","164","240","240","164","154.6796","220.0396","39360","39360","34035.6388","td","null","null","null","null","null","null","[3,2]","509.05333345614827","156.27236571687268","499.08970367127546"
"","canvas-keyboard-response","63","134177","0.0-6.0-1.8","560","","","","","clear_screen","null","null","","","critical","c","d","t","240","164","154.6796","220.0396","164","240","spektor","0.14","h","164","240","240","164","154.6796","220.0396","39360","39360","34035.6388","td","null","null","null","null","null","null","[3,2]","509.05333345614827","156.27236571687268","499.08970367127546"
"","canvas-keyboard-response","64","134683","0.0-6.0-2.8","560","","","","","rectangles no change","null","null","","","critical","c","d","t","240","164","154.6796","220.0396","164","240","spektor","0.14","h","164","240","240","164","154.6796","220.0396","39360","39360","34035.6388","td","null","null","null","null","null","null","[3,2]","509.05333345614827","156.27236571687268","499.08970367127546"
"","canvas-keyboard-response","65","136020","0.0-6.0-3.8","560","","","","","rectangles with change","null","null","","","critical","c","d","t","240","164","154.6796","220.0396","164","240","spektor","0.14","h","164","240","240","164","154.6796","220.0396","39360","39360","34035.6388","td","null","null","null","null","null","null","[3,2]","509.05333345614827","156.27236571687268","499.08970367127546"
"","canvas-keyboard-response","66","136042","0.0-6.0-4.8","560","","","","","clear_screen","null","null","","","critical","c","d","t","240","164","154.6796","220.0396","164","240","spektor","0.14","h","164","240","240","164","154.6796","220.0396","39360","39360","34035.6388","td","null","null","null","null","null","null","[3,2]","509.05333345614827","156.27236571687268","499.08970367127546"
"","canvas-keyboard-response","67","136346","0.0-6.0-5.8","560","","","","","make choice","295","3","","","critical","c","d","t","240","164","154.6796","220.0396","164","240","spektor","0.14","h","164","240","240","164","154.6796","220.0396","39360","39360","34035.6388","td","null","null","null","null","null","null","[3,2]","","",""
"","canvas-keyboard-response","68","136364","0.0-6.0-6.8","560","","","","","clear_screen","null","null","","","critical","c","d","t","240","164","154.6796","220.0396","164","240","spektor","0.14","h","164","240","240","164","154.6796","220.0396","39360","39360","34035.6388","td","null","null","null","null","null","null","[3,2]","","",""
"","canvas-keyboard-response","69","136565","0.0-6.0-0.9","560","","","","","pre trial waiting period","null","null","","","critical","c","d","t","240","164","162.6685","237.1485","164","240","trueblood","0.02","h","164","240","240","164","162.6685","237.1485","39360","39360","38576.5967","dc","null","null","null","null","null","null","[2,1]","487.6363854528439","431.15014557470545","426.9844246698477"
"","canvas-keyboard-response","70","136590","0.0-6.0-1.9","560","","","","","clear_screen","null","null","","","critical","c","d","t","240","164","162.6685","237.1485","164","240","trueblood","0.02","h","164","240","240","164","162.6685","237.1485","39360","39360","38576.5967","dc","null","null","null","null","null","null","[2,1]","487.6363854528439","431.15014557470545","426.9844246698477"
"","canvas-keyboard-response","71","137097","0.0-6.0-2.9","560","","","","","rectangles no change","null","null","","","critical","c","d","t","240","164","162.6685","237.1485","164","240","trueblood","0.02","h","164","240","240","164","162.6685","237.1485","39360","39360","38576.5967","dc","null","null","null","null","null","null","[2,1]","487.6363854528439","431.15014557470545","426.9844246698477"
"","canvas-keyboard-response","72","138437","0.0-6.0-3.9","560","","","","","rectangles with change","null","null","","","critical","c","d","t","240","164","162.6685","237.1485","164","240","trueblood","0.02","h","164","240","240","164","162.6685","237.1485","39360","39360","38576.5967","dc","null","null","null","null","null","null","[2,1]","487.6363854528439","431.15014557470545","426.9844246698477"
"","canvas-keyboard-response","73","138455","0.0-6.0-4.9","560","","","","","clear_screen","null","null","","","critical","c","d","t","240","164","162.6685","237.1485","164","240","trueblood","0.02","h","164","240","240","164","162.6685","237.1485","39360","39360","38576.5967","dc","null","null","null","null","null","null","[2,1]","487.6363854528439","431.15014557470545","426.9844246698477"
"","canvas-keyboard-response","74","138667","0.0-6.0-5.9","560","","","","","make choice","204","1","","","critical","c","d","t","240","164","162.6685","237.1485","164","240","trueblood","0.02","h","164","240","240","164","162.6685","237.1485","39360","39360","38576.5967","dc","null","null","null","null","null","null","[2,1]","","",""
"","canvas-keyboard-response","75","138684","0.0-6.0-6.9","560","","","","","clear_screen","null","null","","","critical","c","d","t","240","164","162.6685","237.1485","164","240","trueblood","0.02","h","164","240","240","164","162.6685","237.1485","39360","39360","38576.5967","dc","null","null","null","null","null","null","[2,1]","","",""
"","canvas-keyboard-response","76","138884","0.0-6.0-0.10","560","","","","","pre trial waiting period","null","null","","","catch","sw","l","sh","180","200","283","168","228","202","spektor","null","null","null","null","null","null","null","null","null","null","null","","180","200","260","200","36000","52000","[1,2]","489.5748499655289","188.18508100816567","501.4666066853865"
"","canvas-keyboard-response","77","138904","0.0-6.0-1.10","560","","","","","clear_screen","null","null","","","catch","sw","l","sh","180","200","283","168","228","202","spektor","null","null","null","null","null","null","null","null","null","null","null","","180","200","260","200","36000","52000","[1,2]","489.5748499655289","188.18508100816567","501.4666066853865"
"","canvas-keyboard-response","78","139412","0.0-6.0-2.10","560","","","","","rectangles no change","null","null","","","catch","sw","l","sh","180","200","283","168","228","202","spektor","null","null","null","null","null","null","null","null","null","null","null","","180","200","260","200","36000","52000","[1,2]","489.5748499655289","188.18508100816567","501.4666066853865"
"","canvas-keyboard-response","79","140749","0.0-6.0-3.10","560","","","","","rectangles with change","null","null","","","catch","sw","l","sh","180","200","283","168","228","202","spektor","null","null","null","null","null","null","null","null","null","null","null","","180","200","260","200","36000","52000","[1,2]","489.5748499655289","188.18508100816567","501.4666066853865"
"","canvas-keyboard-response","80","140771","0.0-6.0-4.10","560","","","","","clear_screen","null","null","","","catch","sw","l","sh","180","200","283","168","228","202","spektor","null","null","null","null","null","null","null","null","null","null","null","","180","200","260","200","36000","52000","[1,2]","489.5748499655289","188.18508100816567","501.4666066853865"
"","canvas-keyboard-response","81","144907","0.0-6.0-5.10","560","","","","","make choice","4129","2","","","catch","sw","l","sh","180","200","283","168","228","202","spektor","null","null","null","null","null","null","null","null","null","null","null","","180","200","260","200","36000","52000","[1,2]","","",""
"","canvas-keyboard-response","82","144924","0.0-6.0-6.10","560","","","","","clear_screen","null","null","","","catch","sw","l","sh","180","200","283","168","228","202","spektor","null","null","null","null","null","null","null","null","null","null","null","","180","200","260","200","36000","52000","[1,2]","","",""
"","canvas-keyboard-response","83","145126","0.0-6.0-0.11","560","","","","","pre trial waiting period","null","null","","","critical","t","d","c","164","240","164","240","240","164","trueblood","0","h","164","240","240","164","164","240","39360","39360","39360","dc","null","null","null","null","null","null","[2,3]","468.8855399924835","461.9487899633186","507.6819515860453"
"","canvas-keyboard-response","84","145147","0.0-6.0-1.11","560","","","","","clear_screen","null","null","","","critical","t","d","c","164","240","164","240","240","164","trueblood","0","h","164","240","240","164","164","240","39360","39360","39360","dc","null","null","null","null","null","null","[2,3]","468.8855399924835","461.9487899633186","507.6819515860453"
"","canvas-keyboard-response","85","145655","0.0-6.0-2.11","560","","","","","rectangles no change","null","null","","","critical","t","d","c","164","240","164","240","240","164","trueblood","0","h","164","240","240","164","164","240","39360","39360","39360","dc","null","null","null","null","null","null","[2,3]","468.8855399924835","461.9487899633186","507.6819515860453"
"","canvas-keyboard-response","86","146993","0.0-6.0-3.11","560","","","","","rectangles with change","null","null","","","critical","t","d","c","164","240","164","240","240","164","trueblood","0","h","164","240","240","164","164","240","39360","39360","39360","dc","null","null","null","null","null","null","[2,3]","468.8855399924835","461.9487899633186","507.6819515860453"
"","canvas-keyboard-response","87","147008","0.0-6.0-4.11","560","","","","","clear_screen","null","null","","","critical","t","d","c","164","240","164","240","240","164","trueblood","0","h","164","240","240","164","164","240","39360","39360","39360","dc","null","null","null","null","null","null","[2,3]","468.8855399924835","461.9487899633186","507.6819515860453"
"","canvas-keyboard-response","88","147498","0.0-6.0-5.11","560","","","","","make choice","484","3","","","critical","t","d","c","164","240","164","240","240","164","trueblood","0","h","164","240","240","164","164","240","39360","39360","39360","dc","null","null","null","null","null","null","[2,3]","","",""
"","canvas-keyboard-response","89","147519","0.0-6.0-6.11","560","","","","","clear_screen","null","null","","","critical","t","d","c","164","240","164","240","240","164","trueblood","0","h","164","240","240","164","164","240","39360","39360","39360","dc","null","null","null","null","null","null","[2,3]","","",""
"","canvas-keyboard-response","90","147721","0.0-6.0-0.12","560","","","","","pre trial waiting period","null","null","","","critical","d","c","t","220.0396","154.6796","164","240","240","164","trueblood","0.14","w","240","164","164","240","220.0396","154.6796","39360","39360","34035.6388","tc","null","null","null","null","null","null","[3,2]","483.95773331119136","424.07986621446173","471.5824884806806"
"","canvas-keyboard-response","91","147742","0.0-6.0-1.12","560","","","","","clear_screen","null","null","","","critical","d","c","t","220.0396","154.6796","164","240","240","164","trueblood","0.14","w","240","164","164","240","220.0396","154.6796","39360","39360","34035.6388","tc","null","null","null","null","null","null","[3,2]","483.95773331119136","424.07986621446173","471.5824884806806"
"","canvas-keyboard-response","92","148253","0.0-6.0-2.12","560","","","","","rectangles no change","null","null","","","critical","d","c","t","220.0396","154.6796","164","240","240","164","trueblood","0.14","w","240","164","164","240","220.0396","154.6796","39360","39360","34035.6388","tc","null","null","null","null","null","null","[3,2]","483.95773331119136","424.07986621446173","471.5824884806806"
"","canvas-keyboard-response","93","149592","0.0-6.0-3.12","560","","","","","rectangles with change","null","null","","","critical","d","c","t","220.0396","154.6796","164","240","240","164","trueblood","0.14","w","240","164","164","240","220.0396","154.6796","39360","39360","34035.6388","tc","null","null","null","null","null","null","[3,2]","483.95773331119136","424.07986621446173","471.5824884806806"
"","canvas-keyboard-response","94","149609","0.0-6.0-4.12","560","","","","","clear_screen","null","null","","","critical","d","c","t","220.0396","154.6796","164","240","240","164","trueblood","0.14","w","240","164","164","240","220.0396","154.6796","39360","39360","34035.6388","tc","null","null","null","null","null","null","[3,2]","483.95773331119136","424.07986621446173","471.5824884806806"
"","canvas-keyboard-response","95","149947","0.0-6.0-5.12","560","","","","","make choice","332","2","","","critical","d","c","t","220.0396","154.6796","164","240","240","164","trueblood","0.14","w","240","164","164","240","220.0396","154.6796","39360","39360","34035.6388","tc","null","null","null","null","null","null","[3,2]","","",""
"","canvas-keyboard-response","96","149964","0.0-6.0-6.12","560","","","","","clear_screen","null","null","","","critical","d","c","t","220.0396","154.6796","164","240","240","164","trueblood","0.14","w","240","164","164","240","220.0396","154.6796","39360","39360","34035.6388","tc","null","null","null","null","null","null","[3,2]","","",""
"","canvas-keyboard-response","97","150165","0.0-6.0-0.13","560","","","","","pre trial waiting period","null","null","","","catch","l","sh","sw","218","250","207","148","152","195","spektor","null","null","null","null","null","null","null","null","null","null","null","","180","200","260","200","36000","52000","[1,2]","494.1162161016081","175.2978075076902","509.55672810399096"
"","canvas-keyboard-response","98","150184","0.0-6.0-1.13","560","","","","","clear_screen","null","null","","","catch","l","sh","sw","218","250","207","148","152","195","spektor","null","null","null","null","null","null","null","null","null","null","null","","180","200","260","200","36000","52000","[1,2]","494.1162161016081","175.2978075076902","509.55672810399096"
"","canvas-keyboard-response","99","150693","0.0-6.0-2.13","560","","","","","rectangles no change","null","null","","","catch","l","sh","sw","218","250","207","148","152","195","spektor","null","null","null","null","null","null","null","null","null","null","null","","180","200","260","200","36000","52000","[1,2]","494.1162161016081","175.2978075076902","509.55672810399096"
"","canvas-keyboard-response","100","152026","0.0-6.0-3.13","560","","","","","rectangles with change","null","null","","","catch","l","sh","sw","218","250","207","148","152","195","spektor","null","null","null","null","null","null","null","null","null","null","null","","180","200","260","200","36000","52000","[1,2]","494.1162161016081","175.2978075076902","509.55672810399096"
"","canvas-keyboard-response","101","152039","0.0-6.0-4.13","560","","","","","clear_screen","null","null","","","catch","l","sh","sw","218","250","207","148","152","195","spektor","null","null","null","null","null","null","null","null","null","null","null","","180","200","260","200","36000","52000","[1,2]","494.1162161016081","175.2978075076902","509.55672810399096"
"","canvas-keyboard-response","102","152154","0.0-6.0-5.13","560","","","","","make choice","111","1","","","catch","l","sh","sw","218","250","207","148","152","195","spektor","null","null","null","null","null","null","null","null","null","null","null","","180","200","260","200","36000","52000","[1,2]","","",""
"","canvas-keyboard-response","103","152173","0.0-6.0-6.13","560","","","","","clear_screen","null","null","","","catch","l","sh","sw","218","250","207","148","152","195","spektor","null","null","null","null","null","null","null","null","null","null","null","","180","200","260","200","36000","52000","[1,2]","","",""
"","canvas-keyboard-response","104","152373","0.0-6.0-0.14","560","","","","","pre trial waiting period","null","null","","","critical","d","c","t","164","240","240","164","164","240","spektor","0","h","164","240","240","164","164","240","39360","39360","39360","dc","null","null","null","null","null","null","[1,2]","488.46699537165836","147.94764900266767","478.3248893190194"
"","canvas-keyboard-response","105","152397","0.0-6.0-1.14","560","","","","","clear_screen","null","null","","","critical","d","c","t","164","240","240","164","164","240","spektor","0","h","164","240","240","164","164","240","39360","39360","39360","dc","null","null","null","null","null","null","[1,2]","488.46699537165836","147.94764900266767","478.3248893190194"
"","canvas-keyboard-response","106","152905","0.0-6.0-2.14","560","","","","","rectangles no change","null","null","","","critical","d","c","t","164","240","240","164","164","240","spektor","0","h","164","240","240","164","164","240","39360","39360","39360","dc","null","null","null","null","null","null","[1,2]","488.46699537165836","147.94764900266767","478.3248893190194"
"","canvas-keyboard-response","107","154239","0.0-6.0-3.14","560","","","","","rectangles with change","null","null","","","critical","d","c","t","164","240","240","164","164","240","spektor","0","h","164","240","240","164","164","240","39360","39360","39360","dc","null","null","null","null","null","null","[1,2]","488.46699537165836","147.94764900266767","478.3248893190194"
"","canvas-keyboard-response","108","154262","0.0-6.0-4.14","560","","","","","clear_screen","null","null","","","critical","d","c","t","164","240","240","164","164","240","spektor","0","h","164","240","240","164","164","240","39360","39360","39360","dc","null","null","null","null","null","null","[1,2]","488.46699537165836","147.94764900266767","478.3248893190194"
"","canvas-keyboard-response","109","154281","0.0-6.0-5.14","560","","","","","make choice","15","2","","","critical","d","c","t","164","240","240","164","164","240","spektor","0","h","164","240","240","164","164","240","39360","39360","39360","dc","null","null","null","null","null","null","[1,2]","","",""
"","canvas-keyboard-response","110","154300","0.0-6.0-6.14","560","","","","","clear_screen","null","null","","","critical","d","c","t","164","240","240","164","164","240","spektor","0","h","164","240","240","164","164","240","39360","39360","39360","dc","null","null","null","null","null","null","[1,2]","","",""
"","canvas-keyboard-response","111","154501","0.0-6.0-0.15","560","","","","","pre trial waiting period","null","null","","","critical","c","t","d","240","164","164","240","164","240","trueblood","0","h","164","240","240","164","164","240","39360","39360","39360","td","null","null","null","null","null","null","[2,3]","474.0219215236961","433.6690184206374","454.5040821570804"
"","canvas-keyboard-response","112","154521","0.0-6.0-1.15","560","","","","","clear_screen","null","null","","","critical","c","t","d","240","164","164","240","164","240","trueblood","0","h","164","240","240","164","164","240","39360","39360","39360","td","null","null","null","null","null","null","[2,3]","474.0219215236961","433.6690184206374","454.5040821570804"
"","canvas-keyboard-response","113","155025","0.0-6.0-2.15","560","","","","","rectangles no change","null","null","","","critical","c","t","d","240","164","164","240","164","240","trueblood","0","h","164","240","240","164","164","240","39360","39360","39360","td","null","null","null","null","null","null","[2,3]","474.0219215236961","433.6690184206374","454.5040821570804"
"","canvas-keyboard-response","114","156359","0.0-6.0-3.15","560","","","","","rectangles with change","null","null","","","critical","c","t","d","240","164","164","240","164","240","trueblood","0","h","164","240","240","164","164","240","39360","39360","39360","td","null","null","null","null","null","null","[2,3]","474.0219215236961","433.6690184206374","454.5040821570804"
"","canvas-keyboard-response","115","156375","0.0-6.0-4.15","560","","","","","clear_screen","null","null","","","critical","c","t","d","240","164","164","240","164","240","trueblood","0","h","164","240","240","164","164","240","39360","39360","39360","td","null","null","null","null","null","null","[2,3]","474.0219215236961","433.6690184206374","454.5040821570804"
"","canvas-keyboard-response","116","156554","0.0-6.0-5.15","560","","","","","make choice","171","3","","","critical","c","t","d","240","164","164","240","164","240","trueblood","0","h","164","240","240","164","164","240","39360","39360","39360","td","null","null","null","null","null","null","[2,3]","","",""
"","canvas-keyboard-response","117","156573","0.0-6.0-6.15","560","","","","","clear_screen","null","null","","","critical","c","t","d","240","164","164","240","164","240","trueblood","0","h","164","240","240","164","164","240","39360","39360","39360","td","null","null","null","null","null","null","[2,3]","","",""
"","canvas-keyboard-response","118","156775","0.0-6.0-0.16","560","","","","","pre trial waiting period","null","null","","","catch","sw","l","sh","180","200","183","260","179","160","trueblood","null","null","null","null","null","null","null","null","null","null","null","","180","200","260","200","36000","52000","[1,2]","467.85398951991033","431.6263789168746","508.60606671731665"
"","canvas-keyboard-response","119","156794","0.0-6.0-1.16","560","","","","","clear_screen","null","null","","","catch","sw","l","sh","180","200","183","260","179","160","trueblood","null","null","null","null","null","null","null","null","null","null","null","","180","200","260","200","36000","52000","[1,2]","467.85398951991033","431.6263789168746","508.60606671731665"
"","canvas-keyboard-response","120","157304","0.0-6.0-2.16","560","","","","","rectangles no change","null","null","","","catch","sw","l","sh","180","200","183","260","179","160","trueblood","null","null","null","null","null","null","null","null","null","null","null","","180","200","260","200","36000","52000","[1,2]","467.85398951991033","431.6263789168746","508.60606671731665"
"","canvas-keyboard-response","121","158637","0.0-6.0-3.16","560","","","","","rectangles with change","null","null","","","catch","sw","l","sh","180","200","183","260","179","160","trueblood","null","null","null","null","null","null","null","null","null","null","null","","180","200","260","200","36000","52000","[1,2]","467.85398951991033","431.6263789168746","508.60606671731665"
"","canvas-keyboard-response","122","158660","0.0-6.0-4.16","560","","","","","clear_screen","null","null","","","catch","sw","l","sh","180","200","183","260","179","160","trueblood","null","null","null","null","null","null","null","null","null","null","null","","180","200","260","200","36000","52000","[1,2]","467.85398951991033","431.6263789168746","508.60606671731665"
"","canvas-keyboard-response","123","158794","0.0-6.0-5.16","560","","","","","make choice","131","2","","","catch","sw","l","sh","180","200","183","260","179","160","trueblood","null","null","null","null","null","null","null","null","null","null","null","","180","200","260","200","36000","52000","[1,2]","","",""
"","canvas-keyboard-response","124","158813","0.0-6.0-6.16","560","","","","","clear_screen","null","null","","","catch","sw","l","sh","180","200","183","260","179","160","trueblood","null","null","null","null","null","null","null","null","null","null","null","","180","200","260","200","36000","52000","[1,2]","","",""
"","canvas-keyboard-response","125","159015","0.0-6.0-0.17","560","","","","","pre trial waiting period","null","null","","","critical","c","t","d","164","240","240","164","220.0396","154.6796","spektor","0.14","w","240","164","164","240","220.0396","154.6796","39360","39360","34035.6388","td","null","null","null","null","null","null","[2,3]","482.9042451336296","182.29641725682606","542.2066527757959"
"","canvas-keyboard-response","126","159036","0.0-6.0-1.17","560","","","","","clear_screen","null","null","","","critical","c","t","d","164","240","240","164","220.0396","154.6796","spektor","0.14","w","240","164","164","240","220.0396","154.6796","39360","39360","34035.6388","td","null","null","null","null","null","null","[2,3]","482.9042451336296","182.29641725682606","542.2066527757959"
"","canvas-keyboard-response","127","159543","0.0-6.0-2.17","560","","","","","rectangles no change","null","null","","","critical","c","t","d","164","240","240","164","220.0396","154.6796","spektor","0.14","w","240","164","164","240","220.0396","154.6796","39360","39360","34035.6388","td","null","null","null","null","null","null","[2,3]","482.9042451336296","182.29641725682606","542.2066527757959"
"","canvas-keyboard-response","128","160879","0.0-6.0-3.17","560","","","","","rectangles with change","null","null","","","critical","c","t","d","164","240","240","164","220.0396","154.6796","spektor","0.14","w","240","164","164","240","220.0396","154.6796","39360","39360","34035.6388","td","null","null","null","null","null","null","[2,3]","482.9042451336296","182.29641725682606","542.2066527757959"
"","canvas-keyboard-response","129","160901","0.0-6.0-4.17","560","","","","","clear_screen","null","null","","","critical","c","t","d","164","240","240","164","220.0396","154.6796","spektor","0.14","w","240","164","164","240","220.0396","154.6796","39360","39360","34035.6388","td","null","null","null","null","null","null","[2,3]","482.9042451336296","182.29641725682606","542.2066527757959"
"","canvas-keyboard-response","130","163386","0.0-6.0-5.17","560","","","","","make choice","2481","2","","","critical","c","t","d","164","240","240","164","220.0396","154.6796","spektor","0.14","w","240","164","164","240","220.0396","154.6796","39360","39360","34035.6388","td","null","null","null","null","null","null","[2,3]","","",""
"","canvas-keyboard-response","131","163405","0.0-6.0-6.17","560","","","","","clear_screen","null","null","","","critical","c","t","d","164","240","240","164","220.0396","154.6796","spektor","0.14","w","240","164","164","240","220.0396","154.6796","39360","39360","34035.6388","td","null","null","null","null","null","null","[2,3]","","",""
"","canvas-keyboard-response","132","163606","0.0-6.0-0.18","560","","","","","pre trial waiting period","null","null","","","critical","c","t","d","240","164","164","240","158.0083","227.1683","trueblood","0.09","h","164","240","240","164","158.0083","227.1683","39360","39360","35894.4834","dc","null","null","null","null","null","null","[3,1]","510.5720361098208","445.3635042843931","476.5998110140385"
"","canvas-keyboard-response","133","163624","0.0-6.0-1.18","560","","","","","clear_screen","null","null","","","critical","c","t","d","240","164","164","240","158.0083","227.1683","trueblood","0.09","h","164","240","240","164","158.0083","227.1683","39360","39360","35894.4834","dc","null","null","null","null","null","null","[3,1]","510.5720361098208","445.3635042843931","476.5998110140385"
"","canvas-keyboard-response","134","164130","0.0-6.0-2.18","560","","","","","rectangles no change","null","null","","","critical","c","t","d","240","164","164","240","158.0083","227.1683","trueblood","0.09","h","164","240","240","164","158.0083","227.1683","39360","39360","35894.4834","dc","null","null","null","null","null","null","[3,1]","510.5720361098208","445.3635042843931","476.5998110140385"
"","canvas-keyboard-response","135","165461","0.0-6.0-3.18","560","","","","","rectangles with change","null","null","","","critical","c","t","d","240","164","164","240","158.0083","227.1683","trueblood","0.09","h","164","240","240","164","158.0083","227.1683","39360","39360","35894.4834","dc","null","null","null","null","null","null","[3,1]","510.5720361098208","445.3635042843931","476.5998110140385"
"","canvas-keyboard-response","136","165482","0.0-6.0-4.18","560","","","","","clear_screen","null","null","","","critical","c","t","d","240","164","164","240","158.0083","227.1683","trueblood","0.09","h","164","240","240","164","158.0083","227.1683","39360","39360","35894.4834","dc","null","null","null","null","null","null","[3,1]","510.5720361098208","445.3635042843931","476.5998110140385"
"","canvas-keyboard-response","137","165754","0.0-6.0-5.18","560","","","","","make choice","266","1","","","critical","c","t","d","240","164","164","240","158.0083","227.1683","trueblood","0.09","h","164","240","240","164","158.0083","227.1683","39360","39360","35894.4834","dc","null","null","null","null","null","null","[3,1]","","",""
"","canvas-keyboard-response","138","165772","0.0-6.0-6.18","560","","","","","clear_screen","null","null","","","critical","c","t","d","240","164","164","240","158.0083","227.1683","trueblood","0.09","h","164","240","240","164","158.0083","227.1683","39360","39360","35894.4834","dc","null","null","null","null","null","null","[3,1]","","",""
"","canvas-keyboard-response","139","165973","0.0-6.0-0.19","560","","","","","pre trial waiting period","null","null","","","catch","sw","l","sh","180","200","221","192","210","168","spektor","null","null","null","null","null","null","null","null","null","null","null","","180","200","260","200","36000","52000","[1,2]","494.75383530884983","161.1328335894866","492.2682090504041"
"","canvas-keyboard-response","140","165996","0.0-6.0-1.19","560","","","","","clear_screen","null","null","","","catch","sw","l","sh","180","200","221","192","210","168","spektor","null","null","null","null","null","null","null","null","null","null","null","","180","200","260","200","36000","52000","[1,2]","494.75383530884983","161.1328335894866","492.2682090504041"
"","canvas-keyboard-response","141","166506","0.0-6.0-2.19","560","","","","","rectangles no change","null","null","","","catch","sw","l","sh","180","200","221","192","210","168","spektor","null","null","null","null","null","null","null","null","null","null","null","","180","200","260","200","36000","52000","[1,2]","494.75383530884983","161.1328335894866","492.2682090504041"
"","canvas-keyboard-response","142","167841","0.0-6.0-3.19","560","","","","","rectangles with change","null","null","","","catch","sw","l","sh","180","200","221","192","210","168","spektor","null","null","null","null","null","null","null","null","null","null","null","","180","200","260","200","36000","52000","[1,2]","494.75383530884983","161.1328335894866","492.2682090504041"
"","canvas-keyboard-response","143","167859","0.0-6.0-4.19","560","","","","","clear_screen","null","null","","","catch","sw","l","sh","180","200","221","192","210","168","spektor","null","null","null","null","null","null","null","null","null","null","null","","180","200","260","200","36000","52000","[1,2]","494.75383530884983","161.1328335894866","492.2682090504041"
"","canvas-keyboard-response","144","167866","0.0-6.0-5.19","560","","","","","make choice","0","2","","","catch","sw","l","sh","180","200","221","192","210","168","spektor","null","null","null","null","null","null","null","null","null","null","null","","180","200","260","200","36000","52000","[1,2]","","",""
"","canvas-keyboard-response","145","167882","0.0-6.0-6.19","560","","","","","clear_screen","null","null","","","catch","sw","l","sh","180","200","221","192","210","168","spektor","null","null","null","null","null","null","null","null","null","null","null","","180","200","260","200","36000","52000","[1,2]","","",""
"","canvas-keyboard-response","146","168083","0.0-6.0-0.20","560","","","","","pre trial waiting period","null","null","","","critical","t","d","c","240","164","232.8713","160.6713","164","240","trueblood","0.05","w","240","164","164","240","232.8713","160.6713","39360","39360","37415.7294","tc","null","null","null","null","null","null","[1,3]","502.25029657007576","484.7917693163047","427.05216200985114"
"","canvas-keyboard-response","147","168102","0.0-6.0-1.20","560","","","","","clear_screen","null","null","","","critical","t","d","c","240","164","232.8713","160.6713","164","240","trueblood","0.05","w","240","164","164","240","232.8713","160.6713","39360","39360","37415.7294","tc","null","null","null","null","null","null","[1,3]","502.25029657007576","484.7917693163047","427.05216200985114"
"","canvas-keyboard-response","148","168610","0.0-6.0-2.20","560","","","","","rectangles no change","null","null","","","critical","t","d","c","240","164","232.8713","160.6713","164","240","trueblood","0.05","w","240","164","164","240","232.8713","160.6713","39360","39360","37415.7294","tc","null","null","null","null","null","null","[1,3]","502.25029657007576","484.7917693163047","427.05216200985114"
"","canvas-keyboard-response","149","169946","0.0-6.0-3.20","560","","","","","rectangles with change","null","null","","","critical","t","d","c","240","164","232.8713","160.6713","164","240","trueblood","0.05","w","240","164","164","240","232.8713","160.6713","39360","39360","37415.7294","tc","null","null","null","null","null","null","[1,3]","502.25029657007576","484.7917693163047","427.05216200985114"
"","canvas-keyboard-response","150","169964","0.0-6.0-4.20","560","","","","","clear_screen","null","null","","","critical","t","d","c","240","164","232.8713","160.6713","164","240","trueblood","0.05","w","240","164","164","240","232.8713","160.6713","39360","39360","37415.7294","tc","null","null","null","null","null","null","[1,3]","502.25029657007576","484.7917693163047","427.05216200985114"
"","canvas-keyboard-response","151","170169","0.0-6.0-5.20","560","","","","","make choice","199","3","","","critical","t","d","c","240","164","232.8713","160.6713","164","240","trueblood","0.05","w","240","164","164","240","232.8713","160.6713","39360","39360","37415.7294","tc","null","null","null","null","null","null","[1,3]","","",""
"","canvas-keyboard-response","152","170185","0.0-6.0-6.20","560","","","","","clear_screen","null","null","","","critical","t","d","c","240","164","232.8713","160.6713","164","240","trueblood","0.05","w","240","164","164","240","232.8713","160.6713","39360","39360","37415.7294","tc","null","null","null","null","null","null","[1,3]","","",""
"","canvas-keyboard-response","153","170387","0.0-6.0-0.21","560","","","","","pre trial waiting period","null","null","","","critical","t","c","d","240","164","164","240","227.1683","158.0083","trueblood","0.09","w","240","164","164","240","227.1683","158.0083","39360","39360","35894.4834","dc","null","null","null","null","null","null","[3,2]","507.50401606308884","428.76462880965926","474.0476512039462"
"","canvas-keyboard-response","154","170406","0.0-6.0-1.21","560","","","","","clear_screen","null","null","","","critical","t","c","d","240","164","164","240","227.1683","158.0083","trueblood","0.09","w","240","164","164","240","227.1683","158.0083","39360","39360","35894.4834","dc","null","null","null","null","null","null","[3,2]","507.50401606308884","428.76462880965926","474.0476512039462"
"","canvas-keyboard-response","155","170913","0.0-6.0-2.21","560","","","","","rectangles no change","null","null","","","critical","t","c","d","240","164","164","240","227.1683","158.0083","trueblood","0.09","w","240","164","164","240","227.1683","158.0083","39360","39360","35894.4834","dc","null","null","null","null","null","null","[3,2]","507.50401606308884","428.76462880965926","474.0476512039462"
"","canvas-keyboard-response","156","172247","0.0-6.0-3.21","560","","","","","rectangles with change","null","null","","","critical","t","c","d","240","164","164","240","227.1683","158.0083","trueblood","0.09","w","240","164","164","240","227.1683","158.0083","39360","39360","35894.4834","dc","null","null","null","null","null","null","[3,2]","507.50401606308884","428.76462880965926","474.0476512039462"
"","canvas-keyboard-response","157","172265","0.0-6.0-4.21","560","","","","","clear_screen","null","null","","","critical","t","c","d","240","164","164","240","227.1683","158.0083","trueblood","0.09","w","240","164","164","240","227.1683","158.0083","39360","39360","35894.4834","dc","null","null","null","null","null","null","[3,2]","507.50401606308884","428.76462880965926","474.0476512039462"
"","canvas-keyboard-response","158","172306","0.0-6.0-5.21","560","","","","","make choice","34","2","","","critical","t","c","d","240","164","164","240","227.1683","158.0083","trueblood","0.09","w","240","164","164","240","227.1683","158.0083","39360","39360","35894.4834","dc","null","null","null","null","null","null","[3,2]","","",""
"","canvas-keyboard-response","159","172323","0.0-6.0-6.21","560","","","","","clear_screen","null","null","","","critical","t","c","d","240","164","164","240","227.1683","158.0083","trueblood","0.09","w","240","164","164","240","227.1683","158.0083","39360","39360","35894.4834","dc","null","null","null","null","null","null","[3,2]","","",""
"","canvas-keyboard-response","160","172525","0.0-6.0-0.22","560","","","","","pre trial waiting period","null","null","","","critical","d","t","c","164","240","164","240","240","164","spektor","0","h","164","240","240","164","164","240","39360","39360","39360","tc","null","null","null","null","null","null","[2,3]","502.19111678484586","109.03155744235885","516.9426027725361"
"","canvas-keyboard-response","161","172546","0.0-6.0-1.22","560","","","","","clear_screen","null","null","","","critical","d","t","c","164","240","164","240","240","164","spektor","0","h","164","240","240","164","164","240","39360","39360","39360","tc","null","null","null","null","null","null","[2,3]","502.19111678484586","109.03155744235885","516.9426027725361"
"","canvas-keyboard-response","162","173052","0.0-6.0-2.22","560","","","","","rectangles no change","null","null","","","critical","d","t","c","164","240","164","240","240","164","spektor","0","h","164","240","240","164","164","240","39360","39360","39360","tc","null","null","null","null","null","null","[2,3]","502.19111678484586","109.03155744235885","516.9426027725361"
"","canvas-keyboard-response","163","174391","0.0-6.0-3.22","560","","","","","rectangles with change","null","null","","","critical","d","t","c","164","240","164","240","240","164","spektor","0","h","164","240","240","164","164","240","39360","39360","39360","tc","null","null","null","null","null","null","[2,3]","502.19111678484586","109.03155744235885","516.9426027725361"
"","canvas-keyboard-response","164","174407","0.0-6.0-4.22","560","","","","","clear_screen","null","null","","","critical","d","t","c","164","240","164","240","240","164","spektor","0","h","164","240","240","164","164","240","39360","39360","39360","tc","null","null","null","null","null","null","[2,3]","502.19111678484586","109.03155744235885","516.9426027725361"
"","canvas-keyboard-response","165","174427","0.0-6.0-5.22","560","","","","","make choice","8","3","","","critical","d","t","c","164","240","164","240","240","164","spektor","0","h","164","240","240","164","164","240","39360","39360","39360","tc","null","null","null","null","null","null","[2,3]","","",""
"","canvas-keyboard-response","166","174451","0.0-6.0-6.22","560","","","","","clear_screen","null","null","","","critical","d","t","c","164","240","164","240","240","164","spektor","0","h","164","240","240","164","164","240","39360","39360","39360","tc","null","null","null","null","null","null","[2,3]","","",""
"","canvas-keyboard-response","167","174652","0.0-6.0-0.23","560","","","","","pre trial waiting period","null","null","","","critical","c","d","t","240","164","162.6685","237.1485","164","240","trueblood","0.02","h","164","240","240","164","162.6685","237.1485","39360","39360","38576.5967","tc","null","null","null","null","null","null","[3,1]","491.17758790847097","430.5931733041721","426.0019003888988"
"","canvas-keyboard-response","168","174674","0.0-6.0-1.23","560","","","","","clear_screen","null","null","","","critical","c","d","t","240","164","162.6685","237.1485","164","240","trueblood","0.02","h","164","240","240","164","162.6685","237.1485","39360","39360","38576.5967","tc","null","null","null","null","null","null","[3,1]","491.17758790847097","430.5931733041721","426.0019003888988"
"","canvas-keyboard-response","169","175181","0.0-6.0-2.23","560","","","","","rectangles no change","null","null","","","critical","c","d","t","240","164","162.6685","237.1485","164","240","trueblood","0.02","h","164","240","240","164","162.6685","237.1485","39360","39360","38576.5967","tc","null","null","null","null","null","null","[3,1]","491.17758790847097","430.5931733041721","426.0019003888988"
"","canvas-keyboard-response","170","176512","0.0-6.0-3.23","560","","","","","rectangles with change","null","null","","","critical","c","d","t","240","164","162.6685","237.1485","164","240","trueblood","0.02","h","164","240","240","164","162.6685","237.1485","39360","39360","38576.5967","tc","null","null","null","null","null","null","[3,1]","491.17758790847097","430.5931733041721","426.0019003888988"
"","canvas-keyboard-response","171","176534","0.0-6.0-4.23","560","","","","","clear_screen","null","null","","","critical","c","d","t","240","164","162.6685","237.1485","164","240","trueblood","0.02","h","164","240","240","164","162.6685","237.1485","39360","39360","38576.5967","tc","null","null","null","null","null","null","[3,1]","491.17758790847097","430.5931733041721","426.0019003888988"
"","canvas-keyboard-response","172","176635","0.0-6.0-5.23","560","","","","","make choice","92","1","","","critical","c","d","t","240","164","162.6685","237.1485","164","240","trueblood","0.02","h","164","240","240","164","162.6685","237.1485","39360","39360","38576.5967","tc","null","null","null","null","null","null","[3,1]","","",""
"","canvas-keyboard-response","173","176655","0.0-6.0-6.23","560","","","","","clear_screen","null","null","","","critical","c","d","t","240","164","162.6685","237.1485","164","240","trueblood","0.02","h","164","240","240","164","162.6685","237.1485","39360","39360","38576.5967","tc","null","null","null","null","null","null","[3,1]","","",""
"","canvas-keyboard-response","174","176857","0.0-6.0-0.24","560","","","","","pre trial waiting period","null","null","","","critical","d","c","t","220.0396","154.6796","164","240","240","164","trueblood","0.14","w","240","164","164","240","220.0396","154.6796","39360","39360","34035.6388","td","null","null","null","null","null","null","[3,1]","516.9038916767661","422.8751555283207","473.97869254432226"
"","canvas-keyboard-response","175","176879","0.0-6.0-1.24","560","","","","","clear_screen","null","null","","","critical","d","c","t","220.0396","154.6796","164","240","240","164","trueblood","0.14","w","240","164","164","240","220.0396","154.6796","39360","39360","34035.6388","td","null","null","null","null","null","null","[3,1]","516.9038916767661","422.8751555283207","473.97869254432226"
"","canvas-keyboard-response","176","177386","0.0-6.0-2.24","560","","","","","rectangles no change","null","null","","","critical","d","c","t","220.0396","154.6796","164","240","240","164","trueblood","0.14","w","240","164","164","240","220.0396","154.6796","39360","39360","34035.6388","td","null","null","null","null","null","null","[3,1]","516.9038916767661","422.8751555283207","473.97869254432226"
"","canvas-keyboard-response","177","178718","0.0-6.0-3.24","560","","","","","rectangles with change","null","null","","","critical","d","c","t","220.0396","154.6796","164","240","240","164","trueblood","0.14","w","240","164","164","240","220.0396","154.6796","39360","39360","34035.6388","td","null","null","null","null","null","null","[3,1]","516.9038916767661","422.8751555283207","473.97869254432226"
"","canvas-keyboard-response","178","178727","0.0-6.0-4.24","560","","","","","clear_screen","1","1","","","critical","d","c","t","220.0396","154.6796","164","240","240","164","trueblood","0.14","w","240","164","164","240","220.0396","154.6796","39360","39360","34035.6388","td","null","null","null","null","null","null","[3,1]","516.9038916767661","422.8751555283207","473.97869254432226"
"","canvas-keyboard-response","179","178986","0.0-6.0-5.24","560","","","","","make choice","254","1","","","critical","d","c","t","220.0396","154.6796","164","240","240","164","trueblood","0.14","w","240","164","164","240","220.0396","154.6796","39360","39360","34035.6388","td","null","null","null","null","null","null","[3,1]","","",""
"","canvas-keyboard-response","180","179007","0.0-6.0-6.24","560","","","","","clear_screen","null","null","","","critical","d","c","t","220.0396","154.6796","164","240","240","164","trueblood","0.14","w","240","164","164","240","220.0396","154.6796","39360","39360","34035.6388","td","null","null","null","null","null","null","[3,1]","","",""
"","canvas-keyboard-response","181","179208","0.0-6.0-0.25","560","","","","","pre trial waiting period","null","null","","","critical","d","t","c","227.1683","158.0083","240","164","164","240","spektor","0.09","w","240","164","164","240","227.1683","158.0083","39360","39360","35894.4834","dc","null","null","null","null","null","null","[1,3]","520.3420393868536","200.4263971763066","466.2735863039477"
"","canvas-keyboard-response","182","179225","0.0-6.0-1.25","560","","","","","clear_screen","null","null","","","critical","d","t","c","227.1683","158.0083","240","164","164","240","spektor","0.09","w","240","164","164","240","227.1683","158.0083","39360","39360","35894.4834","dc","null","null","null","null","null","null","[1,3]","520.3420393868536","200.4263971763066","466.2735863039477"
"","canvas-keyboard-response","183","179733","0.0-6.0-2.25","560","","","","","rectangles no change","null","null","","","critical","d","t","c","227.1683","158.0083","240","164","164","240","spektor","0.09","w","240","164","164","240","227.1683","158.0083","39360","39360","35894.4834","dc","null","null","null","null","null","null","[1,3]","520.3420393868536","200.4263971763066","466.2735863039477"
"","canvas-keyboard-response","184","181069","0.0-6.0-3.25","560","","","","","rectangles with change","null","null","","","critical","d","t","c","227.1683","158.0083","240","164","164","240","spektor","0.09","w","240","164","164","240","227.1683","158.0083","39360","39360","35894.4834","dc","null","null","null","null","null","null","[1,3]","520.3420393868536","200.4263971763066","466.2735863039477"
"","canvas-keyboard-response","185","181090","0.0-6.0-4.25","560","","","","","clear_screen","null","null","","","critical","d","t","c","227.1683","158.0083","240","164","164","240","spektor","0.09","w","240","164","164","240","227.1683","158.0083","39360","39360","35894.4834","dc","null","null","null","null","null","null","[1,3]","520.3420393868536","200.4263971763066","466.2735863039477"
"","canvas-keyboard-response","186","181129","0.0-6.0-5.25","560","","","","","make choice","32","3","","","critical","d","t","c","227.1683","158.0083","240","164","164","240","spektor","0.09","w","240","164","164","240","227.1683","158.0083","39360","39360","35894.4834","dc","null","null","null","null","null","null","[1,3]","","",""
"","canvas-keyboard-response","187","181146","0.0-6.0-6.25","560","","","","","clear_screen","null","null","","","critical","d","t","c","227.1683","158.0083","240","164","164","240","spektor","0.09","w","240","164","164","240","227.1683","158.0083","39360","39360","35894.4834","dc","null","null","null","null","null","null","[1,3]","","",""
"","canvas-keyboard-response","188","181346","0.0-6.0-0.26","560","","","","","pre trial waiting period","null","null","","","catch","l","sh","sw","297","170","220","188","183","167","spektor","null","null","null","null","null","null","null","null","null","null","null","","180","200","260","200","36000","52000","[1,2]","525.2328805597119","186.31178518146675","507.155410667675"
"","canvas-keyboard-response","189","181366","0.0-6.0-1.26","560","","","","","clear_screen","null","null","","","catch","l","sh","sw","297","170","220","188","183","167","spektor","null","null","null","null","null","null","null","null","null","null","null","","180","200","260","200","36000","52000","[1,2]","525.2328805597119","186.31178518146675","507.155410667675"
"","canvas-keyboard-response","190","181875","0.0-6.0-2.26","560","","","","","rectangles no change","null","null","","","catch","l","sh","sw","297","170","220","188","183","167","spektor","null","null","null","null","null","null","null","null","null","null","null","","180","200","260","200","36000","52000","[1,2]","525.2328805597119","186.31178518146675","507.155410667675"
"","canvas-keyboard-response","191","183211","0.0-6.0-3.26","560","","","","","rectangles with change","null","null","","","catch","l","sh","sw","297","170","220","188","183","167","spektor","null","null","null","null","null","null","null","null","null","null","null","","180","200","260","200","36000","52000","[1,2]","525.2328805597119","186.31178518146675","507.155410667675"
"","canvas-keyboard-response","192","183231","0.0-6.0-4.26","560","","","","","clear_screen","null","null","","","catch","l","sh","sw","297","170","220","188","183","167","spektor","null","null","null","null","null","null","null","null","null","null","null","","180","200","260","200","36000","52000","[1,2]","525.2328805597119","186.31178518146675","507.155410667675"
"","canvas-keyboard-response","193","183246","0.0-6.0-5.26","560","","","","","make choice","7","1","","","catch","l","sh","sw","297","170","220","188","183","167","spektor","null","null","null","null","null","null","null","null","null","null","null","","180","200","260","200","36000","52000","[1,2]","","",""
"","canvas-keyboard-response","194","183263","0.0-6.0-6.26","560","","","","","clear_screen","null","null","","","catch","l","sh","sw","297","170","220","188","183","167","spektor","null","null","null","null","null","null","null","null","null","null","null","","180","200","260","200","36000","52000","[1,2]","","",""
"","canvas-keyboard-response","195","183465","0.0-6.0-0.27","560","","","","","pre trial waiting period","null","null","","","critical","d","c","t","227.1683","158.0083","164","240","240","164","spektor","0.09","w","240","164","164","240","227.1683","158.0083","39360","39360","35894.4834","tc","null","null","null","null","null","null","[3,2]","542.2335131404418","122.48893546343345","500.9143381821487"
"","canvas-keyboard-response","196","183485","0.0-6.0-1.27","560","","","","","clear_screen","null","null","","","critical","d","c","t","227.1683","158.0083","164","240","240","164","spektor","0.09","w","240","164","164","240","227.1683","158.0083","39360","39360","35894.4834","tc","null","null","null","null","null","null","[3,2]","542.2335131404418","122.48893546343345","500.9143381821487"
"","canvas-keyboard-response","197","183996","0.0-6.0-2.27","560","","","","","rectangles no change","null","null","","","critical","d","c","t","227.1683","158.0083","164","240","240","164","spektor","0.09","w","240","164","164","240","227.1683","158.0083","39360","39360","35894.4834","tc","null","null","null","null","null","null","[3,2]","542.2335131404418","122.48893546343345","500.9143381821487"
"","canvas-keyboard-response","198","185336","0.0-6.0-3.27","560","","","","","rectangles with change","null","null","","","critical","d","c","t","227.1683","158.0083","164","240","240","164","spektor","0.09","w","240","164","164","240","227.1683","158.0083","39360","39360","35894.4834","tc","null","null","null","null","null","null","[3,2]","542.2335131404418","122.48893546343345","500.9143381821487"
"","canvas-keyboard-response","199","185358","0.0-6.0-4.27","560","","","","","clear_screen","null","null","","","critical","d","c","t","227.1683","158.0083","164","240","240","164","spektor","0.09","w","240","164","164","240","227.1683","158.0083","39360","39360","35894.4834","tc","null","null","null","null","null","null","[3,2]","542.2335131404418","122.48893546343345","500.9143381821487"
"","canvas-keyboard-response","200","185497","0.0-6.0-5.27","560","","","","","make choice","134","3","","","critical","d","c","t","227.1683","158.0083","164","240","240","164","spektor","0.09","w","240","164","164","240","227.1683","158.0083","39360","39360","35894.4834","tc","null","null","null","null","null","null","[3,2]","","",""
"","canvas-keyboard-response","201","185515","0.0-6.0-6.27","560","","","","","clear_screen","null","null","","","critical","d","c","t","227.1683","158.0083","164","240","240","164","spektor","0.09","w","240","164","164","240","227.1683","158.0083","39360","39360","35894.4834","tc","null","null","null","null","null","null","[3,2]","","",""
"","canvas-keyboard-response","202","185716","0.0-6.0-0.28","560","","","","","pre trial waiting period","null","null","","","critical","t","d","c","164","240","154.6796","220.0396","240","164","spektor","0.14","h","164","240","240","164","154.6796","220.0396","39360","39360","34035.6388","tc","null","null","null","null","null","null","[1,3]","480.5161780242004","137.4801606151871","521.6021709428503"
"","canvas-keyboard-response","203","185737","0.0-6.0-1.28","560","","","","","clear_screen","null","null","","","critical","t","d","c","164","240","154.6796","220.0396","240","164","spektor","0.14","h","164","240","240","164","154.6796","220.0396","39360","39360","34035.6388","tc","null","null","null","null","null","null","[1,3]","480.5161780242004","137.4801606151871","521.6021709428503"
"","canvas-keyboard-response","204","186244","0.0-6.0-2.28","560","","","","","rectangles no change","null","null","","","critical","t","d","c","164","240","154.6796","220.0396","240","164","spektor","0.14","h","164","240","240","164","154.6796","220.0396","39360","39360","34035.6388","tc","null","null","null","null","null","null","[1,3]","480.5161780242004","137.4801606151871","521.6021709428503"
"","canvas-keyboard-response","205","187580","0.0-6.0-3.28","560","","","","","rectangles with change","null","null","","","critical","t","d","c","164","240","154.6796","220.0396","240","164","spektor","0.14","h","164","240","240","164","154.6796","220.0396","39360","39360","34035.6388","tc","null","null","null","null","null","null","[1,3]","480.5161780242004","137.4801606151871","521.6021709428503"
"","canvas-keyboard-response","206","187605","0.0-6.0-4.28","560","","","","","clear_screen","null","null","","","critical","t","d","c","164","240","154.6796","220.0396","240","164","spektor","0.14","h","164","240","240","164","154.6796","220.0396","39360","39360","34035.6388","tc","null","null","null","null","null","null","[1,3]","480.5161780242004","137.4801606151871","521.6021709428503"
"","canvas-keyboard-response","207","187995","0.0-6.0-5.28","560","","","","","make choice","386","1","","","critical","t","d","c","164","240","154.6796","220.0396","240","164","spektor","0.14","h","164","240","240","164","154.6796","220.0396","39360","39360","34035.6388","tc","null","null","null","null","null","null","[1,3]","","",""
"","canvas-keyboard-response","208","188016","0.0-6.0-6.28","560","","","","","clear_screen","null","null","","","critical","t","d","c","164","240","154.6796","220.0396","240","164","spektor","0.14","h","164","240","240","164","154.6796","220.0396","39360","39360","34035.6388","tc","null","null","null","null","null","null","[1,3]","","",""
"","canvas-keyboard-response","209","188216","0.0-6.0-0.29","560","","","","","pre trial waiting period","null","null","","","catch","sw","l","sh","180","200","216","268","186","216","spektor","null","null","null","null","null","null","null","null","null","null","null","","180","200","260","200","36000","52000","[1,2]","514.9666499677875","68.07780868243918","469.5232480113658"
"","canvas-keyboard-response","210","188236","0.0-6.0-1.29","560","","","","","clear_screen","null","null","","","catch","sw","l","sh","180","200","216","268","186","216","spektor","null","null","null","null","null","null","null","null","null","null","null","","180","200","260","200","36000","52000","[1,2]","514.9666499677875","68.07780868243918","469.5232480113658"
"","canvas-keyboard-response","211","188742","0.0-6.0-2.29","560","","","","","rectangles no change","null","null","","","catch","sw","l","sh","180","200","216","268","186","216","spektor","null","null","null","null","null","null","null","null","null","null","null","","180","200","260","200","36000","52000","[1,2]","514.9666499677875","68.07780868243918","469.5232480113658"
"","canvas-keyboard-response","212","190081","0.0-6.0-3.29","560","","","","","rectangles with change","null","null","","","catch","sw","l","sh","180","200","216","268","186","216","spektor","null","null","null","null","null","null","null","null","null","null","null","","180","200","260","200","36000","52000","[1,2]","514.9666499677875","68.07780868243918","469.5232480113658"
"","canvas-keyboard-response","213","190102","0.0-6.0-4.29","560","","","","","clear_screen","null","null","","","catch","sw","l","sh","180","200","216","268","186","216","spektor","null","null","null","null","null","null","null","null","null","null","null","","180","200","260","200","36000","52000","[1,2]","514.9666499677875","68.07780868243918","469.5232480113658"
"","canvas-keyboard-response","214","190250","0.0-6.0-5.29","560","","","","","make choice","143","2","","","catch","sw","l","sh","180","200","216","268","186","216","spektor","null","null","null","null","null","null","null","null","null","null","null","","180","200","260","200","36000","52000","[1,2]","","",""
"","canvas-keyboard-response","215","190270","0.0-6.0-6.29","560","","","","","clear_screen","null","null","","","catch","sw","l","sh","180","200","216","268","186","216","spektor","null","null","null","null","null","null","null","null","null","null","null","","180","200","260","200","36000","52000","[1,2]","","",""
"","canvas-keyboard-response","216","190471","0.0-6.0-0.30","560","","","","","pre trial waiting period","null","null","","","critical","d","t","c","232.8713","160.6713","240","164","164","240","spektor","0.05","w","240","164","164","240","232.8713","160.6713","39360","39360","37415.7294","td","null","null","null","null","null","null","[2,1]","517.2240892580627","181.74972111336456","461.36710787460686"
"","canvas-keyboard-response","217","190491","0.0-6.0-1.30","560","","","","","clear_screen","null","null","","","critical","d","t","c","232.8713","160.6713","240","164","164","240","spektor","0.05","w","240","164","164","240","232.8713","160.6713","39360","39360","37415.7294","td","null","null","null","null","null","null","[2,1]","517.2240892580627","181.74972111336456","461.36710787460686"
"","canvas-keyboard-response","218","190999","0.0-6.0-2.30","560","","","","","rectangles no change","null","null","","","critical","d","t","c","232.8713","160.6713","240","164","164","240","spektor","0.05","w","240","164","164","240","232.8713","160.6713","39360","39360","37415.7294","td","null","null","null","null","null","null","[2,1]","517.2240892580627","181.74972111336456","461.36710787460686"
"","canvas-keyboard-response","219","192337","0.0-6.0-3.30","560","","","","","rectangles with change","null","null","","","critical","d","t","c","232.8713","160.6713","240","164","164","240","spektor","0.05","w","240","164","164","240","232.8713","160.6713","39360","39360","37415.7294","td","null","null","null","null","null","null","[2,1]","517.2240892580627","181.74972111336456","461.36710787460686"
"","canvas-keyboard-response","220","192355","0.0-6.0-4.30","560","","","","","clear_screen","null","null","","","critical","d","t","c","232.8713","160.6713","240","164","164","240","spektor","0.05","w","240","164","164","240","232.8713","160.6713","39360","39360","37415.7294","td","null","null","null","null","null","null","[2,1]","517.2240892580627","181.74972111336456","461.36710787460686"
"","canvas-keyboard-response","221","192435","0.0-6.0-5.30","560","","","","","make choice","69","1","","","critical","d","t","c","232.8713","160.6713","240","164","164","240","spektor","0.05","w","240","164","164","240","232.8713","160.6713","39360","39360","37415.7294","td","null","null","null","null","null","null","[2,1]","","",""
"","canvas-keyboard-response","222","192461","0.0-6.0-6.30","560","","","","","clear_screen","null","null","","","critical","d","t","c","232.8713","160.6713","240","164","164","240","spektor","0.05","w","240","164","164","240","232.8713","160.6713","39360","39360","37415.7294","td","null","null","null","null","null","null","[2,1]","","",""
"","canvas-keyboard-response","223","192662","0.0-6.0-0.31","560","","","","","pre trial waiting period","null","null","","","critical","d","c","t","162.6685","237.1485","240","164","164","240","spektor","0.02","h","164","240","240","164","162.6685","237.1485","39360","39360","38576.5967","dc","null","null","null","null","null","null","[1,2]","490.72764095318274","160.61954830219844","491.3395093568472"
"","canvas-keyboard-response","224","192686","0.0-6.0-1.31","560","","","","","clear_screen","null","null","","","critical","d","c","t","162.6685","237.1485","240","164","164","240","spektor","0.02","h","164","240","240","164","162.6685","237.1485","39360","39360","38576.5967","dc","null","null","null","null","null","null","[1,2]","490.72764095318274","160.61954830219844","491.3395093568472"
"","canvas-keyboard-response","225","193192","0.0-6.0-2.31","560","","","","","rectangles no change","null","null","","","critical","d","c","t","162.6685","237.1485","240","164","164","240","spektor","0.02","h","164","240","240","164","162.6685","237.1485","39360","39360","38576.5967","dc","null","null","null","null","null","null","[1,2]","490.72764095318274","160.61954830219844","491.3395093568472"
"","canvas-keyboard-response","226","194530","0.0-6.0-3.31","560","","","","","rectangles with change","null","null","","","critical","d","c","t","162.6685","237.1485","240","164","164","240","spektor","0.02","h","164","240","240","164","162.6685","237.1485","39360","39360","38576.5967","dc","null","null","null","null","null","null","[1,2]","490.72764095318274","160.61954830219844","491.3395093568472"
"","canvas-keyboard-response","227","194551","0.0-6.0-4.31","560","","","","","clear_screen","null","null","","","critical","d","c","t","162.6685","237.1485","240","164","164","240","spektor","0.02","h","164","240","240","164","162.6685","237.1485","39360","39360","38576.5967","dc","null","null","null","null","null","null","[1,2]","490.72764095318274","160.61954830219844","491.3395093568472"
"","canvas-keyboard-response","228","194730","0.0-6.0-5.31","560","","","","","make choice","175","1","","","critical","d","c","t","162.6685","237.1485","240","164","164","240","spektor","0.02","h","164","240","240","164","162.6685","237.1485","39360","39360","38576.5967","dc","null","null","null","null","null","null","[1,2]","","",""
"","canvas-keyboard-response","229","194748","0.0-6.0-6.31","560","","","","","clear_screen","null","null","","","critical","d","c","t","162.6685","237.1485","240","164","164","240","spektor","0.02","h","164","240","240","164","162.6685","237.1485","39360","39360","38576.5967","dc","null","null","null","null","null","null","[1,2]","","",""
"","canvas-keyboard-response","230","194949","0.0-6.0-0.32","560","","","","","pre trial waiting period","null","null","","","critical","c","d","t","164","240","232.8713","160.6713","240","164","spektor","0.05","w","240","164","164","240","232.8713","160.6713","39360","39360","37415.7294","dc","null","null","null","null","null","null","[2,1]","463.52466707180315","195.4863312173612","538.6349402320506"
"","canvas-keyboard-response","231","194970","0.0-6.0-1.32","560","","","","","clear_screen","null","null","","","critical","c","d","t","164","240","232.8713","160.6713","240","164","spektor","0.05","w","240","164","164","240","232.8713","160.6713","39360","39360","37415.7294","dc","null","null","null","null","null","null","[2,1]","463.52466707180315","195.4863312173612","538.6349402320506"
"","canvas-keyboard-response","232","195476","0.0-6.0-2.32","560","","","","","rectangles no change","null","null","","","critical","c","d","t","164","240","232.8713","160.6713","240","164","spektor","0.05","w","240","164","164","240","232.8713","160.6713","39360","39360","37415.7294","dc","null","null","null","null","null","null","[2,1]","463.52466707180315","195.4863312173612","538.6349402320506"
"","canvas-keyboard-response","233","196812","0.0-6.0-3.32","560","","","","","rectangles with change","null","null","","","critical","c","d","t","164","240","232.8713","160.6713","240","164","spektor","0.05","w","240","164","164","240","232.8713","160.6713","39360","39360","37415.7294","dc","null","null","null","null","null","null","[2,1]","463.52466707180315","195.4863312173612","538.6349402320506"
"","canvas-keyboard-response","234","196832","0.0-6.0-4.32","560","","","","","clear_screen","null","null","","","critical","c","d","t","164","240","232.8713","160.6713","240","164","spektor","0.05","w","240","164","164","240","232.8713","160.6713","39360","39360","37415.7294","dc","null","null","null","null","null","null","[2,1]","463.52466707180315","195.4863312173612","538.6349402320506"
"","canvas-keyboard-response","235","196890","0.0-6.0-5.32","560","","","","","make choice","53","1","","","critical","c","d","t","164","240","232.8713","160.6713","240","164","spektor","0.05","w","240","164","164","240","232.8713","160.6713","39360","39360","37415.7294","dc","null","null","null","null","null","null","[2,1]","","",""
"","canvas-keyboard-response","236","196909","0.0-6.0-6.32","560","","","","","clear_screen","null","null","","","critical","c","d","t","164","240","232.8713","160.6713","240","164","spektor","0.05","w","240","164","164","240","232.8713","160.6713","39360","39360","37415.7294","dc","null","null","null","null","null","null","[2,1]","","",""
"","canvas-keyboard-response","237","197110","0.0-6.0-0.33","560","","","","","pre trial waiting period","null","null","","","catch","l","sh","sw","264","190","215","167","160","228","spektor","null","null","null","null","null","null","null","null","null","null","null","","180","200","260","200","36000","52000","[1,2]","514.8554676344295","193.20751249388377","467.79417564726754"
"","canvas-keyboard-response","238","197133","0.0-6.0-1.33","560","","","","","clear_screen","null","null","","","catch","l","sh","sw","264","190","215","167","160","228","spektor","null","null","null","null","null","null","null","null","null","null","null","","180","200","260","200","36000","52000","[1,2]","514.8554676344295","193.20751249388377","467.79417564726754"
"","canvas-keyboard-response","239","197638","0.0-6.0-2.33","560","","","","","rectangles no change","null","null","","","catch","l","sh","sw","264","190","215","167","160","228","spektor","null","null","null","null","null","null","null","null","null","null","null","","180","200","260","200","36000","52000","[1,2]","514.8554676344295","193.20751249388377","467.79417564726754"
"","canvas-keyboard-response","240","198973","0.0-6.0-3.33","560","","","","","rectangles with change","null","null","","","catch","l","sh","sw","264","190","215","167","160","228","spektor","null","null","null","null","null","null","null","null","null","null","null","","180","200","260","200","36000","52000","[1,2]","514.8554676344295","193.20751249388377","467.79417564726754"
"","canvas-keyboard-response","241","198994","0.0-6.0-4.33","560","","","","","clear_screen","null","null","","","catch","l","sh","sw","264","190","215","167","160","228","spektor","null","null","null","null","null","null","null","null","null","null","null","","180","200","260","200","36000","52000","[1,2]","514.8554676344295","193.20751249388377","467.79417564726754"
"","canvas-keyboard-response","242","199170","0.0-6.0-5.33","560","","","","","make choice","170","1","","","catch","l","sh","sw","264","190","215","167","160","228","spektor","null","null","null","null","null","null","null","null","null","null","null","","180","200","260","200","36000","52000","[1,2]","","",""
"","canvas-keyboard-response","243","199189","0.0-6.0-6.33","560","","","","","clear_screen","null","null","","","catch","l","sh","sw","264","190","215","167","160","228","spektor","null","null","null","null","null","null","null","null","null","null","null","","180","200","260","200","36000","52000","[1,2]","","",""
"","canvas-keyboard-response","244","199389","0.0-6.0-0.34","560","","","","","pre trial waiting period","null","null","","","catch","l","sh","sw","237","294","193","142","208","230","spektor","null","null","null","null","null","null","null","null","null","null","null","","180","200","260","200","36000","52000","[1,3]","477.2432237532431","166.98209036294244","462.6412367268404"
"","canvas-keyboard-response","245","199408","0.0-6.0-1.34","560","","","","","clear_screen","null","null","","","catch","l","sh","sw","237","294","193","142","208","230","spektor","null","null","null","null","null","null","null","null","null","null","null","","180","200","260","200","36000","52000","[1,3]","477.2432237532431","166.98209036294244","462.6412367268404"
"","canvas-keyboard-response","246","199919","0.0-6.0-2.34","560","","","","","rectangles no change","null","null","","","catch","l","sh","sw","237","294","193","142","208","230","spektor","null","null","null","null","null","null","null","null","null","null","null","","180","200","260","200","36000","52000","[1,3]","477.2432237532431","166.98209036294244","462.6412367268404"
"","canvas-keyboard-response","247","201258","0.0-6.0-3.34","560","","","","","rectangles with change","null","null","","","catch","l","sh","sw","237","294","193","142","208","230","spektor","null","null","null","null","null","null","null","null","null","null","null","","180","200","260","200","36000","52000","[1,3]","477.2432237532431","166.98209036294244","462.6412367268404"
"","canvas-keyboard-response","248","201281","0.0-6.0-4.34","560","","","","","clear_screen","null","null","","","catch","l","sh","sw","237","294","193","142","208","230","spektor","null","null","null","null","null","null","null","null","null","null","null","","180","200","260","200","36000","52000","[1,3]","477.2432237532431","166.98209036294244","462.6412367268404"
"","canvas-keyboard-response","249","201410","0.0-6.0-5.34","560","","","","","make choice","124","1","","","catch","l","sh","sw","237","294","193","142","208","230","spektor","null","null","null","null","null","null","null","null","null","null","null","","180","200","260","200","36000","52000","[1,3]","","",""
"","canvas-keyboard-response","250","201429","0.0-6.0-6.34","560","","","","","clear_screen","null","null","","","catch","l","sh","sw","237","294","193","142","208","230","spektor","null","null","null","null","null","null","null","null","null","null","null","","180","200","260","200","36000","52000","[1,3]","","",""
"","canvas-keyboard-response","251","201630","0.0-6.0-0.35","560","","","","","pre trial waiting period","null","null","","","critical","d","t","c","232.8713","160.6713","240","164","164","240","trueblood","0.05","w","240","164","164","240","232.8713","160.6713","39360","39360","37415.7294","dc","null","null","null","null","null","null","[1,3]","482.30469641075473","515.1865347715553","437.2818631601034"
"","canvas-keyboard-response","252","201654","0.0-6.0-1.35","560","","","","","clear_screen","null","null","","","critical","d","t","c","232.8713","160.6713","240","164","164","240","trueblood","0.05","w","240","164","164","240","232.8713","160.6713","39360","39360","37415.7294","dc","null","null","null","null","null","null","[1,3]","482.30469641075473","515.1865347715553","437.2818631601034"
"","canvas-keyboard-response","253","202158","0.0-6.0-2.35","560","","","","","rectangles no change","null","null","","","critical","d","t","c","232.8713","160.6713","240","164","164","240","trueblood","0.05","w","240","164","164","240","232.8713","160.6713","39360","39360","37415.7294","dc","null","null","null","null","null","null","[1,3]","482.30469641075473","515.1865347715553","437.2818631601034"
"","canvas-keyboard-response","254","203497","0.0-6.0-3.35","560","","","","","rectangles with change","null","null","","","critical","d","t","c","232.8713","160.6713","240","164","164","240","trueblood","0.05","w","240","164","164","240","232.8713","160.6713","39360","39360","37415.7294","dc","null","null","null","null","null","null","[1,3]","482.30469641075473","515.1865347715553","437.2818631601034"
"","canvas-keyboard-response","255","203514","0.0-6.0-4.35","560","","","","","clear_screen","null","null","","","critical","d","t","c","232.8713","160.6713","240","164","164","240","trueblood","0.05","w","240","164","164","240","232.8713","160.6713","39360","39360","37415.7294","dc","null","null","null","null","null","null","[1,3]","482.30469641075473","515.1865347715553","437.2818631601034"
"","canvas-keyboard-response","256","203521","0.0-6.0-5.35","560","","","","","make choice","1","3","","","critical","d","t","c","232.8713","160.6713","240","164","164","240","trueblood","0.05","w","240","164","164","240","232.8713","160.6713","39360","39360","37415.7294","dc","null","null","null","null","null","null","[1,3]","","",""
"","canvas-keyboard-response","257","203535","0.0-6.0-6.35","560","","","","","clear_screen","null","null","","","critical","d","t","c","232.8713","160.6713","240","164","164","240","trueblood","0.05","w","240","164","164","240","232.8713","160.6713","39360","39360","37415.7294","dc","null","null","null","null","null","null","[1,3]","","",""
"","canvas-keyboard-response","258","203736","0.0-6.0-0.36","560","","","","","pre trial waiting period","null","null","","","critical","c","d","t","164","240","232.8713","160.6713","240","164","trueblood","0.05","w","240","164","164","240","232.8713","160.6713","39360","39360","37415.7294","td","null","null","null","null","null","null","[3,2]","457.0440725864338","519.3449488444236","478.7990980765419"
"","canvas-keyboard-response","259","203760","0.0-6.0-1.36","560","","","","","clear_screen","null","null","","","critical","c","d","t","164","240","232.8713","160.6713","240","164","trueblood","0.05","w","240","164","164","240","232.8713","160.6713","39360","39360","37415.7294","td","null","null","null","null","null","null","[3,2]","457.0440725864338","519.3449488444236","478.7990980765419"
"","canvas-keyboard-response","260","204266","0.0-6.0-2.36","560","","","","","rectangles no change","null","null","","","critical","c","d","t","164","240","232.8713","160.6713","240","164","trueblood","0.05","w","240","164","164","240","232.8713","160.6713","39360","39360","37415.7294","td","null","null","null","null","null","null","[3,2]","457.0440725864338","519.3449488444236","478.7990980765419"
"","canvas-keyboard-response","261","205604","0.0-6.0-3.36","560","","","","","rectangles with change","null","null","","","critical","c","d","t","164","240","232.8713","160.6713","240","164","trueblood","0.05","w","240","164","164","240","232.8713","160.6713","39360","39360","37415.7294","td","null","null","null","null","null","null","[3,2]","457.0440725864338","519.3449488444236","478.7990980765419"
"","canvas-keyboard-response","262","205625","0.0-6.0-4.36","560","","","","","clear_screen","null","null","","","critical","c","d","t","164","240","232.8713","160.6713","240","164","trueblood","0.05","w","240","164","164","240","232.8713","160.6713","39360","39360","37415.7294","td","null","null","null","null","null","null","[3,2]","457.0440725864338","519.3449488444236","478.7990980765419"
"","canvas-keyboard-response","263","205810","0.0-6.0-5.36","560","","","","","make choice","180","3","","","critical","c","d","t","164","240","232.8713","160.6713","240","164","trueblood","0.05","w","240","164","164","240","232.8713","160.6713","39360","39360","37415.7294","td","null","null","null","null","null","null","[3,2]","","",""
"","canvas-keyboard-response","264","205831","0.0-6.0-6.36","560","","","","","clear_screen","null","null","","","critical","c","d","t","164","240","232.8713","160.6713","240","164","trueblood","0.05","w","240","164","164","240","232.8713","160.6713","39360","39360","37415.7294","td","null","null","null","null","null","null","[3,2]","","",""
"","canvas-keyboard-response","265","206032","0.0-6.0-0.37","560","","","","","pre trial waiting period","null","null","","","critical","c","d","t","164","240","240","164","240","164","trueblood","0","w","240","164","164","240","240","164","39360","39360","39360","tc","null","null","null","null","null","null","[3,1]","468.49857340613846","506.84849340769455","515.0146686669357"
"","canvas-keyboard-response","266","206050","0.0-6.0-1.37","560","","","","","clear_screen","null","null","","","critical","c","d","t","164","240","240","164","240","164","trueblood","0","w","240","164","164","240","240","164","39360","39360","39360","tc","null","null","null","null","null","null","[3,1]","468.49857340613846","506.84849340769455","515.0146686669357"
"","canvas-keyboard-response","267","206556","0.0-6.0-2.37","560","","","","","rectangles no change","null","null","","","critical","c","d","t","164","240","240","164","240","164","trueblood","0","w","240","164","164","240","240","164","39360","39360","39360","tc","null","null","null","null","null","null","[3,1]","468.49857340613846","506.84849340769455","515.0146686669357"
