"success","trial_type","trial_index","time_elapsed","internal_node_id","sub_n","timeout","failed_images","failed_audio","failed_video","screen_id","rt","response","stimulus","view_history","trial","r1","r2","r3","w1","h1","w2","h2","w3","h3","display","tdd","tdo","tw","th","cw","ch","dw","dh","ta","ca","da","probe","csls","csss","clls","clss","sa","la","probe_rects","r1yloc","r2yloc","r3yloc"
"true","fullscreen","0","3804","0.0-0.0","523","","","","","","","","","","","","","","","","","","","","","","","","","","","","","","","","","","","","","","","","","",""
"true","preload","1","3820","0.0-1.0","523","false","[]","[]","[]","img preload","","","","","","","","","","","","","","","","","","","","","","","","","","","","","","","","","","","","",""
"","survey-html-form","2","7375","0.0-2.0","523","","","","","enter-sub-number","3548","{""response"":""523""}","","","","","","","","","","","","","","","","","","","","","","","","","","","","","","","","","","",""
"","image-button-response","3","9821","0.0-3.0","523","","","","","","2372","0","consent.png","","","","","","","","","","","","","","","","","","","","","","","","","","","","","","","","","",""
"","html-button-response","4","15005","0.0-4.0","523","","","","","intro mssg","5177","0","<div style= ""font-size:25px;"" <p> <strong> Welcome! </strong><br> <p style=""color:#8B0000; font-size:25px;""><strong> Please do NOT exit full screen until you are done with the experiment. </strong> </p><p style=""font-size:25px;color:#8B0000;""> <strong> Your data will be lost <br> if you try to go back or refresh the page after the experiment starts. Feel free to click ""previous"" during the instructions, however.</strong> </p><br><p> <strong> Thanks in advance for your contribution to our research! </strong></p>","","","","","","","","","","","","","","","","","","","","","","","","","","","","","","","","","",""
"","instructions","5","59901","0.0-5.0","523","","","","","instructions","44888","","","[{""page_index"":0,""viewing_time"":20288},{""page_index"":1,""viewing_time"":4223},{""page_index"":2,""viewing_time"":1625},{""page_index"":3,""viewing_time"":11304},{""page_index"":4,""viewing_time"":3215},{""page_index"":5,""viewing_time"":1689},{""page_index"":6,""viewing_time"":1608},{""page_index"":7,""viewing_time"":936}]","","","","","","","","","","","","","","","","","","","","","","","","","","","","","","","","",""
"","canvas-keyboard-response","6","60104","0.0-6.0-0.0","523","","","","","pre trial waiting period","null","null","","","critical","d","t","c","237.1485","162.6685","240","164","164","240","trueblood","0.02","w","240","164","164","240","237.1485","162.6685","39360","39360","38576.5967","dc","null","null","null","null","null","null","[1,3]","470.22994633719406","483.9396415772706","428.5396986897481"
"","canvas-keyboard-response","7","60120","0.0-6.0-1.0","523","","","","","clear_screen","null","null","","","critical","d","t","c","237.1485","162.6685","240","164","164","240","trueblood","0.02","w","240","164","164","240","237.1485","162.6685","39360","39360","38576.5967","dc","null","null","null","null","null","null","[1,3]","470.22994633719406","483.9396415772706","428.5396986897481"
"","canvas-keyboard-response","8","60633","0.0-6.0-2.0","523","","","","","rectangles no change","null","null","","","critical","d","t","c","237.1485","162.6685","240","164","164","240","trueblood","0.02","w","240","164","164","240","237.1485","162.6685","39360","39360","38576.5967","dc","null","null","null","null","null","null","[1,3]","470.22994633719406","483.9396415772706","428.5396986897481"
"","canvas-keyboard-response","9","61973","0.0-6.0-3.0","523","","","","","rectangles with change","null","null","","","critical","d","t","c","237.1485","162.6685","240","164","164","240","trueblood","0.02","w","240","164","164","240","237.1485","162.6685","39360","39360","38576.5967","dc","null","null","null","null","null","null","[1,3]","470.22994633719406","483.9396415772706","428.5396986897481"
"","canvas-keyboard-response","10","61996","0.0-6.0-4.0","523","","","","","clear_screen","null","null","","","critical","d","t","c","237.1485","162.6685","240","164","164","240","trueblood","0.02","w","240","164","164","240","237.1485","162.6685","39360","39360","38576.5967","dc","null","null","null","null","null","null","[1,3]","470.22994633719406","483.9396415772706","428.5396986897481"
"","canvas-keyboard-response","11","64908","0.0-6.0-5.0","523","","","","","make choice","2905","3","","","critical","d","t","c","237.1485","162.6685","240","164","164","240","trueblood","0.02","w","240","164","164","240","237.1485","162.6685","39360","39360","38576.5967","dc","null","null","null","null","null","null","[1,3]","","",""
"","canvas-keyboard-response","12","64928","0.0-6.0-6.0","523","","","","","clear_screen","null","null","","","critical","d","t","c","237.1485","162.6685","240","164","164","240","trueblood","0.02","w","240","164","164","240","237.1485","162.6685","39360","39360","38576.5967","dc","null","null","null","null","null","null","[1,3]","","",""
"","canvas-keyboard-response","13","65129","0.0-6.0-0.1","523","","","","","pre trial waiting period","null","null","","","catch","l","sh","sw","227","289","217","215","189","234","trueblood","null","null","null","null","null","null","null","null","null","null","null","","180","200","260","200","36000","52000","[1,2]","434.7494577376898","450.2386162169203","448.02369943692713"
"","canvas-keyboard-response","14","65153","0.0-6.0-1.1","523","","","","","clear_screen","null","null","","","catch","l","sh","sw","227","289","217","215","189","234","trueblood","null","null","null","null","null","null","null","null","null","null","null","","180","200","260","200","36000","52000","[1,2]","434.7494577376898","450.2386162169203","448.02369943692713"
"","canvas-keyboard-response","15","65658","0.0-6.0-2.1","523","","","","","rectangles no change","null","null","","","catch","l","sh","sw","227","289","217","215","189","234","trueblood","null","null","null","null","null","null","null","null","null","null","null","","180","200","260","200","36000","52000","[1,2]","434.7494577376898","450.2386162169203","448.02369943692713"
"","canvas-keyboard-response","16","66994","0.0-6.0-3.1","523","","","","","rectangles with change","null","null","","","catch","l","sh","sw","227","289","217","215","189","234","trueblood","null","null","null","null","null","null","null","null","null","null","null","","180","200","260","200","36000","52000","[1,2]","434.7494577376898","450.2386162169203","448.02369943692713"
"","canvas-keyboard-response","17","67018","0.0-6.0-4.1","523","","","","","clear_screen","null","null","","","catch","l","sh","sw","227","289","217","215","189","234","trueblood","null","null","null","null","null","null","null","null","null","null","null","","180","200","260","200","36000","52000","[1,2]","434.7494577376898","450.2386162169203","448.02369943692713"
"","canvas-keyboard-response","18","67868","0.0-6.0-5.1","523","","","","","make choice","840","1","","","catch","l","sh","sw","227","289","217","215","189","234","trueblood","null","null","null","null","null","null","null","null","null","null","null","","180","200","260","200","36000","52000","[1,2]","","",""
"","canvas-keyboard-response","19","67886","0.0-6.0-6.1","523","","","","","clear_screen","null","null","","","catch","l","sh","sw","227","289","217","215","189","234","trueblood","null","null","null","null","null","null","null","null","null","null","null","","180","200","260","200","36000","52000","[1,2]","","",""
"","canvas-keyboard-response","20","68087","0.0-6.0-0.2","523","","","","","pre trial waiting period","null","null","","","catch","sh","l","sw","187","174","276","206","168","181","spektor","null","null","null","null","null","null","null","null","null","null","null","","180","200","260","200","36000","52000","[1,2]","509.0809387531092","154.2194020861079","488.0150785170403"
"","canvas-keyboard-response","21","68108","0.0-6.0-1.2","523","","","","","clear_screen","null","null","","","catch","sh","l","sw","187","174","276","206","168","181","spektor","null","null","null","null","null","null","null","null","null","null","null","","180","200","260","200","36000","52000","[1,2]","509.0809387531092","154.2194020861079","488.0150785170403"
"","canvas-keyboard-response","22","68615","0.0-6.0-2.2","523","","","","","rectangles no change","null","null","","","catch","sh","l","sw","187","174","276","206","168","181","spektor","null","null","null","null","null","null","null","null","null","null","null","","180","200","260","200","36000","52000","[1,2]","509.0809387531092","154.2194020861079","488.0150785170403"
"","canvas-keyboard-response","23","69951","0.0-6.0-3.2","523","","","","","rectangles with change","null","null","","","catch","sh","l","sw","187","174","276","206","168","181","spektor","null","null","null","null","null","null","null","null","null","null","null","","180","200","260","200","36000","52000","[1,2]","509.0809387531092","154.2194020861079","488.0150785170403"
"","canvas-keyboard-response","24","69973","0.0-6.0-4.2","523","","","","","clear_screen","null","null","","","catch","sh","l","sw","187","174","276","206","168","181","spektor","null","null","null","null","null","null","null","null","null","null","null","","180","200","260","200","36000","52000","[1,2]","509.0809387531092","154.2194020861079","488.0150785170403"
"","canvas-keyboard-response","25","70364","0.0-6.0-5.2","523","","","","","make choice","385","2","","","catch","sh","l","sw","187","174","276","206","168","181","spektor","null","null","null","null","null","null","null","null","null","null","null","","180","200","260","200","36000","52000","[1,2]","","",""
"","canvas-keyboard-response","26","70381","0.0-6.0-6.2","523","","","","","clear_screen","null","null","","","catch","sh","l","sw","187","174","276","206","168","181","spektor","null","null","null","null","null","null","null","null","null","null","null","","180","200","260","200","36000","52000","[1,2]","","",""
"","canvas-keyboard-response","27","70582","0.0-6.0-0.3","523","","","","","pre trial waiting period","null","null","","","critical","d","c","t","158.0083","227.1683","240","164","164","240","spektor","0.09","h","164","240","240","164","158.0083","227.1683","39360","39360","35894.4834","td","null","null","null","null","null","null","[3,1]","464.2731513544298","188.8172095586049","496.7428563993589"
"","canvas-keyboard-response","28","70603","0.0-6.0-1.3","523","","","","","clear_screen","null","null","","","critical","d","c","t","158.0083","227.1683","240","164","164","240","spektor","0.09","h","164","240","240","164","158.0083","227.1683","39360","39360","35894.4834","td","null","null","null","null","null","null","[3,1]","464.2731513544298","188.8172095586049","496.7428563993589"
"","canvas-keyboard-response","29","71110","0.0-6.0-2.3","523","","","","","rectangles no change","null","null","","","critical","d","c","t","158.0083","227.1683","240","164","164","240","spektor","0.09","h","164","240","240","164","158.0083","227.1683","39360","39360","35894.4834","td","null","null","null","null","null","null","[3,1]","464.2731513544298","188.8172095586049","496.7428563993589"
"","canvas-keyboard-response","30","72447","0.0-6.0-3.3","523","","","","","rectangles with change","null","null","","","critical","d","c","t","158.0083","227.1683","240","164","164","240","spektor","0.09","h","164","240","240","164","158.0083","227.1683","39360","39360","35894.4834","td","null","null","null","null","null","null","[3,1]","464.2731513544298","188.8172095586049","496.7428563993589"
"","canvas-keyboard-response","31","72470","0.0-6.0-4.3","523","","","","","clear_screen","null","null","","","critical","d","c","t","158.0083","227.1683","240","164","164","240","spektor","0.09","h","164","240","240","164","158.0083","227.1683","39360","39360","35894.4834","td","null","null","null","null","null","null","[3,1]","464.2731513544298","188.8172095586049","496.7428563993589"
"","canvas-keyboard-response","32","72884","0.0-6.0-5.3","523","","","","","make choice","407","3","","","critical","d","c","t","158.0083","227.1683","240","164","164","240","spektor","0.09","h","164","240","240","164","158.0083","227.1683","39360","39360","35894.4834","td","null","null","null","null","null","null","[3,1]","","",""
"","canvas-keyboard-response","33","72905","0.0-6.0-6.3","523","","","","","clear_screen","null","null","","","critical","d","c","t","158.0083","227.1683","240","164","164","240","spektor","0.09","h","164","240","240","164","158.0083","227.1683","39360","39360","35894.4834","td","null","null","null","null","null","null","[3,1]","","",""
"","canvas-keyboard-response","34","73107","0.0-6.0-0.4","523","","","","","pre trial waiting period","null","null","","","catch","sw","sh","l","180","200","226","149","208","227","trueblood","null","null","null","null","null","null","null","null","null","null","null","","180","200","260","200","36000","52000","[2,3]","478.7247824809253","498.46411616057947","458.7246608997489"
"","canvas-keyboard-response","35","73129","0.0-6.0-1.4","523","","","","","clear_screen","null","null","","","catch","sw","sh","l","180","200","226","149","208","227","trueblood","null","null","null","null","null","null","null","null","null","null","null","","180","200","260","200","36000","52000","[2,3]","478.7247824809253","498.46411616057947","458.7246608997489"
"","canvas-keyboard-response","36","73637","0.0-6.0-2.4","523","","","","","rectangles no change","null","null","","","catch","sw","sh","l","180","200","226","149","208","227","trueblood","null","null","null","null","null","null","null","null","null","null","null","","180","200","260","200","36000","52000","[2,3]","478.7247824809253","498.46411616057947","458.7246608997489"
"","canvas-keyboard-response","37","74973","0.0-6.0-3.4","523","","","","","rectangles with change","null","null","","","catch","sw","sh","l","180","200","226","149","208","227","trueblood","null","null","null","null","null","null","null","null","null","null","null","","180","200","260","200","36000","52000","[2,3]","478.7247824809253","498.46411616057947","458.7246608997489"
"","canvas-keyboard-response","38","74992","0.0-6.0-4.4","523","","","","","clear_screen","null","null","","","catch","sw","sh","l","180","200","226","149","208","227","trueblood","null","null","null","null","null","null","null","null","null","null","null","","180","200","260","200","36000","52000","[2,3]","478.7247824809253","498.46411616057947","458.7246608997489"
"","canvas-keyboard-response","39","75356","0.0-6.0-5.4","523","","","","","make choice","358","3","","","catch","sw","sh","l","180","200","226","149","208","227","trueblood","null","null","null","null","null","null","null","null","null","null","null","","180","200","260","200","36000","52000","[2,3]","","",""
"","canvas-keyboard-response","40","75376","0.0-6.0-6.4","523","","","","","clear_screen","null","null","","","catch","sw","sh","l","180","200","226","149","208","227","trueblood","null","null","null","null","null","null","null","null","null","null","null","","180","200","260","200","36000","52000","[2,3]","","",""
"","canvas-keyboard-response","41","75578","0.0-6.0-0.5","523","","","","","pre trial waiting period","null","null","","","catch","sh","sw","l","171","165","205","166","284","234","spektor","null","null","null","null","null","null","null","null","null","null","null","","180","200","260","200","36000","52000","[2,3]","508.91726925309575","204.35478769861126","486.520265408721"
"","canvas-keyboard-response","42","75598","0.0-6.0-1.5","523","","","","","clear_screen","null","null","","","catch","sh","sw","l","171","165","205","166","284","234","spektor","null","null","null","null","null","null","null","null","null","null","null","","180","200","260","200","36000","52000","[2,3]","508.91726925309575","204.35478769861126","486.520265408721"
"","canvas-keyboard-response","43","76106","0.0-6.0-2.5","523","","","","","rectangles no change","null","null","","","catch","sh","sw","l","171","165","205","166","284","234","spektor","null","null","null","null","null","null","null","null","null","null","null","","180","200","260","200","36000","52000","[2,3]","508.91726925309575","204.35478769861126","486.520265408721"
"","canvas-keyboard-response","44","77440","0.0-6.0-3.5","523","","","","","rectangles with change","null","null","","","catch","sh","sw","l","171","165","205","166","284","234","spektor","null","null","null","null","null","null","null","null","null","null","null","","180","200","260","200","36000","52000","[2,3]","508.91726925309575","204.35478769861126","486.520265408721"
"","canvas-keyboard-response","45","77464","0.0-6.0-4.5","523","","","","","clear_screen","null","null","","","catch","sh","sw","l","171","165","205","166","284","234","spektor","null","null","null","null","null","null","null","null","null","null","null","","180","200","260","200","36000","52000","[2,3]","508.91726925309575","204.35478769861126","486.520265408721"
"","canvas-keyboard-response","46","77788","0.0-6.0-5.5","523","","","","","make choice","318","3","","","catch","sh","sw","l","171","165","205","166","284","234","spektor","null","null","null","null","null","null","null","null","null","null","null","","180","200","260","200","36000","52000","[2,3]","","",""
"","canvas-keyboard-response","47","77805","0.0-6.0-6.5","523","","","","","clear_screen","null","null","","","catch","sh","sw","l","171","165","205","166","284","234","spektor","null","null","null","null","null","null","null","null","null","null","null","","180","200","260","200","36000","52000","[2,3]","","",""
"","canvas-keyboard-response","48","78007","0.0-6.0-0.6","523","","","","","pre trial waiting period","null","null","","","critical","d","t","c","162.6685","237.1485","164","240","240","164","spektor","0.02","h","164","240","240","164","162.6685","237.1485","39360","39360","38576.5967","dc","null","null","null","null","null","null","[1,3]","485.5559731683567","94.25475996525961","493.9775934833551"
"","canvas-keyboard-response","49","78029","0.0-6.0-1.6","523","","","","","clear_screen","null","null","","","critical","d","t","c","162.6685","237.1485","164","240","240","164","spektor","0.02","h","164","240","240","164","162.6685","237.1485","39360","39360","38576.5967","dc","null","null","null","null","null","null","[1,3]","485.5559731683567","94.25475996525961","493.9775934833551"
"","canvas-keyboard-response","50","78537","0.0-6.0-2.6","523","","","","","rectangles no change","null","null","","","critical","d","t","c","162.6685","237.1485","164","240","240","164","spektor","0.02","h","164","240","240","164","162.6685","237.1485","39360","39360","38576.5967","dc","null","null","null","null","null","null","[1,3]","485.5559731683567","94.25475996525961","493.9775934833551"
"","canvas-keyboard-response","51","79874","0.0-6.0-3.6","523","","","","","rectangles with change","null","null","","","critical","d","t","c","162.6685","237.1485","164","240","240","164","spektor","0.02","h","164","240","240","164","162.6685","237.1485","39360","39360","38576.5967","dc","null","null","null","null","null","null","[1,3]","485.5559731683567","94.25475996525961","493.9775934833551"
"","canvas-keyboard-response","52","79893","0.0-6.0-4.6","523","","","","","clear_screen","null","null","","","critical","d","t","c","162.6685","237.1485","164","240","240","164","spektor","0.02","h","164","240","240","164","162.6685","237.1485","39360","39360","38576.5967","dc","null","null","null","null","null","null","[1,3]","485.5559731683567","94.25475996525961","493.9775934833551"
"","canvas-keyboard-response","53","80228","0.0-6.0-5.6","523","","","","","make choice","330","1","","","critical","d","t","c","162.6685","237.1485","164","240","240","164","spektor","0.02","h","164","240","240","164","162.6685","237.1485","39360","39360","38576.5967","dc","null","null","null","null","null","null","[1,3]","","",""
"","canvas-keyboard-response","54","80247","0.0-6.0-6.6","523","","","","","clear_screen","null","null","","","critical","d","t","c","162.6685","237.1485","164","240","240","164","spektor","0.02","h","164","240","240","164","162.6685","237.1485","39360","39360","38576.5967","dc","null","null","null","null","null","null","[1,3]","","",""
"","canvas-keyboard-response","55","80448","0.0-6.0-0.7","523","","","","","pre trial waiting period","null","null","","","critical","c","d","t","164","240","240","164","240","164","spektor","0","w","240","164","164","240","240","164","39360","39360","39360","td","null","null","null","null","null","null","[3,2]","464.00918533074395","193.36368472321655","521.6707641487972"
"","canvas-keyboard-response","56","80467","0.0-6.0-1.7","523","","","","","clear_screen","null","null","","","critical","c","d","t","164","240","240","164","240","164","spektor","0","w","240","164","164","240","240","164","39360","39360","39360","td","null","null","null","null","null","null","[3,2]","464.00918533074395","193.36368472321655","521.6707641487972"
"","canvas-keyboard-response","57","80978","0.0-6.0-2.7","523","","","","","rectangles no change","null","null","","","critical","c","d","t","164","240","240","164","240","164","spektor","0","w","240","164","164","240","240","164","39360","39360","39360","td","null","null","null","null","null","null","[3,2]","464.00918533074395","193.36368472321655","521.6707641487972"
"","canvas-keyboard-response","58","82313","0.0-6.0-3.7","523","","","","","rectangles with change","null","null","","","critical","c","d","t","164","240","240","164","240","164","spektor","0","w","240","164","164","240","240","164","39360","39360","39360","td","null","null","null","null","null","null","[3,2]","464.00918533074395","193.36368472321655","521.6707641487972"
"","canvas-keyboard-response","59","82336","0.0-6.0-4.7","523","","","","","clear_screen","null","null","","","critical","c","d","t","164","240","240","164","240","164","spektor","0","w","240","164","164","240","240","164","39360","39360","39360","td","null","null","null","null","null","null","[3,2]","464.00918533074395","193.36368472321655","521.6707641487972"
"","canvas-keyboard-response","60","84171","0.0-6.0-5.7","523","","","","","make choice","1829","3","","","critical","c","d","t","164","240","240","164","240","164","spektor","0","w","240","164","164","240","240","164","39360","39360","39360","td","null","null","null","null","null","null","[3,2]","","",""
"","canvas-keyboard-response","61","84193","0.0-6.0-6.7","523","","","","","clear_screen","null","null","","","critical","c","d","t","164","240","240","164","240","164","spektor","0","w","240","164","164","240","240","164","39360","39360","39360","td","null","null","null","null","null","null","[3,2]","","",""
"","canvas-keyboard-response","62","84394","0.0-6.0-0.8","523","","","","","pre trial waiting period","null","null","","","critical","t","d","c","164","240","158.0083","227.1683","240","164","trueblood","0.09","h","164","240","240","164","158.0083","227.1683","39360","39360","35894.4834","tc","null","null","null","null","null","null","[1,3]","458.6199156379764","435.9717962960529","486.03612008737844"
"","canvas-keyboard-response","63","84413","0.0-6.0-1.8","523","","","","","clear_screen","null","null","","","critical","t","d","c","164","240","158.0083","227.1683","240","164","trueblood","0.09","h","164","240","240","164","158.0083","227.1683","39360","39360","35894.4834","tc","null","null","null","null","null","null","[1,3]","458.6199156379764","435.9717962960529","486.03612008737844"
"","canvas-keyboard-response","64","84920","0.0-6.0-2.8","523","","","","","rectangles no change","null","null","","","critical","t","d","c","164","240","158.0083","227.1683","240","164","trueblood","0.09","h","164","240","240","164","158.0083","227.1683","39360","39360","35894.4834","tc","null","null","null","null","null","null","[1,3]","458.6199156379764","435.9717962960529","486.03612008737844"
"","canvas-keyboard-response","65","86255","0.0-6.0-3.8","523","","","","","rectangles with change","null","null","","","critical","t","d","c","164","240","158.0083","227.1683","240","164","trueblood","0.09","h","164","240","240","164","158.0083","227.1683","39360","39360","35894.4834","tc","null","null","null","null","null","null","[1,3]","458.6199156379764","435.9717962960529","486.03612008737844"
"","canvas-keyboard-response","66","86277","0.0-6.0-4.8","523","","","","","clear_screen","null","null","","","critical","t","d","c","164","240","158.0083","227.1683","240","164","trueblood","0.09","h","164","240","240","164","158.0083","227.1683","39360","39360","35894.4834","tc","null","null","null","null","null","null","[1,3]","458.6199156379764","435.9717962960529","486.03612008737844"
"","canvas-keyboard-response","67","87564","0.0-6.0-5.8","523","","","","","make choice","1280","1","","","critical","t","d","c","164","240","158.0083","227.1683","240","164","trueblood","0.09","h","164","240","240","164","158.0083","227.1683","39360","39360","35894.4834","tc","null","null","null","null","null","null","[1,3]","","",""
"","canvas-keyboard-response","68","87582","0.0-6.0-6.8","523","","","","","clear_screen","null","null","","","critical","t","d","c","164","240","158.0083","227.1683","240","164","trueblood","0.09","h","164","240","240","164","158.0083","227.1683","39360","39360","35894.4834","tc","null","null","null","null","null","null","[1,3]","","",""
"","canvas-keyboard-response","69","87783","0.0-6.0-0.9","523","","","","","pre trial waiting period","null","null","","","critical","d","t","c","154.6796","220.0396","164","240","240","164","trueblood","0.14","h","164","240","240","164","154.6796","220.0396","39360","39360","34035.6388","td","null","null","null","null","null","null","[2,1]","463.62549135378595","445.0510262691672","489.20024289399436"
"","canvas-keyboard-response","70","87802","0.0-6.0-1.9","523","","","","","clear_screen","null","null","","","critical","d","t","c","154.6796","220.0396","164","240","240","164","trueblood","0.14","h","164","240","240","164","154.6796","220.0396","39360","39360","34035.6388","td","null","null","null","null","null","null","[2,1]","463.62549135378595","445.0510262691672","489.20024289399436"
"","canvas-keyboard-response","71","88310","0.0-6.0-2.9","523","","","","","rectangles no change","null","null","","","critical","d","t","c","154.6796","220.0396","164","240","240","164","trueblood","0.14","h","164","240","240","164","154.6796","220.0396","39360","39360","34035.6388","td","null","null","null","null","null","null","[2,1]","463.62549135378595","445.0510262691672","489.20024289399436"
"","canvas-keyboard-response","72","89645","0.0-6.0-3.9","523","","","","","rectangles with change","null","null","","","critical","d","t","c","154.6796","220.0396","164","240","240","164","trueblood","0.14","h","164","240","240","164","154.6796","220.0396","39360","39360","34035.6388","td","null","null","null","null","null","null","[2,1]","463.62549135378595","445.0510262691672","489.20024289399436"
"","canvas-keyboard-response","73","89668","0.0-6.0-4.9","523","","","","","clear_screen","null","null","","","critical","d","t","c","154.6796","220.0396","164","240","240","164","trueblood","0.14","h","164","240","240","164","154.6796","220.0396","39360","39360","34035.6388","td","null","null","null","null","null","null","[2,1]","463.62549135378595","445.0510262691672","489.20024289399436"
"","canvas-keyboard-response","74","89891","0.0-6.0-5.9","523","","","","","make choice","218","2","","","critical","d","t","c","154.6796","220.0396","164","240","240","164","trueblood","0.14","h","164","240","240","164","154.6796","220.0396","39360","39360","34035.6388","td","null","null","null","null","null","null","[2,1]","","",""
"","canvas-keyboard-response","75","89912","0.0-6.0-6.9","523","","","","","clear_screen","null","null","","","critical","d","t","c","154.6796","220.0396","164","240","240","164","trueblood","0.14","h","164","240","240","164","154.6796","220.0396","39360","39360","34035.6388","td","null","null","null","null","null","null","[2,1]","","",""
"","canvas-keyboard-response","76","90113","0.0-6.0-0.10","523","","","","","pre trial waiting period","null","null","","","critical","t","d","c","240","164","227.1683","158.0083","164","240","trueblood","0.09","w","240","164","164","240","227.1683","158.0083","39360","39360","35894.4834","td","null","null","null","null","null","null","[1,2]","508.63086294295476","504.2195174764311","467.51272265471573"
"","canvas-keyboard-response","77","90134","0.0-6.0-1.10","523","","","","","clear_screen","null","null","","","critical","t","d","c","240","164","227.1683","158.0083","164","240","trueblood","0.09","w","240","164","164","240","227.1683","158.0083","39360","39360","35894.4834","td","null","null","null","null","null","null","[1,2]","508.63086294295476","504.2195174764311","467.51272265471573"
"","canvas-keyboard-response","78","90642","0.0-6.0-2.10","523","","","","","rectangles no change","null","null","","","critical","t","d","c","240","164","227.1683","158.0083","164","240","trueblood","0.09","w","240","164","164","240","227.1683","158.0083","39360","39360","35894.4834","td","null","null","null","null","null","null","[1,2]","508.63086294295476","504.2195174764311","467.51272265471573"
"","canvas-keyboard-response","79","91981","0.0-6.0-3.10","523","","","","","rectangles with change","null","null","","","critical","t","d","c","240","164","227.1683","158.0083","164","240","trueblood","0.09","w","240","164","164","240","227.1683","158.0083","39360","39360","35894.4834","td","null","null","null","null","null","null","[1,2]","508.63086294295476","504.2195174764311","467.51272265471573"
"","canvas-keyboard-response","80","92004","0.0-6.0-4.10","523","","","","","clear_screen","null","null","","","critical","t","d","c","240","164","227.1683","158.0083","164","240","trueblood","0.09","w","240","164","164","240","227.1683","158.0083","39360","39360","35894.4834","td","null","null","null","null","null","null","[1,2]","508.63086294295476","504.2195174764311","467.51272265471573"
"","canvas-keyboard-response","81","92219","0.0-6.0-5.10","523","","","","","make choice","207","1","","","critical","t","d","c","240","164","227.1683","158.0083","164","240","trueblood","0.09","w","240","164","164","240","227.1683","158.0083","39360","39360","35894.4834","td","null","null","null","null","null","null","[1,2]","","",""
"","canvas-keyboard-response","82","92240","0.0-6.0-6.10","523","","","","","clear_screen","null","null","","","critical","t","d","c","240","164","227.1683","158.0083","164","240","trueblood","0.09","w","240","164","164","240","227.1683","158.0083","39360","39360","35894.4834","td","null","null","null","null","null","null","[1,2]","","",""
"","canvas-keyboard-response","83","92442","0.0-6.0-0.11","523","","","","","pre trial waiting period","null","null","","","catch","sh","sw","l","214","147","209","178","179","278","spektor","null","null","null","null","null","null","null","null","null","null","null","","180","200","260","200","36000","52000","[1,3]","548.8052345893598","195.649036489238","455.95411149296274"
"","canvas-keyboard-response","84","92464","0.0-6.0-1.11","523","","","","","clear_screen","null","null","","","catch","sh","sw","l","214","147","209","178","179","278","spektor","null","null","null","null","null","null","null","null","null","null","null","","180","200","260","200","36000","52000","[1,3]","548.8052345893598","195.649036489238","455.95411149296274"
"","canvas-keyboard-response","85","92972","0.0-6.0-2.11","523","","","","","rectangles no change","null","null","","","catch","sh","sw","l","214","147","209","178","179","278","spektor","null","null","null","null","null","null","null","null","null","null","null","","180","200","260","200","36000","52000","[1,3]","548.8052345893598","195.649036489238","455.95411149296274"
"","canvas-keyboard-response","86","94309","0.0-6.0-3.11","523","","","","","rectangles with change","null","null","","","catch","sh","sw","l","214","147","209","178","179","278","spektor","null","null","null","null","null","null","null","null","null","null","null","","180","200","260","200","36000","52000","[1,3]","548.8052345893598","195.649036489238","455.95411149296274"
"","canvas-keyboard-response","87","94328","0.0-6.0-4.11","523","","","","","clear_screen","null","null","","","catch","sh","sw","l","214","147","209","178","179","278","spektor","null","null","null","null","null","null","null","null","null","null","null","","180","200","260","200","36000","52000","[1,3]","548.8052345893598","195.649036489238","455.95411149296274"
"","canvas-keyboard-response","88","94603","0.0-6.0-5.11","523","","","","","make choice","269","3","","","catch","sh","sw","l","214","147","209","178","179","278","spektor","null","null","null","null","null","null","null","null","null","null","null","","180","200","260","200","36000","52000","[1,3]","","",""
"","canvas-keyboard-response","89","94622","0.0-6.0-6.11","523","","","","","clear_screen","null","null","","","catch","sh","sw","l","214","147","209","178","179","278","spektor","null","null","null","null","null","null","null","null","null","null","null","","180","200","260","200","36000","52000","[1,3]","","",""
"","canvas-keyboard-response","90","94823","0.0-6.0-0.12","523","","","","","pre trial waiting period","null","null","","","critical","c","d","t","164","240","220.0396","154.6796","240","164","spektor","0.14","w","240","164","164","240","220.0396","154.6796","39360","39360","34035.6388","tc","null","null","null","null","null","null","[3,1]","455.9579094812105","206.0936131855615","502.73268027185975"
"","canvas-keyboard-response","91","94843","0.0-6.0-1.12","523","","","","","clear_screen","null","null","","","critical","c","d","t","164","240","220.0396","154.6796","240","164","spektor","0.14","w","240","164","164","240","220.0396","154.6796","39360","39360","34035.6388","tc","null","null","null","null","null","null","[3,1]","455.9579094812105","206.0936131855615","502.73268027185975"
"","canvas-keyboard-response","92","95349","0.0-6.0-2.12","523","","","","","rectangles no change","null","null","","","critical","c","d","t","164","240","220.0396","154.6796","240","164","spektor","0.14","w","240","164","164","240","220.0396","154.6796","39360","39360","34035.6388","tc","null","null","null","null","null","null","[3,1]","455.9579094812105","206.0936131855615","502.73268027185975"
"","canvas-keyboard-response","93","96685","0.0-6.0-3.12","523","","","","","rectangles with change","null","null","","","critical","c","d","t","164","240","220.0396","154.6796","240","164","spektor","0.14","w","240","164","164","240","220.0396","154.6796","39360","39360","34035.6388","tc","null","null","null","null","null","null","[3,1]","455.9579094812105","206.0936131855615","502.73268027185975"
"","canvas-keyboard-response","94","96702","0.0-6.0-4.12","523","","","","","clear_screen","null","null","","","critical","c","d","t","164","240","220.0396","154.6796","240","164","spektor","0.14","w","240","164","164","240","220.0396","154.6796","39360","39360","34035.6388","tc","null","null","null","null","null","null","[3,1]","455.9579094812105","206.0936131855615","502.73268027185975"
"","canvas-keyboard-response","95","96995","0.0-6.0-5.12","523","","","","","make choice","286","1","","","critical","c","d","t","164","240","220.0396","154.6796","240","164","spektor","0.14","w","240","164","164","240","220.0396","154.6796","39360","39360","34035.6388","tc","null","null","null","null","null","null","[3,1]","","",""
"","canvas-keyboard-response","96","97014","0.0-6.0-6.12","523","","","","","clear_screen","null","null","","","critical","c","d","t","164","240","220.0396","154.6796","240","164","spektor","0.14","w","240","164","164","240","220.0396","154.6796","39360","39360","34035.6388","tc","null","null","null","null","null","null","[3,1]","","",""
"","canvas-keyboard-response","97","97215","0.0-6.0-0.13","523","","","","","pre trial waiting period","null","null","","","catch","sw","l","sh","180","200","207","261","200","140","trueblood","null","null","null","null","null","null","null","null","null","null","null","","180","200","260","200","36000","52000","[1,2]","493.2217904925575","436.8470637893948","503.1864000850453"
"","canvas-keyboard-response","98","97237","0.0-6.0-1.13","523","","","","","clear_screen","null","null","","","catch","sw","l","sh","180","200","207","261","200","140","trueblood","null","null","null","null","null","null","null","null","null","null","null","","180","200","260","200","36000","52000","[1,2]","493.2217904925575","436.8470637893948","503.1864000850453"
"","canvas-keyboard-response","99","97744","0.0-6.0-2.13","523","","","","","rectangles no change","null","null","","","catch","sw","l","sh","180","200","207","261","200","140","trueblood","null","null","null","null","null","null","null","null","null","null","null","","180","200","260","200","36000","52000","[1,2]","493.2217904925575","436.8470637893948","503.1864000850453"
"","canvas-keyboard-response","100","99079","0.0-6.0-3.13","523","","","","","rectangles with change","null","null","","","catch","sw","l","sh","180","200","207","261","200","140","trueblood","null","null","null","null","null","null","null","null","null","null","null","","180","200","260","200","36000","52000","[1,2]","493.2217904925575","436.8470637893948","503.1864000850453"
"","canvas-keyboard-response","101","99103","0.0-6.0-4.13","523","","","","","clear_screen","null","null","","","catch","sw","l","sh","180","200","207","261","200","140","trueblood","null","null","null","null","null","null","null","null","null","null","null","","180","200","260","200","36000","52000","[1,2]","493.2217904925575","436.8470637893948","503.1864000850453"
"","canvas-keyboard-response","102","99107","0.0-6.0-5.13","523","","","","","make choice","1","2","","","catch","sw","l","sh","180","200","207","261","200","140","trueblood","null","null","null","null","null","null","null","null","null","null","null","","180","200","260","200","36000","52000","[1,2]","","",""
"","canvas-keyboard-response","103","99122","0.0-6.0-6.13","523","","","","","clear_screen","null","null","","","catch","sw","l","sh","180","200","207","261","200","140","trueblood","null","null","null","null","null","null","null","null","null","null","null","","180","200","260","200","36000","52000","[1,2]","","",""
"","canvas-keyboard-response","104","99324","0.0-6.0-0.14","523","","","","","pre trial waiting period","null","null","","","critical","t","c","d","164","240","240","164","154.6796","220.0396","spektor","0.14","h","164","240","240","164","154.6796","220.0396","39360","39360","34035.6388","td","null","null","null","null","null","null","[1,3]","463.49533555494463","189.11702300184487","493.0158704964445"
"","canvas-keyboard-response","105","99342","0.0-6.0-1.14","523","","","","","clear_screen","null","null","","","critical","t","c","d","164","240","240","164","154.6796","220.0396","spektor","0.14","h","164","240","240","164","154.6796","220.0396","39360","39360","34035.6388","td","null","null","null","null","null","null","[1,3]","463.49533555494463","189.11702300184487","493.0158704964445"
"","canvas-keyboard-response","106","99854","0.0-6.0-2.14","523","","","","","rectangles no change","null","null","","","critical","t","c","d","164","240","240","164","154.6796","220.0396","spektor","0.14","h","164","240","240","164","154.6796","220.0396","39360","39360","34035.6388","td","null","null","null","null","null","null","[1,3]","463.49533555494463","189.11702300184487","493.0158704964445"
"","canvas-keyboard-response","107","101192","0.0-6.0-3.14","523","","","","","rectangles with change","null","null","","","critical","t","c","d","164","240","240","164","154.6796","220.0396","spektor","0.14","h","164","240","240","164","154.6796","220.0396","39360","39360","34035.6388","td","null","null","null","null","null","null","[1,3]","463.49533555494463","189.11702300184487","493.0158704964445"
"","canvas-keyboard-response","108","101212","0.0-6.0-4.14","523","","","","","clear_screen","null","null","","","critical","t","c","d","164","240","240","164","154.6796","220.0396","spektor","0.14","h","164","240","240","164","154.6796","220.0396","39360","39360","34035.6388","td","null","null","null","null","null","null","[1,3]","463.49533555494463","189.11702300184487","493.0158704964445"
"","canvas-keyboard-response","109","101475","0.0-6.0-5.14","523","","","","","make choice","256","1","","","critical","t","c","d","164","240","240","164","154.6796","220.0396","spektor","0.14","h","164","240","240","164","154.6796","220.0396","39360","39360","34035.6388","td","null","null","null","null","null","null","[1,3]","","",""
"","canvas-keyboard-response","110","101496","0.0-6.0-6.14","523","","","","","clear_screen","null","null","","","critical","t","c","d","164","240","240","164","154.6796","220.0396","spektor","0.14","h","164","240","240","164","154.6796","220.0396","39360","39360","34035.6388","td","null","null","null","null","null","null","[1,3]","","",""
"","canvas-keyboard-response","111","101697","0.0-6.0-0.15","523","","","","","pre trial waiting period","null","null","","","critical","c","d","t","164","240","232.8713","160.6713","240","164","trueblood","0.05","w","240","164","164","240","232.8713","160.6713","39360","39360","37415.7294","td","null","null","null","null","null","null","[3,2]","462.3115530567285","505.4652912007045","488.2647522642021"
"","canvas-keyboard-response","112","101721","0.0-6.0-1.15","523","","","","","clear_screen","null","null","","","critical","c","d","t","164","240","232.8713","160.6713","240","164","trueblood","0.05","w","240","164","164","240","232.8713","160.6713","39360","39360","37415.7294","td","null","null","null","null","null","null","[3,2]","462.3115530567285","505.4652912007045","488.2647522642021"
"","canvas-keyboard-response","113","102227","0.0-6.0-2.15","523","","","","","rectangles no change","null","null","","","critical","c","d","t","164","240","232.8713","160.6713","240","164","trueblood","0.05","w","240","164","164","240","232.8713","160.6713","39360","39360","37415.7294","td","null","null","null","null","null","null","[3,2]","462.3115530567285","505.4652912007045","488.2647522642021"
"","canvas-keyboard-response","114","103565","0.0-6.0-3.15","523","","","","","rectangles with change","null","null","","","critical","c","d","t","164","240","232.8713","160.6713","240","164","trueblood","0.05","w","240","164","164","240","232.8713","160.6713","39360","39360","37415.7294","td","null","null","null","null","null","null","[3,2]","462.3115530567285","505.4652912007045","488.2647522642021"
"","canvas-keyboard-response","115","103583","0.0-6.0-4.15","523","","","","","clear_screen","null","null","","","critical","c","d","t","164","240","232.8713","160.6713","240","164","trueblood","0.05","w","240","164","164","240","232.8713","160.6713","39360","39360","37415.7294","td","null","null","null","null","null","null","[3,2]","462.3115530567285","505.4652912007045","488.2647522642021"
"","canvas-keyboard-response","116","104019","0.0-6.0-5.15","523","","","","","make choice","430","3","","","critical","c","d","t","164","240","232.8713","160.6713","240","164","trueblood","0.05","w","240","164","164","240","232.8713","160.6713","39360","39360","37415.7294","td","null","null","null","null","null","null","[3,2]","","",""
"","canvas-keyboard-response","117","104040","0.0-6.0-6.15","523","","","","","clear_screen","null","null","","","critical","c","d","t","164","240","232.8713","160.6713","240","164","trueblood","0.05","w","240","164","164","240","232.8713","160.6713","39360","39360","37415.7294","td","null","null","null","null","null","null","[3,2]","","",""
"","canvas-keyboard-response","118","104241","0.0-6.0-0.16","523","","","","","pre trial waiting period","null","null","","","catch","sw","sh","l","180","200","187","206","184","259","spektor","null","null","null","null","null","null","null","null","null","null","null","","180","200","260","200","36000","52000","[2,3]","503.0816589628436","133.15182509310458","483.4743306904405"
"","canvas-keyboard-response","119","104260","0.0-6.0-1.16","523","","","","","clear_screen","null","null","","","catch","sw","sh","l","180","200","187","206","184","259","spektor","null","null","null","null","null","null","null","null","null","null","null","","180","200","260","200","36000","52000","[2,3]","503.0816589628436","133.15182509310458","483.4743306904405"
"","canvas-keyboard-response","120","104766","0.0-6.0-2.16","523","","","","","rectangles no change","null","null","","","catch","sw","sh","l","180","200","187","206","184","259","spektor","null","null","null","null","null","null","null","null","null","null","null","","180","200","260","200","36000","52000","[2,3]","503.0816589628436","133.15182509310458","483.4743306904405"
"","canvas-keyboard-response","121","106104","0.0-6.0-3.16","523","","","","","rectangles with change","null","null","","","catch","sw","sh","l","180","200","187","206","184","259","spektor","null","null","null","null","null","null","null","null","null","null","null","","180","200","260","200","36000","52000","[2,3]","503.0816589628436","133.15182509310458","483.4743306904405"
"","canvas-keyboard-response","122","106122","0.0-6.0-4.16","523","","","","","clear_screen","null","null","","","catch","sw","sh","l","180","200","187","206","184","259","spektor","null","null","null","null","null","null","null","null","null","null","null","","180","200","260","200","36000","52000","[2,3]","503.0816589628436","133.15182509310458","483.4743306904405"
"","canvas-keyboard-response","123","106427","0.0-6.0-5.16","523","","","","","make choice","299","3","","","catch","sw","sh","l","180","200","187","206","184","259","spektor","null","null","null","null","null","null","null","null","null","null","null","","180","200","260","200","36000","52000","[2,3]","","",""
"","canvas-keyboard-response","124","106445","0.0-6.0-6.16","523","","","","","clear_screen","null","null","","","catch","sw","sh","l","180","200","187","206","184","259","spektor","null","null","null","null","null","null","null","null","null","null","null","","180","200","260","200","36000","52000","[2,3]","","",""
"","canvas-keyboard-response","125","106645","0.0-6.0-0.17","523","","","","","pre trial waiting period","null","null","","","critical","d","t","c","154.6796","220.0396","164","240","240","164","trueblood","0.14","h","164","240","240","164","154.6796","220.0396","39360","39360","34035.6388","tc","null","null","null","null","null","null","[2,3]","444.8572796116352","434.9525082962559","503.00596885992985"
"","canvas-keyboard-response","126","106665","0.0-6.0-1.17","523","","","","","clear_screen","null","null","","","critical","d","t","c","154.6796","220.0396","164","240","240","164","trueblood","0.14","h","164","240","240","164","154.6796","220.0396","39360","39360","34035.6388","tc","null","null","null","null","null","null","[2,3]","444.8572796116352","434.9525082962559","503.00596885992985"
"","canvas-keyboard-response","127","107171","0.0-6.0-2.17","523","","","","","rectangles no change","null","null","","","critical","d","t","c","154.6796","220.0396","164","240","240","164","trueblood","0.14","h","164","240","240","164","154.6796","220.0396","39360","39360","34035.6388","tc","null","null","null","null","null","null","[2,3]","444.8572796116352","434.9525082962559","503.00596885992985"
"","canvas-keyboard-response","128","108506","0.0-6.0-3.17","523","","","","","rectangles with change","null","null","","","critical","d","t","c","154.6796","220.0396","164","240","240","164","trueblood","0.14","h","164","240","240","164","154.6796","220.0396","39360","39360","34035.6388","tc","null","null","null","null","null","null","[2,3]","444.8572796116352","434.9525082962559","503.00596885992985"
"","canvas-keyboard-response","129","108525","0.0-6.0-4.17","523","","","","","clear_screen","null","null","","","critical","d","t","c","154.6796","220.0396","164","240","240","164","trueblood","0.14","h","164","240","240","164","154.6796","220.0396","39360","39360","34035.6388","tc","null","null","null","null","null","null","[2,3]","444.8572796116352","434.9525082962559","503.00596885992985"
"","canvas-keyboard-response","130","109115","0.0-6.0-5.17","523","","","","","make choice","583","2","","","critical","d","t","c","154.6796","220.0396","164","240","240","164","trueblood","0.14","h","164","240","240","164","154.6796","220.0396","39360","39360","34035.6388","tc","null","null","null","null","null","null","[2,3]","","",""
"","canvas-keyboard-response","131","109133","0.0-6.0-6.17","523","","","","","clear_screen","null","null","","","critical","d","t","c","154.6796","220.0396","164","240","240","164","trueblood","0.14","h","164","240","240","164","154.6796","220.0396","39360","39360","34035.6388","tc","null","null","null","null","null","null","[2,3]","","",""
"","canvas-keyboard-response","132","109335","0.0-6.0-0.18","523","","","","","pre trial waiting period","null","null","","","critical","c","t","d","164","240","240","164","232.8713","160.6713","spektor","0.05","w","240","164","164","240","232.8713","160.6713","39360","39360","37415.7294","tc","null","null","null","null","null","null","[2,1]","462.4123971187427","205.38089808035045","528.9041846631991"
"","canvas-keyboard-response","133","109354","0.0-6.0-1.18","523","","","","","clear_screen","null","null","","","critical","c","t","d","164","240","240","164","232.8713","160.6713","spektor","0.05","w","240","164","164","240","232.8713","160.6713","39360","39360","37415.7294","tc","null","null","null","null","null","null","[2,1]","462.4123971187427","205.38089808035045","528.9041846631991"
"","canvas-keyboard-response","134","109861","0.0-6.0-2.18","523","","","","","rectangles no change","null","null","","","critical","c","t","d","164","240","240","164","232.8713","160.6713","spektor","0.05","w","240","164","164","240","232.8713","160.6713","39360","39360","37415.7294","tc","null","null","null","null","null","null","[2,1]","462.4123971187427","205.38089808035045","528.9041846631991"
"","canvas-keyboard-response","135","111200","0.0-6.0-3.18","523","","","","","rectangles with change","null","null","","","critical","c","t","d","164","240","240","164","232.8713","160.6713","spektor","0.05","w","240","164","164","240","232.8713","160.6713","39360","39360","37415.7294","tc","null","null","null","null","null","null","[2,1]","462.4123971187427","205.38089808035045","528.9041846631991"
"","canvas-keyboard-response","136","111221","0.0-6.0-4.18","523","","","","","clear_screen","null","null","","","critical","c","t","d","164","240","240","164","232.8713","160.6713","spektor","0.05","w","240","164","164","240","232.8713","160.6713","39360","39360","37415.7294","tc","null","null","null","null","null","null","[2,1]","462.4123971187427","205.38089808035045","528.9041846631991"
"","canvas-keyboard-response","137","112668","0.0-6.0-5.18","523","","","","","make choice","1441","2","","","critical","c","t","d","164","240","240","164","232.8713","160.6713","spektor","0.05","w","240","164","164","240","232.8713","160.6713","39360","39360","37415.7294","tc","null","null","null","null","null","null","[2,1]","","",""
"","canvas-keyboard-response","138","112686","0.0-6.0-6.18","523","","","","","clear_screen","null","null","","","critical","c","t","d","164","240","240","164","232.8713","160.6713","spektor","0.05","w","240","164","164","240","232.8713","160.6713","39360","39360","37415.7294","tc","null","null","null","null","null","null","[2,1]","","",""
"","canvas-keyboard-response","139","112887","0.0-6.0-0.19","523","","","","","pre trial waiting period","null","null","","","catch","sh","l","sw","210","161","226","251","176","167","spektor","null","null","null","null","null","null","null","null","null","null","null","","180","200","260","200","36000","52000","[2,3]","536.3596809617856","143.99495702122388","504.3777643779065"
"","canvas-keyboard-response","140","112909","0.0-6.0-1.19","523","","","","","clear_screen","null","null","","","catch","sh","l","sw","210","161","226","251","176","167","spektor","null","null","null","null","null","null","null","null","null","null","null","","180","200","260","200","36000","52000","[2,3]","536.3596809617856","143.99495702122388","504.3777643779065"
"","canvas-keyboard-response","141","113416","0.0-6.0-2.19","523","","","","","rectangles no change","null","null","","","catch","sh","l","sw","210","161","226","251","176","167","spektor","null","null","null","null","null","null","null","null","null","null","null","","180","200","260","200","36000","52000","[2,3]","536.3596809617856","143.99495702122388","504.3777643779065"
"","canvas-keyboard-response","142","114751","0.0-6.0-3.19","523","","","","","rectangles with change","null","null","","","catch","sh","l","sw","210","161","226","251","176","167","spektor","null","null","null","null","null","null","null","null","null","null","null","","180","200","260","200","36000","52000","[2,3]","536.3596809617856","143.99495702122388","504.3777643779065"
"","canvas-keyboard-response","143","114772","0.0-6.0-4.19","523","","","","","clear_screen","null","null","","","catch","sh","l","sw","210","161","226","251","176","167","spektor","null","null","null","null","null","null","null","null","null","null","null","","180","200","260","200","36000","52000","[2,3]","536.3596809617856","143.99495702122388","504.3777643779065"
"","canvas-keyboard-response","144","115075","0.0-6.0-5.19","523","","","","","make choice","298","2","","","catch","sh","l","sw","210","161","226","251","176","167","spektor","null","null","null","null","null","null","null","null","null","null","null","","180","200","260","200","36000","52000","[2,3]","","",""
"","canvas-keyboard-response","145","115096","0.0-6.0-6.19","523","","","","","clear_screen","null","null","","","catch","sh","l","sw","210","161","226","251","176","167","spektor","null","null","null","null","null","null","null","null","null","null","null","","180","200","260","200","36000","52000","[2,3]","","",""
"","canvas-keyboard-response","146","115297","0.0-6.0-0.20","523","","","","","pre trial waiting period","null","null","","","critical","t","c","d","240","164","164","240","232.8713","160.6713","trueblood","0.05","w","240","164","164","240","232.8713","160.6713","39360","39360","37415.7294","tc","null","null","null","null","null","null","[1,2]","470.7677246263846","443.3243178945256","496.3585601281767"
"","canvas-keyboard-response","147","115321","0.0-6.0-1.20","523","","","","","clear_screen","null","null","","","critical","t","c","d","240","164","164","240","232.8713","160.6713","trueblood","0.05","w","240","164","164","240","232.8713","160.6713","39360","39360","37415.7294","tc","null","null","null","null","null","null","[1,2]","470.7677246263846","443.3243178945256","496.3585601281767"
"","canvas-keyboard-response","148","115827","0.0-6.0-2.20","523","","","","","rectangles no change","null","null","","","critical","t","c","d","240","164","164","240","232.8713","160.6713","trueblood","0.05","w","240","164","164","240","232.8713","160.6713","39360","39360","37415.7294","tc","null","null","null","null","null","null","[1,2]","470.7677246263846","443.3243178945256","496.3585601281767"
"","canvas-keyboard-response","149","117163","0.0-6.0-3.20","523","","","","","rectangles with change","null","null","","","critical","t","c","d","240","164","164","240","232.8713","160.6713","trueblood","0.05","w","240","164","164","240","232.8713","160.6713","39360","39360","37415.7294","tc","null","null","null","null","null","null","[1,2]","470.7677246263846","443.3243178945256","496.3585601281767"
"","canvas-keyboard-response","150","117181","0.0-6.0-4.20","523","","","","","clear_screen","null","null","","","critical","t","c","d","240","164","164","240","232.8713","160.6713","trueblood","0.05","w","240","164","164","240","232.8713","160.6713","39360","39360","37415.7294","tc","null","null","null","null","null","null","[1,2]","470.7677246263846","443.3243178945256","496.3585601281767"
"","canvas-keyboard-response","151","117683","0.0-6.0-5.20","523","","","","","make choice","498","2","","","critical","t","c","d","240","164","164","240","232.8713","160.6713","trueblood","0.05","w","240","164","164","240","232.8713","160.6713","39360","39360","37415.7294","tc","null","null","null","null","null","null","[1,2]","","",""
"","canvas-keyboard-response","152","117705","0.0-6.0-6.20","523","","","","","clear_screen","null","null","","","critical","t","c","d","240","164","164","240","232.8713","160.6713","trueblood","0.05","w","240","164","164","240","232.8713","160.6713","39360","39360","37415.7294","tc","null","null","null","null","null","null","[1,2]","","",""
"","canvas-keyboard-response","153","117905","0.0-6.0-0.21","523","","","","","pre trial waiting period","null","null","","","critical","t","c","d","164","240","240","164","160.6713","232.8713","spektor","0.05","h","164","240","240","164","160.6713","232.8713","39360","39360","37415.7294","dc","null","null","null","null","null","null","[3,2]","468.41638817224157","182.73249313504797","466.7599473994961"
"","canvas-keyboard-response","154","117926","0.0-6.0-1.21","523","","","","","clear_screen","null","null","","","critical","t","c","d","164","240","240","164","160.6713","232.8713","spektor","0.05","h","164","240","240","164","160.6713","232.8713","39360","39360","37415.7294","dc","null","null","null","null","null","null","[3,2]","468.41638817224157","182.73249313504797","466.7599473994961"
"","canvas-keyboard-response","155","118437","0.0-6.0-2.21","523","","","","","rectangles no change","null","null","","","critical","t","c","d","164","240","240","164","160.6713","232.8713","spektor","0.05","h","164","240","240","164","160.6713","232.8713","39360","39360","37415.7294","dc","null","null","null","null","null","null","[3,2]","468.41638817224157","182.73249313504797","466.7599473994961"
"","canvas-keyboard-response","156","119775","0.0-6.0-3.21","523","","","","","rectangles with change","null","null","","","critical","t","c","d","164","240","240","164","160.6713","232.8713","spektor","0.05","h","164","240","240","164","160.6713","232.8713","39360","39360","37415.7294","dc","null","null","null","null","null","null","[3,2]","468.41638817224157","182.73249313504797","466.7599473994961"
"","canvas-keyboard-response","157","119795","0.0-6.0-4.21","523","","","","","clear_screen","null","null","","","critical","t","c","d","164","240","240","164","160.6713","232.8713","spektor","0.05","h","164","240","240","164","160.6713","232.8713","39360","39360","37415.7294","dc","null","null","null","null","null","null","[3,2]","468.41638817224157","182.73249313504797","466.7599473994961"
"","canvas-keyboard-response","158","120275","0.0-6.0-5.21","523","","","","","make choice","476","3","","","critical","t","c","d","164","240","240","164","160.6713","232.8713","spektor","0.05","h","164","240","240","164","160.6713","232.8713","39360","39360","37415.7294","dc","null","null","null","null","null","null","[3,2]","","",""
"","canvas-keyboard-response","159","120293","0.0-6.0-6.21","523","","","","","clear_screen","null","null","","","critical","t","c","d","164","240","240","164","160.6713","232.8713","spektor","0.05","h","164","240","240","164","160.6713","232.8713","39360","39360","37415.7294","dc","null","null","null","null","null","null","[3,2]","","",""
"","canvas-keyboard-response","160","120494","0.0-6.0-0.22","523","","","","","pre trial waiting period","null","null","","","critical","d","t","c","160.6713","232.8713","164","240","240","164","trueblood","0.05","h","164","240","240","164","160.6713","232.8713","39360","39360","37415.7294","tc","null","null","null","null","null","null","[2,3]","454.9919774473921","434.46741538048263","472.046567369305"
"","canvas-keyboard-response","161","120515","0.0-6.0-1.22","523","","","","","clear_screen","null","null","","","critical","d","t","c","160.6713","232.8713","164","240","240","164","trueblood","0.05","h","164","240","240","164","160.6713","232.8713","39360","39360","37415.7294","tc","null","null","null","null","null","null","[2,3]","454.9919774473921","434.46741538048263","472.046567369305"
"","canvas-keyboard-response","162","121020","0.0-6.0-2.22","523","","","","","rectangles no change","null","null","","","critical","d","t","c","160.6713","232.8713","164","240","240","164","trueblood","0.05","h","164","240","240","164","160.6713","232.8713","39360","39360","37415.7294","tc","null","null","null","null","null","null","[2,3]","454.9919774473921","434.46741538048263","472.046567369305"
"","canvas-keyboard-response","163","122360","0.0-6.0-3.22","523","","","","","rectangles with change","null","null","","","critical","d","t","c","160.6713","232.8713","164","240","240","164","trueblood","0.05","h","164","240","240","164","160.6713","232.8713","39360","39360","37415.7294","tc","null","null","null","null","null","null","[2,3]","454.9919774473921","434.46741538048263","472.046567369305"
"","canvas-keyboard-response","164","122378","0.0-6.0-4.22","523","","","","","clear_screen","null","null","","","critical","d","t","c","160.6713","232.8713","164","240","240","164","trueblood","0.05","h","164","240","240","164","160.6713","232.8713","39360","39360","37415.7294","tc","null","null","null","null","null","null","[2,3]","454.9919774473921","434.46741538048263","472.046567369305"
"","canvas-keyboard-response","165","122651","0.0-6.0-5.22","523","","","","","make choice","267","3","","","critical","d","t","c","160.6713","232.8713","164","240","240","164","trueblood","0.05","h","164","240","240","164","160.6713","232.8713","39360","39360","37415.7294","tc","null","null","null","null","null","null","[2,3]","","",""
"","canvas-keyboard-response","166","122673","0.0-6.0-6.22","523","","","","","clear_screen","null","null","","","critical","d","t","c","160.6713","232.8713","164","240","240","164","trueblood","0.05","h","164","240","240","164","160.6713","232.8713","39360","39360","37415.7294","tc","null","null","null","null","null","null","[2,3]","","",""
"","canvas-keyboard-response","167","122873","0.0-6.0-0.23","523","","","","","pre trial waiting period","null","null","","","critical","c","d","t","240","164","164","240","164","240","spektor","0","h","164","240","240","164","164","240","39360","39360","39360","dc","null","null","null","null","null","null","[2,1]","526.4516591287078","139.56269074681336","500.3066892761816"
"","canvas-keyboard-response","168","122894","0.0-6.0-1.23","523","","","","","clear_screen","null","null","","","critical","c","d","t","240","164","164","240","164","240","spektor","0","h","164","240","240","164","164","240","39360","39360","39360","dc","null","null","null","null","null","null","[2,1]","526.4516591287078","139.56269074681336","500.3066892761816"
"","canvas-keyboard-response","169","123401","0.0-6.0-2.23","523","","","","","rectangles no change","null","null","","","critical","c","d","t","240","164","164","240","164","240","spektor","0","h","164","240","240","164","164","240","39360","39360","39360","dc","null","null","null","null","null","null","[2,1]","526.4516591287078","139.56269074681336","500.3066892761816"
"","canvas-keyboard-response","170","124739","0.0-6.0-3.23","523","","","","","rectangles with change","null","null","","","critical","c","d","t","240","164","164","240","164","240","spektor","0","h","164","240","240","164","164","240","39360","39360","39360","dc","null","null","null","null","null","null","[2,1]","526.4516591287078","139.56269074681336","500.3066892761816"
"","canvas-keyboard-response","171","124759","0.0-6.0-4.23","523","","","","","clear_screen","null","null","","","critical","c","d","t","240","164","164","240","164","240","spektor","0","h","164","240","240","164","164","240","39360","39360","39360","dc","null","null","null","null","null","null","[2,1]","526.4516591287078","139.56269074681336","500.3066892761816"
"","canvas-keyboard-response","172","124979","0.0-6.0-5.23","523","","","","","make choice","216","1","","","critical","c","d","t","240","164","164","240","164","240","spektor","0","h","164","240","240","164","164","240","39360","39360","39360","dc","null","null","null","null","null","null","[2,1]","","",""
"","canvas-keyboard-response","173","124996","0.0-6.0-6.23","523","","","","","clear_screen","null","null","","","critical","c","d","t","240","164","164","240","164","240","spektor","0","h","164","240","240","164","164","240","39360","39360","39360","dc","null","null","null","null","null","null","[2,1]","","",""
"","canvas-keyboard-response","174","125198","0.0-6.0-0.24","523","","","","","pre trial waiting period","null","null","","","critical","t","c","d","240","164","164","240","237.1485","162.6685","spektor","0.02","w","240","164","164","240","237.1485","162.6685","39360","39360","38576.5967","tc","null","null","null","null","null","null","[1,2]","518.2701896738664","154.64356931984284","524.8321016300038"
"","canvas-keyboard-response","175","125217","0.0-6.0-1.24","523","","","","","clear_screen","null","null","","","critical","t","c","d","240","164","164","240","237.1485","162.6685","spektor","0.02","w","240","164","164","240","237.1485","162.6685","39360","39360","38576.5967","tc","null","null","null","null","null","null","[1,2]","518.2701896738664","154.64356931984284","524.8321016300038"
"","canvas-keyboard-response","176","125725","0.0-6.0-2.24","523","","","","","rectangles no change","null","null","","","critical","t","c","d","240","164","164","240","237.1485","162.6685","spektor","0.02","w","240","164","164","240","237.1485","162.6685","39360","39360","38576.5967","tc","null","null","null","null","null","null","[1,2]","518.2701896738664","154.64356931984284","524.8321016300038"
"","canvas-keyboard-response","177","127064","0.0-6.0-3.24","523","","","","","rectangles with change","null","null","","","critical","t","c","d","240","164","164","240","237.1485","162.6685","spektor","0.02","w","240","164","164","240","237.1485","162.6685","39360","39360","38576.5967","tc","null","null","null","null","null","null","[1,2]","518.2701896738664","154.64356931984284","524.8321016300038"
"","canvas-keyboard-response","178","127083","0.0-6.0-4.24","523","","","","","clear_screen","null","null","","","critical","t","c","d","240","164","164","240","237.1485","162.6685","spektor","0.02","w","240","164","164","240","237.1485","162.6685","39360","39360","38576.5967","tc","null","null","null","null","null","null","[1,2]","518.2701896738664","154.64356931984284","524.8321016300038"
"","canvas-keyboard-response","179","127883","0.0-6.0-5.24","523","","","","","make choice","790","2","","","critical","t","c","d","240","164","164","240","237.1485","162.6685","spektor","0.02","w","240","164","164","240","237.1485","162.6685","39360","39360","38576.5967","tc","null","null","null","null","null","null","[1,2]","","",""
"","canvas-keyboard-response","180","127904","0.0-6.0-6.24","523","","","","","clear_screen","null","null","","","critical","t","c","d","240","164","164","240","237.1485","162.6685","spektor","0.02","w","240","164","164","240","237.1485","162.6685","39360","39360","38576.5967","tc","null","null","null","null","null","null","[1,2]","","",""
"","canvas-keyboard-response","181","128105","0.0-6.0-0.25","523","","","","","pre trial waiting period","null","null","","","critical","t","d","c","164","240","164","240","240","164","spektor","0","h","164","240","240","164","164","240","39360","39360","39360","td","null","null","null","null","null","null","[1,2]","457.82146102872645","105.99514302377447","506.8182738722162"
"","canvas-keyboard-response","182","128125","0.0-6.0-1.25","523","","","","","clear_screen","null","null","","","critical","t","d","c","164","240","164","240","240","164","spektor","0","h","164","240","240","164","164","240","39360","39360","39360","td","null","null","null","null","null","null","[1,2]","457.82146102872645","105.99514302377447","506.8182738722162"
"","canvas-keyboard-response","183","128634","0.0-6.0-2.25","523","","","","","rectangles no change","null","null","","","critical","t","d","c","164","240","164","240","240","164","spektor","0","h","164","240","240","164","164","240","39360","39360","39360","td","null","null","null","null","null","null","[1,2]","457.82146102872645","105.99514302377447","506.8182738722162"
"","canvas-keyboard-response","184","129970","0.0-6.0-3.25","523","","","","","rectangles with change","null","null","","","critical","t","d","c","164","240","164","240","240","164","spektor","0","h","164","240","240","164","164","240","39360","39360","39360","td","null","null","null","null","null","null","[1,2]","457.82146102872645","105.99514302377447","506.8182738722162"
"","canvas-keyboard-response","185","129989","0.0-6.0-4.25","523","","","","","clear_screen","null","null","","","critical","t","d","c","164","240","164","240","240","164","spektor","0","h","164","240","240","164","164","240","39360","39360","39360","td","null","null","null","null","null","null","[1,2]","457.82146102872645","105.99514302377447","506.8182738722162"
"","canvas-keyboard-response","186","130300","0.0-6.0-5.25","523","","","","","make choice","305","1","","","critical","t","d","c","164","240","164","240","240","164","spektor","0","h","164","240","240","164","164","240","39360","39360","39360","td","null","null","null","null","null","null","[1,2]","","",""
"","canvas-keyboard-response","187","130318","0.0-6.0-6.25","523","","","","","clear_screen","null","null","","","critical","t","d","c","164","240","164","240","240","164","spektor","0","h","164","240","240","164","164","240","39360","39360","39360","td","null","null","null","null","null","null","[1,2]","","",""
"","canvas-keyboard-response","188","130518","0.0-6.0-0.26","523","","","","","pre trial waiting period","null","null","","","critical","t","c","d","164","240","240","164","158.0083","227.1683","spektor","0.09","h","164","240","240","164","158.0083","227.1683","39360","39360","35894.4834","dc","null","null","null","null","null","null","[3,2]","491.0267191141954","169.0000127667637","486.44451929575456"
"","canvas-keyboard-response","189","130537","0.0-6.0-1.26","523","","","","","clear_screen","null","null","","","critical","t","c","d","164","240","240","164","158.0083","227.1683","spektor","0.09","h","164","240","240","164","158.0083","227.1683","39360","39360","35894.4834","dc","null","null","null","null","null","null","[3,2]","491.0267191141954","169.0000127667637","486.44451929575456"
"","canvas-keyboard-response","190","131044","0.0-6.0-2.26","523","","","","","rectangles no change","null","null","","","critical","t","c","d","164","240","240","164","158.0083","227.1683","spektor","0.09","h","164","240","240","164","158.0083","227.1683","39360","39360","35894.4834","dc","null","null","null","null","null","null","[3,2]","491.0267191141954","169.0000127667637","486.44451929575456"
"","canvas-keyboard-response","191","132383","0.0-6.0-3.26","523","","","","","rectangles with change","null","null","","","critical","t","c","d","164","240","240","164","158.0083","227.1683","spektor","0.09","h","164","240","240","164","158.0083","227.1683","39360","39360","35894.4834","dc","null","null","null","null","null","null","[3,2]","491.0267191141954","169.0000127667637","486.44451929575456"
"","canvas-keyboard-response","192","132403","0.0-6.0-4.26","523","","","","","clear_screen","null","null","","","critical","t","c","d","164","240","240","164","158.0083","227.1683","spektor","0.09","h","164","240","240","164","158.0083","227.1683","39360","39360","35894.4834","dc","null","null","null","null","null","null","[3,2]","491.0267191141954","169.0000127667637","486.44451929575456"
"","canvas-keyboard-response","193","133891","0.0-6.0-5.26","523","","","","","make choice","1483","2","","","critical","t","c","d","164","240","240","164","158.0083","227.1683","spektor","0.09","h","164","240","240","164","158.0083","227.1683","39360","39360","35894.4834","dc","null","null","null","null","null","null","[3,2]","","",""
"","canvas-keyboard-response","194","133910","0.0-6.0-6.26","523","","","","","clear_screen","null","null","","","critical","t","c","d","164","240","240","164","158.0083","227.1683","spektor","0.09","h","164","240","240","164","158.0083","227.1683","39360","39360","35894.4834","dc","null","null","null","null","null","null","[3,2]","","",""
"","canvas-keyboard-response","195","134111","0.0-6.0-0.27","523","","","","","pre trial waiting period","null","null","","","critical","t","d","c","240","164","240","164","164","240","trueblood","0","w","240","164","164","240","240","164","39360","39360","39360","dc","null","null","null","null","null","null","[2,3]","505.59594893700256","476.5733449966706","429.94470871375"
"","canvas-keyboard-response","196","134133","0.0-6.0-1.27","523","","","","","clear_screen","null","null","","","critical","t","d","c","240","164","240","164","164","240","trueblood","0","w","240","164","164","240","240","164","39360","39360","39360","dc","null","null","null","null","null","null","[2,3]","505.59594893700256","476.5733449966706","429.94470871375"
"","canvas-keyboard-response","197","134639","0.0-6.0-2.27","523","","","","","rectangles no change","null","null","","","critical","t","d","c","240","164","240","164","164","240","trueblood","0","w","240","164","164","240","240","164","39360","39360","39360","dc","null","null","null","null","null","null","[2,3]","505.59594893700256","476.5733449966706","429.94470871375"
"","canvas-keyboard-response","198","135978","0.0-6.0-3.27","523","","","","","rectangles with change","null","null","","","critical","t","d","c","240","164","240","164","164","240","trueblood","0","w","240","164","164","240","240","164","39360","39360","39360","dc","null","null","null","null","null","null","[2,3]","505.59594893700256","476.5733449966706","429.94470871375"
"","canvas-keyboard-response","199","136002","0.0-6.0-4.27","523","","","","","clear_screen","null","null","","","critical","t","d","c","240","164","240","164","164","240","trueblood","0","w","240","164","164","240","240","164","39360","39360","39360","dc","null","null","null","null","null","null","[2,3]","505.59594893700256","476.5733449966706","429.94470871375"
"","canvas-keyboard-response","200","136820","0.0-6.0-5.27","523","","","","","make choice","811","2","","","critical","t","d","c","240","164","240","164","164","240","trueblood","0","w","240","164","164","240","240","164","39360","39360","39360","dc","null","null","null","null","null","null","[2,3]","","",""
"","canvas-keyboard-response","201","136839","0.0-6.0-6.27","523","","","","","clear_screen","null","null","","","critical","t","d","c","240","164","240","164","164","240","trueblood","0","w","240","164","164","240","240","164","39360","39360","39360","dc","null","null","null","null","null","null","[2,3]","","",""
"","canvas-keyboard-response","202","137040","0.0-6.0-0.28","523","","","","","pre trial waiting period","null","null","","","critical","c","d","t","164","240","220.0396","154.6796","240","164","spektor","0.14","w","240","164","164","240","220.0396","154.6796","39360","39360","34035.6388","td","null","null","null","null","null","null","[3,2]","465.3428511221674","204.3709989227103","538.2411545989806"
"","canvas-keyboard-response","203","137060","0.0-6.0-1.28","523","","","","","clear_screen","null","null","","","critical","c","d","t","164","240","220.0396","154.6796","240","164","spektor","0.14","w","240","164","164","240","220.0396","154.6796","39360","39360","34035.6388","td","null","null","null","null","null","null","[3,2]","465.3428511221674","204.3709989227103","538.2411545989806"
"","canvas-keyboard-response","204","137568","0.0-6.0-2.28","523","","","","","rectangles no change","null","null","","","critical","c","d","t","164","240","220.0396","154.6796","240","164","spektor","0.14","w","240","164","164","240","220.0396","154.6796","39360","39360","34035.6388","td","null","null","null","null","null","null","[3,2]","465.3428511221674","204.3709989227103","538.2411545989806"
"","canvas-keyboard-response","205","138909","0.0-6.0-3.28","523","","","","","rectangles with change","null","null","","","critical","c","d","t","164","240","220.0396","154.6796","240","164","spektor","0.14","w","240","164","164","240","220.0396","154.6796","39360","39360","34035.6388","td","null","null","null","null","null","null","[3,2]","465.3428511221674","204.3709989227103","538.2411545989806"
"","canvas-keyboard-response","206","138929","0.0-6.0-4.28","523","","","","","clear_screen","null","null","","","critical","c","d","t","164","240","220.0396","154.6796","240","164","spektor","0.14","w","240","164","164","240","220.0396","154.6796","39360","39360","34035.6388","td","null","null","null","null","null","null","[3,2]","465.3428511221674","204.3709989227103","538.2411545989806"
"","canvas-keyboard-response","207","139187","0.0-6.0-5.28","523","","","","","make choice","251","3","","","critical","c","d","t","164","240","220.0396","154.6796","240","164","spektor","0.14","w","240","164","164","240","220.0396","154.6796","39360","39360","34035.6388","td","null","null","null","null","null","null","[3,2]","","",""
"","canvas-keyboard-response","208","139204","0.0-6.0-6.28","523","","","","","clear_screen","null","null","","","critical","c","d","t","164","240","220.0396","154.6796","240","164","spektor","0.14","w","240","164","164","240","220.0396","154.6796","39360","39360","34035.6388","td","null","null","null","null","null","null","[3,2]","","",""
"","canvas-keyboard-response","209","139406","0.0-6.0-0.29","523","","","","","pre trial waiting period","null","null","","","catch","sh","sw","l","165","215","193","198","249","208","spektor","null","null","null","null","null","null","null","null","null","null","null","","180","200","260","200","36000","52000","[1,3]","487.5145303674902","160.0285677041464","507.42086141964324"
"","canvas-keyboard-response","210","139425","0.0-6.0-1.29","523","","","","","clear_screen","null","null","","","catch","sh","sw","l","165","215","193","198","249","208","spektor","null","null","null","null","null","null","null","null","null","null","null","","180","200","260","200","36000","52000","[1,3]","487.5145303674902","160.0285677041464","507.42086141964324"
"","canvas-keyboard-response","211","139934","0.0-6.0-2.29","523","","","","","rectangles no change","null","null","","","catch","sh","sw","l","165","215","193","198","249","208","spektor","null","null","null","null","null","null","null","null","null","null","null","","180","200","260","200","36000","52000","[1,3]","487.5145303674902","160.0285677041464","507.42086141964324"
"","canvas-keyboard-response","212","141270","0.0-6.0-3.29","523","","","","","rectangles with change","null","null","","","catch","sh","sw","l","165","215","193","198","249","208","spektor","null","null","null","null","null","null","null","null","null","null","null","","180","200","260","200","36000","52000","[1,3]","487.5145303674902","160.0285677041464","507.42086141964324"
"","canvas-keyboard-response","213","141290","0.0-6.0-4.29","523","","","","","clear_screen","null","null","","","catch","sh","sw","l","165","215","193","198","249","208","spektor","null","null","null","null","null","null","null","null","null","null","null","","180","200","260","200","36000","52000","[1,3]","487.5145303674902","160.0285677041464","507.42086141964324"
"","canvas-keyboard-response","214","141764","0.0-6.0-5.29","523","","","","","make choice","467","3","","","catch","sh","sw","l","165","215","193","198","249","208","spektor","null","null","null","null","null","null","null","null","null","null","null","","180","200","260","200","36000","52000","[1,3]","","",""
"","canvas-keyboard-response","215","141782","0.0-6.0-6.29","523","","","","","clear_screen","null","null","","","catch","sh","sw","l","165","215","193","198","249","208","spektor","null","null","null","null","null","null","null","null","null","null","null","","180","200","260","200","36000","52000","[1,3]","","",""
"","canvas-keyboard-response","216","141982","0.0-6.0-0.30","523","","","","","pre trial waiting period","null","null","","","catch","sw","l","sh","180","200","277","196","237","216","trueblood","null","null","null","null","null","null","null","null","null","null","null","","180","200","260","200","36000","52000","[2,3]","476.4305438059853","453.4573752238081","480.2690416053104"
"","canvas-keyboard-response","217","142001","0.0-6.0-1.30","523","","","","","clear_screen","null","null","","","catch","sw","l","sh","180","200","277","196","237","216","trueblood","null","null","null","null","null","null","null","null","null","null","null","","180","200","260","200","36000","52000","[2,3]","476.4305438059853","453.4573752238081","480.2690416053104"
"","canvas-keyboard-response","218","142508","0.0-6.0-2.30","523","","","","","rectangles no change","null","null","","","catch","sw","l","sh","180","200","277","196","237","216","trueblood","null","null","null","null","null","null","null","null","null","null","null","","180","200","260","200","36000","52000","[2,3]","476.4305438059853","453.4573752238081","480.2690416053104"
"","canvas-keyboard-response","219","143846","0.0-6.0-3.30","523","","","","","rectangles with change","null","null","","","catch","sw","l","sh","180","200","277","196","237","216","trueblood","null","null","null","null","null","null","null","null","null","null","null","","180","200","260","200","36000","52000","[2,3]","476.4305438059853","453.4573752238081","480.2690416053104"
"","canvas-keyboard-response","220","143863","0.0-6.0-4.30","523","","","","","clear_screen","null","null","","","catch","sw","l","sh","180","200","277","196","237","216","trueblood","null","null","null","null","null","null","null","null","null","null","null","","180","200","260","200","36000","52000","[2,3]","476.4305438059853","453.4573752238081","480.2690416053104"
"","canvas-keyboard-response","221","144188","0.0-6.0-5.30","523","","","","","make choice","318","2","","","catch","sw","l","sh","180","200","277","196","237","216","trueblood","null","null","null","null","null","null","null","null","null","null","null","","180","200","260","200","36000","52000","[2,3]","","",""
"","canvas-keyboard-response","222","144205","0.0-6.0-6.30","523","","","","","clear_screen","null","null","","","catch","sw","l","sh","180","200","277","196","237","216","trueblood","null","null","null","null","null","null","null","null","null","null","null","","180","200","260","200","36000","52000","[2,3]","","",""
"","canvas-keyboard-response","223","144406","0.0-6.0-0.31","523","","","","","pre trial waiting period","null","null","","","catch","sh","sw","l","209","218","198","213","194","291","spektor","null","null","null","null","null","null","null","null","null","null","null","","180","200","260","200","36000","52000","[1,3]","467.7350951706357","132.8860997874233","461.69247732016913"
"","canvas-keyboard-response","224","144426","0.0-6.0-1.31","523","","","","","clear_screen","null","null","","","catch","sh","sw","l","209","218","198","213","194","291","spektor","null","null","null","null","null","null","null","null","null","null","null","","180","200","260","200","36000","52000","[1,3]","467.7350951706357","132.8860997874233","461.69247732016913"
"","canvas-keyboard-response","225","144941","0.0-6.0-2.31","523","","","","","rectangles no change","null","null","","","catch","sh","sw","l","209","218","198","213","194","291","spektor","null","null","null","null","null","null","null","null","null","null","null","","180","200","260","200","36000","52000","[1,3]","467.7350951706357","132.8860997874233","461.69247732016913"
"","canvas-keyboard-response","226","146281","0.0-6.0-3.31","523","","","","","rectangles with change","null","null","","","catch","sh","sw","l","209","218","198","213","194","291","spektor","null","null","null","null","null","null","null","null","null","null","null","","180","200","260","200","36000","52000","[1,3]","467.7350951706357","132.8860997874233","461.69247732016913"
"","canvas-keyboard-response","227","146299","0.0-6.0-4.31","523","","","","","clear_screen","null","null","","","catch","sh","sw","l","209","218","198","213","194","291","spektor","null","null","null","null","null","null","null","null","null","null","null","","180","200","260","200","36000","52000","[1,3]","467.7350951706357","132.8860997874233","461.69247732016913"
"","canvas-keyboard-response","228","147027","0.0-6.0-5.31","523","","","","","make choice","723","1","","","catch","sh","sw","l","209","218","198","213","194","291","spektor","null","null","null","null","null","null","null","null","null","null","null","","180","200","260","200","36000","52000","[1,3]","","",""
"","canvas-keyboard-response","229","147049","0.0-6.0-6.31","523","","","","","clear_screen","null","null","","","catch","sh","sw","l","209","218","198","213","194","291","spektor","null","null","null","null","null","null","null","null","null","null","null","","180","200","260","200","36000","52000","[1,3]","","",""
"","canvas-keyboard-response","230","147249","0.0-6.0-0.32","523","","","","","pre trial waiting period","null","null","","","critical","t","c","d","164","240","240","164","162.6685","237.1485","spektor","0.02","h","164","240","240","164","162.6685","237.1485","39360","39360","38576.5967","tc","null","null","null","null","null","null","[1,2]","492.85115418762183","161.83171087069007","488.3689634499003"
"","canvas-keyboard-response","231","147273","0.0-6.0-1.32","523","","","","","clear_screen","null","null","","","critical","t","c","d","164","240","240","164","162.6685","237.1485","spektor","0.02","h","164","240","240","164","162.6685","237.1485","39360","39360","38576.5967","tc","null","null","null","null","null","null","[1,2]","492.85115418762183","161.83171087069007","488.3689634499003"
"","canvas-keyboard-response","232","147780","0.0-6.0-2.32","523","","","","","rectangles no change","null","null","","","critical","t","c","d","164","240","240","164","162.6685","237.1485","spektor","0.02","h","164","240","240","164","162.6685","237.1485","39360","39360","38576.5967","tc","null","null","null","null","null","null","[1,2]","492.85115418762183","161.83171087069007","488.3689634499003"
"","canvas-keyboard-response","233","149115","0.0-6.0-3.32","523","","","","","rectangles with change","null","null","","","critical","t","c","d","164","240","240","164","162.6685","237.1485","spektor","0.02","h","164","240","240","164","162.6685","237.1485","39360","39360","38576.5967","tc","null","null","null","null","null","null","[1,2]","492.85115418762183","161.83171087069007","488.3689634499003"
"","canvas-keyboard-response","234","149133","0.0-6.0-4.32","523","","","","","clear_screen","null","null","","","critical","t","c","d","164","240","240","164","162.6685","237.1485","spektor","0.02","h","164","240","240","164","162.6685","237.1485","39360","39360","38576.5967","tc","null","null","null","null","null","null","[1,2]","492.85115418762183","161.83171087069007","488.3689634499003"
"","canvas-keyboard-response","235","149516","0.0-6.0-5.32","523","","","","","make choice","376","1","","","critical","t","c","d","164","240","240","164","162.6685","237.1485","spektor","0.02","h","164","240","240","164","162.6685","237.1485","39360","39360","38576.5967","tc","null","null","null","null","null","null","[1,2]","","",""
"","canvas-keyboard-response","236","149535","0.0-6.0-6.32","523","","","","","clear_screen","null","null","","","critical","t","c","d","164","240","240","164","162.6685","237.1485","spektor","0.02","h","164","240","240","164","162.6685","237.1485","39360","39360","38576.5967","tc","null","null","null","null","null","null","[1,2]","","",""
"","canvas-keyboard-response","237","149737","0.0-6.0-0.33","523","","","","","pre trial waiting period","null","null","","","critical","d","c","t","227.1683","158.0083","164","240","240","164","spektor","0.09","w","240","164","164","240","227.1683","158.0083","39360","39360","35894.4834","tc","null","null","null","null","null","null","[3,2]","523.6855899694268","122.22514342325609","530.4444286546226"
"","canvas-keyboard-response","238","149755","0.0-6.0-1.33","523","","","","","clear_screen","null","null","","","critical","d","c","t","227.1683","158.0083","164","240","240","164","spektor","0.09","w","240","164","164","240","227.1683","158.0083","39360","39360","35894.4834","tc","null","null","null","null","null","null","[3,2]","523.6855899694268","122.22514342325609","530.4444286546226"
"","canvas-keyboard-response","239","150261","0.0-6.0-2.33","523","","","","","rectangles no change","null","null","","","critical","d","c","t","227.1683","158.0083","164","240","240","164","spektor","0.09","w","240","164","164","240","227.1683","158.0083","39360","39360","35894.4834","tc","null","null","null","null","null","null","[3,2]","523.6855899694268","122.22514342325609","530.4444286546226"
"","canvas-keyboard-response","240","151599","0.0-6.0-3.33","523","","","","","rectangles with change","null","null","","","critical","d","c","t","227.1683","158.0083","164","240","240","164","spektor","0.09","w","240","164","164","240","227.1683","158.0083","39360","39360","35894.4834","tc","null","null","null","null","null","null","[3,2]","523.6855899694268","122.22514342325609","530.4444286546226"
"","canvas-keyboard-response","241","151620","0.0-6.0-4.33","523","","","","","clear_screen","null","null","","","critical","d","c","t","227.1683","158.0083","164","240","240","164","spektor","0.09","w","240","164","164","240","227.1683","158.0083","39360","39360","35894.4834","tc","null","null","null","null","null","null","[3,2]","523.6855899694268","122.22514342325609","530.4444286546226"
"","canvas-keyboard-response","242","152419","0.0-6.0-5.33","523","","","","","make choice","794","2","","","critical","d","c","t","227.1683","158.0083","164","240","240","164","spektor","0.09","w","240","164","164","240","227.1683","158.0083","39360","39360","35894.4834","tc","null","null","null","null","null","null","[3,2]","","",""
"","canvas-keyboard-response","243","152440","0.0-6.0-6.33","523","","","","","clear_screen","null","null","","","critical","d","c","t","227.1683","158.0083","164","240","240","164","spektor","0.09","w","240","164","164","240","227.1683","158.0083","39360","39360","35894.4834","tc","null","null","null","null","null","null","[3,2]","","",""
"","canvas-keyboard-response","244","152641","0.0-6.0-0.34","523","","","","","pre trial waiting period","null","null","","","catch","sh","sw","l","169","160","202","224","192","253","trueblood","null","null","null","null","null","null","null","null","null","null","null","","180","200","260","200","36000","52000","[2,3]","490.01934686170637","439.81601502608413","430.41148102520395"
"","canvas-keyboard-response","245","152661","0.0-6.0-1.34","523","","","","","clear_screen","null","null","","","catch","sh","sw","l","169","160","202","224","192","253","trueblood","null","null","null","null","null","null","null","null","null","null","null","","180","200","260","200","36000","52000","[2,3]","490.01934686170637","439.81601502608413","430.41148102520395"
"","canvas-keyboard-response","246","153168","0.0-6.0-2.34","523","","","","","rectangles no change","null","null","","","catch","sh","sw","l","169","160","202","224","192","253","trueblood","null","null","null","null","null","null","null","null","null","null","null","","180","200","260","200","36000","52000","[2,3]","490.01934686170637","439.81601502608413","430.41148102520395"
"","canvas-keyboard-response","247","154505","0.0-6.0-3.34","523","","","","","rectangles with change","null","null","","","catch","sh","sw","l","169","160","202","224","192","253","trueblood","null","null","null","null","null","null","null","null","null","null","null","","180","200","260","200","36000","52000","[2,3]","490.01934686170637","439.81601502608413","430.41148102520395"
"","canvas-keyboard-response","248","154529","0.0-6.0-4.34","523","","","","","clear_screen","null","null","","","catch","sh","sw","l","169","160","202","224","192","253","trueblood","null","null","null","null","null","null","null","null","null","null","null","","180","200","260","200","36000","52000","[2,3]","490.01934686170637","439.81601502608413","430.41148102520395"
"","canvas-keyboard-response","249","154787","0.0-6.0-5.34","523","","","","","make choice","252","3","","","catch","sh","sw","l","169","160","202","224","192","253","trueblood","null","null","null","null","null","null","null","null","null","null","null","","180","200","260","200","36000","52000","[2,3]","","",""
"","canvas-keyboard-response","250","154808","0.0-6.0-6.34","523","","","","","clear_screen","null","null","","","catch","sh","sw","l","169","160","202","224","192","253","trueblood","null","null","null","null","null","null","null","null","null","null","null","","180","200","260","200","36000","52000","[2,3]","","",""
"","canvas-keyboard-response","251","155009","0.0-6.0-0.35","523","","","","","pre trial waiting period","null","null","","","critical","d","t","c","232.8713","160.6713","240","164","164","240","spektor","0.05","w","240","164","164","240","232.8713","160.6713","39360","39360","37415.7294","td","null","null","null","null","null","null","[2,1]","516.9724342597209","179.999731182543","495.8776877651825"
"","canvas-keyboard-response","252","155032","0.0-6.0-1.35","523","","","","","clear_screen","null","null","","","critical","d","t","c","232.8713","160.6713","240","164","164","240","spektor","0.05","w","240","164","164","240","232.8713","160.6713","39360","39360","37415.7294","td","null","null","null","null","null","null","[2,1]","516.9724342597209","179.999731182543","495.8776877651825"
"","canvas-keyboard-response","253","155539","0.0-6.0-2.35","523","","","","","rectangles no change","null","null","","","critical","d","t","c","232.8713","160.6713","240","164","164","240","spektor","0.05","w","240","164","164","240","232.8713","160.6713","39360","39360","37415.7294","td","null","null","null","null","null","null","[2,1]","516.9724342597209","179.999731182543","495.8776877651825"
"","canvas-keyboard-response","254","156875","0.0-6.0-3.35","523","","","","","rectangles with change","null","null","","","critical","d","t","c","232.8713","160.6713","240","164","164","240","spektor","0.05","w","240","164","164","240","232.8713","160.6713","39360","39360","37415.7294","td","null","null","null","null","null","null","[2,1]","516.9724342597209","179.999731182543","495.8776877651825"
"","canvas-keyboard-response","255","156894","0.0-6.0-4.35","523","","","","","clear_screen","null","null","","","critical","d","t","c","232.8713","160.6713","240","164","164","240","spektor","0.05","w","240","164","164","240","232.8713","160.6713","39360","39360","37415.7294","td","null","null","null","null","null","null","[2,1]","516.9724342597209","179.999731182543","495.8776877651825"
"","canvas-keyboard-response","256","157900","0.0-6.0-5.35","523","","","","","make choice","1002","1","","","critical","d","t","c","232.8713","160.6713","240","164","164","240","spektor","0.05","w","240","164","164","240","232.8713","160.6713","39360","39360","37415.7294","td","null","null","null","null","null","null","[2,1]","","",""
"","canvas-keyboard-response","257","157918","0.0-6.0-6.35","523","","","","","clear_screen","null","null","","","critical","d","t","c","232.8713","160.6713","240","164","164","240","spektor","0.05","w","240","164","164","240","232.8713","160.6713","39360","39360","37415.7294","td","null","null","null","null","null","null","[2,1]","","",""
"","canvas-keyboard-response","258","158119","0.0-6.0-0.36","523","","","","","pre trial waiting period","null","null","","","critical","c","d","t","240","164","164","240","164","240","spektor","0","h","164","240","240","164","164","240","39360","39360","39360","tc","null","null","null","null","null","null","[3,1]","502.3290872916214","102.09128870802235","478.07773953657886"
"","canvas-keyboard-response","259","158140","0.0-6.0-1.36","523","","","","","clear_screen","null","null","","","critical","c","d","t","240","164","164","240","164","240","spektor","0","h","164","240","240","164","164","240","39360","39360","39360","tc","null","null","null","null","null","null","[3,1]","502.3290872916214","102.09128870802235","478.07773953657886"
"","canvas-keyboard-response","260","158648","0.0-6.0-2.36","523","","","","","rectangles no change","null","null","","","critical","c","d","t","240","164","164","240","164","240","spektor","0","h","164","240","240","164","164","240","39360","39360","39360","tc","null","null","null","null","null","null","[3,1]","502.3290872916214","102.09128870802235","478.07773953657886"
"","canvas-keyboard-response","261","159988","0.0-6.0-3.36","523","","","","","rectangles with change","null","null","","","critical","c","d","t","240","164","164","240","164","240","spektor","0","h","164","240","240","164","164","240","39360","39360","39360","tc","null","null","null","null","null","null","[3,1]","502.3290872916214","102.09128870802235","478.07773953657886"
"","canvas-keyboard-response","262","160010","0.0-6.0-4.36","523","","","","","clear_screen","null","null","","","critical","c","d","t","240","164","164","240","164","240","spektor","0","h","164","240","240","164","164","240","39360","39360","39360","tc","null","null","null","null","null","null","[3,1]","502.3290872916214","102.09128870802235","478.07773953657886"
"","canvas-keyboard-response","263","160683","0.0-6.0-5.36","523","","","","","make choice","669","1","","","critical","c","d","t","240","164","164","240","164","240","spektor","0","h","164","240","240","164","164","240","39360","39360","39360","tc","null","null","null","null","null","null","[3,1]","","",""
"","canvas-keyboard-response","264","160701","0.0-6.0-6.36","523","","","","","clear_screen","null","null","","","critical","c","d","t","240","164","164","240","164","240","spektor","0","h","164","240","240","164","164","240","39360","39360","39360","tc","null","null","null","null","null","null","[3,1]","","",""
"","canvas-keyboard-response","265","160903","0.0-6.0-0.37","523","","","","","pre trial waiting period","null","null","","","critical","c","d","t","240","164","154.6796","220.0396","164","240","spektor","0.14","h","164","240","240","164","154.6796","220.0396","39360","39360","34035.6388","dc","null","null","null","null","null","null","[2,1]","507.96277855554075","147.43661669467272","465.71731716059554"
"","canvas-keyboard-response","266","160923","0.0-6.0-1.37","523","","","","","clear_screen","null","null","","","critical","c","d","t","240","164","154.6796","220.0396","164","240","spektor","0.14","h","164","240","240","164","154.6796","220.0396","39360","39360","34035.6388","dc","null","null","null","null","null","null","[2,1]","507.96277855554075","147.43661669467272","465.71731716059554"
"","canvas-keyboard-response","267","161431","0.0-6.0-2.37","523","","","","","rectangles no change","null","null","","","critical","c","d","t","240","164","154.6796","220.0396","164","240","spektor","0.14","h","164","240","240","164","154.6796","220.0396","39360","39360","34035.6388","dc","null","null","null","null","null","null","[2,1]","507.96277855554075","147.43661669467272","465.71731716059554"
