"success","trial_type","trial_index","time_elapsed","internal_node_id","sub_n","timeout","failed_images","failed_audio","failed_video","screen_id","rt","response","stimulus","view_history","trial","r1","r2","r3","w1","h1","w2","h2","w3","h3","display","tdd","tdo","tw","th","cw","ch","dw","dh","ta","ca","da","probe","csls","csss","clls","clss","sa","la","probe_rects","r1yloc","r2yloc","r3yloc"
"true","fullscreen","0","1890","0.0-0.0","577","","","","","","","","","","","","","","","","","","","","","","","","","","","","","","","","","","","","","","","","","",""
"true","preload","1","1910","0.0-1.0","577","false","[]","[]","[]","img preload","","","","","","","","","","","","","","","","","","","","","","","","","","","","","","","","","","","","",""
"","survey-html-form","2","3762","0.0-2.0","577","","","","","enter-sub-number","1844","{""response"":""577""}","","","","","","","","","","","","","","","","","","","","","","","","","","","","","","","","","","",""
"","image-button-response","3","20488","0.0-3.0","577","","","","","","16660","0","consent.png","","","","","","","","","","","","","","","","","","","","","","","","","","","","","","","","","",""
"","html-button-response","4","31919","0.0-4.0","577","","","","","intro mssg","11427","0","<div style= ""font-size:25px;"" <p> <strong> Welcome! </strong><br> <p style=""color:#8B0000; font-size:25px;""><strong> Please do NOT exit full screen until you are done with the experiment. </strong> </p><p style=""font-size:25px;color:#8B0000;""> <strong> Your data will be lost <br> if you try to go back or refresh the page after the experiment starts. Feel free to click ""previous"" during the instructions, however.</strong> </p><br><p> <strong> Thanks in advance for your contribution to our research! </strong></p>","","","","","","","","","","","","","","","","","","","","","","","","","","","","","","","","","",""
"","instructions","5","73552","0.0-5.0","577","","","","","instructions","41627","","","[{""page_index"":0,""viewing_time"":7954},{""page_index"":1,""viewing_time"":3673},{""page_index"":2,""viewing_time"":3528},{""page_index"":3,""viewing_time"":12016},{""page_index"":4,""viewing_time"":8040},{""page_index"":5,""viewing_time"":2728},{""page_index"":6,""viewing_time"":2680},{""page_index"":7,""viewing_time"":1007}]","","","","","","","","","","","","","","","","","","","","","","","","","","","","","","","","",""
"","canvas-keyboard-response","6","73757","0.0-6.0-0.0","577","","","","","pre trial waiting period","null","null","","","catch","sw","l","sh","180","200","234","177","197","217","spektor","null","null","null","null","null","null","null","null","null","null","null","","180","200","260","200","36000","52000","[2,3]","521.9707487756232","171.30081325901295","513.2226538397414"
"","canvas-keyboard-response","7","73783","0.0-6.0-1.0","577","","","","","clear_screen","null","null","","","catch","sw","l","sh","180","200","234","177","197","217","spektor","null","null","null","null","null","null","null","null","null","null","null","","180","200","260","200","36000","52000","[2,3]","521.9707487756232","171.30081325901295","513.2226538397414"
"","canvas-keyboard-response","8","74294","0.0-6.0-2.0","577","","","","","rectangles no change","null","null","","","catch","sw","l","sh","180","200","234","177","197","217","spektor","null","null","null","null","null","null","null","null","null","null","null","","180","200","260","200","36000","52000","[2,3]","521.9707487756232","171.30081325901295","513.2226538397414"
"","canvas-keyboard-response","9","75628","0.0-6.0-3.0","577","","","","","rectangles with change","null","null","","","catch","sw","l","sh","180","200","234","177","197","217","spektor","null","null","null","null","null","null","null","null","null","null","null","","180","200","260","200","36000","52000","[2,3]","521.9707487756232","171.30081325901295","513.2226538397414"
"","canvas-keyboard-response","10","75647","0.0-6.0-4.0","577","","","","","clear_screen","null","null","","","catch","sw","l","sh","180","200","234","177","197","217","spektor","null","null","null","null","null","null","null","null","null","null","null","","180","200","260","200","36000","52000","[2,3]","521.9707487756232","171.30081325901295","513.2226538397414"
"","canvas-keyboard-response","11","78183","0.0-6.0-5.0","577","","","","","make choice","2529","2","","","catch","sw","l","sh","180","200","234","177","197","217","spektor","null","null","null","null","null","null","null","null","null","null","null","","180","200","260","200","36000","52000","[2,3]","","",""
"","canvas-keyboard-response","12","78203","0.0-6.0-6.0","577","","","","","clear_screen","null","null","","","catch","sw","l","sh","180","200","234","177","197","217","spektor","null","null","null","null","null","null","null","null","null","null","null","","180","200","260","200","36000","52000","[2,3]","","",""
"","canvas-keyboard-response","13","78405","0.0-6.0-0.1","577","","","","","pre trial waiting period","null","null","","","catch","sw","sh","l","180","200","182","214","198","262","trueblood","null","null","null","null","null","null","null","null","null","null","null","","180","200","260","200","36000","52000","[2,3]","471.27869659675264","452.6192196043721","415.106678352791"
"","canvas-keyboard-response","14","78424","0.0-6.0-1.1","577","","","","","clear_screen","null","null","","","catch","sw","sh","l","180","200","182","214","198","262","trueblood","null","null","null","null","null","null","null","null","null","null","null","","180","200","260","200","36000","52000","[2,3]","471.27869659675264","452.6192196043721","415.106678352791"
"","canvas-keyboard-response","15","78931","0.0-6.0-2.1","577","","","","","rectangles no change","null","null","","","catch","sw","sh","l","180","200","182","214","198","262","trueblood","null","null","null","null","null","null","null","null","null","null","null","","180","200","260","200","36000","52000","[2,3]","471.27869659675264","452.6192196043721","415.106678352791"
"","canvas-keyboard-response","16","80270","0.0-6.0-3.1","577","","","","","rectangles with change","null","null","","","catch","sw","sh","l","180","200","182","214","198","262","trueblood","null","null","null","null","null","null","null","null","null","null","null","","180","200","260","200","36000","52000","[2,3]","471.27869659675264","452.6192196043721","415.106678352791"
"","canvas-keyboard-response","17","80291","0.0-6.0-4.1","577","","","","","clear_screen","null","null","","","catch","sw","sh","l","180","200","182","214","198","262","trueblood","null","null","null","null","null","null","null","null","null","null","null","","180","200","260","200","36000","52000","[2,3]","471.27869659675264","452.6192196043721","415.106678352791"
"","canvas-keyboard-response","18","80742","0.0-6.0-5.1","577","","","","","make choice","442","3","","","catch","sw","sh","l","180","200","182","214","198","262","trueblood","null","null","null","null","null","null","null","null","null","null","null","","180","200","260","200","36000","52000","[2,3]","","",""
"","canvas-keyboard-response","19","80761","0.0-6.0-6.1","577","","","","","clear_screen","null","null","","","catch","sw","sh","l","180","200","182","214","198","262","trueblood","null","null","null","null","null","null","null","null","null","null","null","","180","200","260","200","36000","52000","[2,3]","","",""
"","canvas-keyboard-response","20","80962","0.0-6.0-0.2","577","","","","","pre trial waiting period","null","null","","","critical","d","c","t","220.0396","154.6796","164","240","240","164","spektor","0.14","w","240","164","164","240","220.0396","154.6796","39360","39360","34035.6388","td","null","null","null","null","null","null","[3,1]","506.81340809200054","154.11878831495872","504.32652267581176"
"","canvas-keyboard-response","21","80985","0.0-6.0-1.2","577","","","","","clear_screen","null","null","","","critical","d","c","t","220.0396","154.6796","164","240","240","164","spektor","0.14","w","240","164","164","240","220.0396","154.6796","39360","39360","34035.6388","td","null","null","null","null","null","null","[3,1]","506.81340809200054","154.11878831495872","504.32652267581176"
"","canvas-keyboard-response","22","81493","0.0-6.0-2.2","577","","","","","rectangles no change","null","null","","","critical","d","c","t","220.0396","154.6796","164","240","240","164","spektor","0.14","w","240","164","164","240","220.0396","154.6796","39360","39360","34035.6388","td","null","null","null","null","null","null","[3,1]","506.81340809200054","154.11878831495872","504.32652267581176"
"","canvas-keyboard-response","23","82830","0.0-6.0-3.2","577","","","","","rectangles with change","null","null","","","critical","d","c","t","220.0396","154.6796","164","240","240","164","spektor","0.14","w","240","164","164","240","220.0396","154.6796","39360","39360","34035.6388","td","null","null","null","null","null","null","[3,1]","506.81340809200054","154.11878831495872","504.32652267581176"
"","canvas-keyboard-response","24","82850","0.0-6.0-4.2","577","","","","","clear_screen","null","null","","","critical","d","c","t","220.0396","154.6796","164","240","240","164","spektor","0.14","w","240","164","164","240","220.0396","154.6796","39360","39360","34035.6388","td","null","null","null","null","null","null","[3,1]","506.81340809200054","154.11878831495872","504.32652267581176"
"","canvas-keyboard-response","25","83151","0.0-6.0-5.2","577","","","","","make choice","295","3","","","critical","d","c","t","220.0396","154.6796","164","240","240","164","spektor","0.14","w","240","164","164","240","220.0396","154.6796","39360","39360","34035.6388","td","null","null","null","null","null","null","[3,1]","","",""
"","canvas-keyboard-response","26","83170","0.0-6.0-6.2","577","","","","","clear_screen","null","null","","","critical","d","c","t","220.0396","154.6796","164","240","240","164","spektor","0.14","w","240","164","164","240","220.0396","154.6796","39360","39360","34035.6388","td","null","null","null","null","null","null","[3,1]","","",""
"","canvas-keyboard-response","27","83371","0.0-6.0-0.3","577","","","","","pre trial waiting period","null","null","","","critical","c","d","t","240","164","164","240","164","240","trueblood","0","h","164","240","240","164","164","240","39360","39360","39360","td","null","null","null","null","null","null","[3,2]","473.18531660082397","427.77133013180537","454.0498478268394"
"","canvas-keyboard-response","28","83391","0.0-6.0-1.3","577","","","","","clear_screen","null","null","","","critical","c","d","t","240","164","164","240","164","240","trueblood","0","h","164","240","240","164","164","240","39360","39360","39360","td","null","null","null","null","null","null","[3,2]","473.18531660082397","427.77133013180537","454.0498478268394"
"","canvas-keyboard-response","29","83898","0.0-6.0-2.3","577","","","","","rectangles no change","null","null","","","critical","c","d","t","240","164","164","240","164","240","trueblood","0","h","164","240","240","164","164","240","39360","39360","39360","td","null","null","null","null","null","null","[3,2]","473.18531660082397","427.77133013180537","454.0498478268394"
"","canvas-keyboard-response","30","85233","0.0-6.0-3.3","577","","","","","rectangles with change","null","null","","","critical","c","d","t","240","164","164","240","164","240","trueblood","0","h","164","240","240","164","164","240","39360","39360","39360","td","null","null","null","null","null","null","[3,2]","473.18531660082397","427.77133013180537","454.0498478268394"
"","canvas-keyboard-response","31","85256","0.0-6.0-4.3","577","","","","","clear_screen","null","null","","","critical","c","d","t","240","164","164","240","164","240","trueblood","0","h","164","240","240","164","164","240","39360","39360","39360","td","null","null","null","null","null","null","[3,2]","473.18531660082397","427.77133013180537","454.0498478268394"
"","canvas-keyboard-response","32","85743","0.0-6.0-5.3","577","","","","","make choice","481","3","","","critical","c","d","t","240","164","164","240","164","240","trueblood","0","h","164","240","240","164","164","240","39360","39360","39360","td","null","null","null","null","null","null","[3,2]","","",""
"","canvas-keyboard-response","33","85762","0.0-6.0-6.3","577","","","","","clear_screen","null","null","","","critical","c","d","t","240","164","164","240","164","240","trueblood","0","h","164","240","240","164","164","240","39360","39360","39360","td","null","null","null","null","null","null","[3,2]","","",""
"","canvas-keyboard-response","34","85962","0.0-6.0-0.4","577","","","","","pre trial waiting period","null","null","","","critical","d","t","c","162.6685","237.1485","164","240","240","164","trueblood","0.02","h","164","240","240","164","162.6685","237.1485","39360","39360","38576.5967","td","null","null","null","null","null","null","[2,1]","457.3111858037381","439.9242140098124","492.5701668414802"
"","canvas-keyboard-response","35","85983","0.0-6.0-1.4","577","","","","","clear_screen","null","null","","","critical","d","t","c","162.6685","237.1485","164","240","240","164","trueblood","0.02","h","164","240","240","164","162.6685","237.1485","39360","39360","38576.5967","td","null","null","null","null","null","null","[2,1]","457.3111858037381","439.9242140098124","492.5701668414802"
"","canvas-keyboard-response","36","86488","0.0-6.0-2.4","577","","","","","rectangles no change","null","null","","","critical","d","t","c","162.6685","237.1485","164","240","240","164","trueblood","0.02","h","164","240","240","164","162.6685","237.1485","39360","39360","38576.5967","td","null","null","null","null","null","null","[2,1]","457.3111858037381","439.9242140098124","492.5701668414802"
"","canvas-keyboard-response","37","87825","0.0-6.0-3.4","577","","","","","rectangles with change","null","null","","","critical","d","t","c","162.6685","237.1485","164","240","240","164","trueblood","0.02","h","164","240","240","164","162.6685","237.1485","39360","39360","38576.5967","td","null","null","null","null","null","null","[2,1]","457.3111858037381","439.9242140098124","492.5701668414802"
"","canvas-keyboard-response","38","87845","0.0-6.0-4.4","577","","","","","clear_screen","null","null","","","critical","d","t","c","162.6685","237.1485","164","240","240","164","trueblood","0.02","h","164","240","240","164","162.6685","237.1485","39360","39360","38576.5967","td","null","null","null","null","null","null","[2,1]","457.3111858037381","439.9242140098124","492.5701668414802"
"","canvas-keyboard-response","39","88382","0.0-6.0-5.4","577","","","","","make choice","533","2","","","critical","d","t","c","162.6685","237.1485","164","240","240","164","trueblood","0.02","h","164","240","240","164","162.6685","237.1485","39360","39360","38576.5967","td","null","null","null","null","null","null","[2,1]","","",""
"","canvas-keyboard-response","40","88401","0.0-6.0-6.4","577","","","","","clear_screen","null","null","","","critical","d","t","c","162.6685","237.1485","164","240","240","164","trueblood","0.02","h","164","240","240","164","162.6685","237.1485","39360","39360","38576.5967","td","null","null","null","null","null","null","[2,1]","","",""
"","canvas-keyboard-response","41","88603","0.0-6.0-0.5","577","","","","","pre trial waiting period","null","null","","","critical","t","c","d","164","240","240","164","158.0083","227.1683","trueblood","0.09","h","164","240","240","164","158.0083","227.1683","39360","39360","35894.4834","tc","null","null","null","null","null","null","[1,2]","437.19195376804225","473.4501720111112","432.60594393018755"
"","canvas-keyboard-response","42","88625","0.0-6.0-1.5","577","","","","","clear_screen","null","null","","","critical","t","c","d","164","240","240","164","158.0083","227.1683","trueblood","0.09","h","164","240","240","164","158.0083","227.1683","39360","39360","35894.4834","tc","null","null","null","null","null","null","[1,2]","437.19195376804225","473.4501720111112","432.60594393018755"
"","canvas-keyboard-response","43","89136","0.0-6.0-2.5","577","","","","","rectangles no change","null","null","","","critical","t","c","d","164","240","240","164","158.0083","227.1683","trueblood","0.09","h","164","240","240","164","158.0083","227.1683","39360","39360","35894.4834","tc","null","null","null","null","null","null","[1,2]","437.19195376804225","473.4501720111112","432.60594393018755"
"","canvas-keyboard-response","44","90476","0.0-6.0-3.5","577","","","","","rectangles with change","null","null","","","critical","t","c","d","164","240","240","164","158.0083","227.1683","trueblood","0.09","h","164","240","240","164","158.0083","227.1683","39360","39360","35894.4834","tc","null","null","null","null","null","null","[1,2]","437.19195376804225","473.4501720111112","432.60594393018755"
"","canvas-keyboard-response","45","90495","0.0-6.0-4.5","577","","","","","clear_screen","null","null","","","critical","t","c","d","164","240","240","164","158.0083","227.1683","trueblood","0.09","h","164","240","240","164","158.0083","227.1683","39360","39360","35894.4834","tc","null","null","null","null","null","null","[1,2]","437.19195376804225","473.4501720111112","432.60594393018755"
"","canvas-keyboard-response","46","91206","0.0-6.0-5.5","577","","","","","make choice","707","2","","","critical","t","c","d","164","240","240","164","158.0083","227.1683","trueblood","0.09","h","164","240","240","164","158.0083","227.1683","39360","39360","35894.4834","tc","null","null","null","null","null","null","[1,2]","","",""
"","canvas-keyboard-response","47","91225","0.0-6.0-6.5","577","","","","","clear_screen","null","null","","","critical","t","c","d","164","240","240","164","158.0083","227.1683","trueblood","0.09","h","164","240","240","164","158.0083","227.1683","39360","39360","35894.4834","tc","null","null","null","null","null","null","[1,2]","","",""
"","canvas-keyboard-response","48","91426","0.0-6.0-0.6","577","","","","","pre trial waiting period","null","null","","","critical","t","d","c","164","240","164","240","240","164","trueblood","0","h","164","240","240","164","164","240","39360","39360","39360","tc","null","null","null","null","null","null","[1,3]","444.34342724691237","465.6608462386353","469.79575422078614"
"","canvas-keyboard-response","49","91445","0.0-6.0-1.6","577","","","","","clear_screen","null","null","","","critical","t","d","c","164","240","164","240","240","164","trueblood","0","h","164","240","240","164","164","240","39360","39360","39360","tc","null","null","null","null","null","null","[1,3]","444.34342724691237","465.6608462386353","469.79575422078614"
"","canvas-keyboard-response","50","91953","0.0-6.0-2.6","577","","","","","rectangles no change","null","null","","","critical","t","d","c","164","240","164","240","240","164","trueblood","0","h","164","240","240","164","164","240","39360","39360","39360","tc","null","null","null","null","null","null","[1,3]","444.34342724691237","465.6608462386353","469.79575422078614"
"","canvas-keyboard-response","51","93291","0.0-6.0-3.6","577","","","","","rectangles with change","null","null","","","critical","t","d","c","164","240","164","240","240","164","trueblood","0","h","164","240","240","164","164","240","39360","39360","39360","tc","null","null","null","null","null","null","[1,3]","444.34342724691237","465.6608462386353","469.79575422078614"
"","canvas-keyboard-response","52","93312","0.0-6.0-4.6","577","","","","","clear_screen","null","null","","","critical","t","d","c","164","240","164","240","240","164","trueblood","0","h","164","240","240","164","164","240","39360","39360","39360","tc","null","null","null","null","null","null","[1,3]","444.34342724691237","465.6608462386353","469.79575422078614"
"","canvas-keyboard-response","53","93966","0.0-6.0-5.6","577","","","","","make choice","649","3","","","critical","t","d","c","164","240","164","240","240","164","trueblood","0","h","164","240","240","164","164","240","39360","39360","39360","tc","null","null","null","null","null","null","[1,3]","","",""
"","canvas-keyboard-response","54","93987","0.0-6.0-6.6","577","","","","","clear_screen","null","null","","","critical","t","d","c","164","240","164","240","240","164","trueblood","0","h","164","240","240","164","164","240","39360","39360","39360","tc","null","null","null","null","null","null","[1,3]","","",""
"","canvas-keyboard-response","55","94188","0.0-6.0-0.7","577","","","","","pre trial waiting period","null","null","","","catch","l","sh","sw","178","299","160","162","145","203","spektor","null","null","null","null","null","null","null","null","null","null","null","","180","200","260","200","36000","52000","[1,3]","432.1596678522065","145.23213092578757","477.17530270859413"
"","canvas-keyboard-response","56","94209","0.0-6.0-1.7","577","","","","","clear_screen","null","null","","","catch","l","sh","sw","178","299","160","162","145","203","spektor","null","null","null","null","null","null","null","null","null","null","null","","180","200","260","200","36000","52000","[1,3]","432.1596678522065","145.23213092578757","477.17530270859413"
"","canvas-keyboard-response","57","94718","0.0-6.0-2.7","577","","","","","rectangles no change","null","null","","","catch","l","sh","sw","178","299","160","162","145","203","spektor","null","null","null","null","null","null","null","null","null","null","null","","180","200","260","200","36000","52000","[1,3]","432.1596678522065","145.23213092578757","477.17530270859413"
"","canvas-keyboard-response","58","96053","0.0-6.0-3.7","577","","","","","rectangles with change","null","null","","","catch","l","sh","sw","178","299","160","162","145","203","spektor","null","null","null","null","null","null","null","null","null","null","null","","180","200","260","200","36000","52000","[1,3]","432.1596678522065","145.23213092578757","477.17530270859413"
"","canvas-keyboard-response","59","96072","0.0-6.0-4.7","577","","","","","clear_screen","null","null","","","catch","l","sh","sw","178","299","160","162","145","203","spektor","null","null","null","null","null","null","null","null","null","null","null","","180","200","260","200","36000","52000","[1,3]","432.1596678522065","145.23213092578757","477.17530270859413"
"","canvas-keyboard-response","60","96431","0.0-6.0-5.7","577","","","","","make choice","351","1","","","catch","l","sh","sw","178","299","160","162","145","203","spektor","null","null","null","null","null","null","null","null","null","null","null","","180","200","260","200","36000","52000","[1,3]","","",""
"","canvas-keyboard-response","61","96448","0.0-6.0-6.7","577","","","","","clear_screen","null","null","","","catch","l","sh","sw","178","299","160","162","145","203","spektor","null","null","null","null","null","null","null","null","null","null","null","","180","200","260","200","36000","52000","[1,3]","","",""
"","canvas-keyboard-response","62","96649","0.0-6.0-0.8","577","","","","","pre trial waiting period","null","null","","","critical","c","t","d","240","164","164","240","154.6796","220.0396","trueblood","0.14","h","164","240","240","164","154.6796","220.0396","39360","39360","34035.6388","tc","null","null","null","null","null","null","[2,1]","508.5749053791804","433.727442510291","449.3086842424254"
"","canvas-keyboard-response","63","96672","0.0-6.0-1.8","577","","","","","clear_screen","null","null","","","critical","c","t","d","240","164","164","240","154.6796","220.0396","trueblood","0.14","h","164","240","240","164","154.6796","220.0396","39360","39360","34035.6388","tc","null","null","null","null","null","null","[2,1]","508.5749053791804","433.727442510291","449.3086842424254"
"","canvas-keyboard-response","64","97178","0.0-6.0-2.8","577","","","","","rectangles no change","null","null","","","critical","c","t","d","240","164","164","240","154.6796","220.0396","trueblood","0.14","h","164","240","240","164","154.6796","220.0396","39360","39360","34035.6388","tc","null","null","null","null","null","null","[2,1]","508.5749053791804","433.727442510291","449.3086842424254"
"","canvas-keyboard-response","65","98513","0.0-6.0-3.8","577","","","","","rectangles with change","null","null","","","critical","c","t","d","240","164","164","240","154.6796","220.0396","trueblood","0.14","h","164","240","240","164","154.6796","220.0396","39360","39360","34035.6388","tc","null","null","null","null","null","null","[2,1]","508.5749053791804","433.727442510291","449.3086842424254"
"","canvas-keyboard-response","66","98535","0.0-6.0-4.8","577","","","","","clear_screen","null","null","","","critical","c","t","d","240","164","164","240","154.6796","220.0396","trueblood","0.14","h","164","240","240","164","154.6796","220.0396","39360","39360","34035.6388","tc","null","null","null","null","null","null","[2,1]","508.5749053791804","433.727442510291","449.3086842424254"
"","canvas-keyboard-response","67","98942","0.0-6.0-5.8","577","","","","","make choice","398","1","","","critical","c","t","d","240","164","164","240","154.6796","220.0396","trueblood","0.14","h","164","240","240","164","154.6796","220.0396","39360","39360","34035.6388","tc","null","null","null","null","null","null","[2,1]","","",""
"","canvas-keyboard-response","68","98961","0.0-6.0-6.8","577","","","","","clear_screen","null","null","","","critical","c","t","d","240","164","164","240","154.6796","220.0396","trueblood","0.14","h","164","240","240","164","154.6796","220.0396","39360","39360","34035.6388","tc","null","null","null","null","null","null","[2,1]","","",""
"","canvas-keyboard-response","69","99163","0.0-6.0-0.9","577","","","","","pre trial waiting period","null","null","","","critical","d","c","t","220.0396","154.6796","164","240","240","164","spektor","0.14","w","240","164","164","240","220.0396","154.6796","39360","39360","34035.6388","dc","null","null","null","null","null","null","[1,2]","503.58535469739957","122.39681067746099","503.6428420633811"
"","canvas-keyboard-response","70","99184","0.0-6.0-1.9","577","","","","","clear_screen","null","null","","","critical","d","c","t","220.0396","154.6796","164","240","240","164","spektor","0.14","w","240","164","164","240","220.0396","154.6796","39360","39360","34035.6388","dc","null","null","null","null","null","null","[1,2]","503.58535469739957","122.39681067746099","503.6428420633811"
"","canvas-keyboard-response","71","99689","0.0-6.0-2.9","577","","","","","rectangles no change","null","null","","","critical","d","c","t","220.0396","154.6796","164","240","240","164","spektor","0.14","w","240","164","164","240","220.0396","154.6796","39360","39360","34035.6388","dc","null","null","null","null","null","null","[1,2]","503.58535469739957","122.39681067746099","503.6428420633811"
"","canvas-keyboard-response","72","101028","0.0-6.0-3.9","577","","","","","rectangles with change","null","null","","","critical","d","c","t","220.0396","154.6796","164","240","240","164","spektor","0.14","w","240","164","164","240","220.0396","154.6796","39360","39360","34035.6388","dc","null","null","null","null","null","null","[1,2]","503.58535469739957","122.39681067746099","503.6428420633811"
"","canvas-keyboard-response","73","101051","0.0-6.0-4.9","577","","","","","clear_screen","null","null","","","critical","d","c","t","220.0396","154.6796","164","240","240","164","spektor","0.14","w","240","164","164","240","220.0396","154.6796","39360","39360","34035.6388","dc","null","null","null","null","null","null","[1,2]","503.58535469739957","122.39681067746099","503.6428420633811"
"","canvas-keyboard-response","74","101374","0.0-6.0-5.9","577","","","","","make choice","321","2","","","critical","d","c","t","220.0396","154.6796","164","240","240","164","spektor","0.14","w","240","164","164","240","220.0396","154.6796","39360","39360","34035.6388","dc","null","null","null","null","null","null","[1,2]","","",""
"","canvas-keyboard-response","75","101394","0.0-6.0-6.9","577","","","","","clear_screen","null","null","","","critical","d","c","t","220.0396","154.6796","164","240","240","164","spektor","0.14","w","240","164","164","240","220.0396","154.6796","39360","39360","34035.6388","dc","null","null","null","null","null","null","[1,2]","","",""
"","canvas-keyboard-response","76","101596","0.0-6.0-0.10","577","","","","","pre trial waiting period","null","null","","","critical","c","t","d","240","164","164","240","162.6685","237.1485","spektor","0.02","h","164","240","240","164","162.6685","237.1485","39360","39360","38576.5967","dc","null","null","null","null","null","null","[3,1]","509.05829529816674","94.73527979590176","502.1639113271428"
"","canvas-keyboard-response","77","101615","0.0-6.0-1.10","577","","","","","clear_screen","null","null","","","critical","c","t","d","240","164","164","240","162.6685","237.1485","spektor","0.02","h","164","240","240","164","162.6685","237.1485","39360","39360","38576.5967","dc","null","null","null","null","null","null","[3,1]","509.05829529816674","94.73527979590176","502.1639113271428"
"","canvas-keyboard-response","78","102123","0.0-6.0-2.10","577","","","","","rectangles no change","null","null","","","critical","c","t","d","240","164","164","240","162.6685","237.1485","spektor","0.02","h","164","240","240","164","162.6685","237.1485","39360","39360","38576.5967","dc","null","null","null","null","null","null","[3,1]","509.05829529816674","94.73527979590176","502.1639113271428"
"","canvas-keyboard-response","79","103461","0.0-6.0-3.10","577","","","","","rectangles with change","null","null","","","critical","c","t","d","240","164","164","240","162.6685","237.1485","spektor","0.02","h","164","240","240","164","162.6685","237.1485","39360","39360","38576.5967","dc","null","null","null","null","null","null","[3,1]","509.05829529816674","94.73527979590176","502.1639113271428"
"","canvas-keyboard-response","80","103481","0.0-6.0-4.10","577","","","","","clear_screen","null","null","","","critical","c","t","d","240","164","164","240","162.6685","237.1485","spektor","0.02","h","164","240","240","164","162.6685","237.1485","39360","39360","38576.5967","dc","null","null","null","null","null","null","[3,1]","509.05829529816674","94.73527979590176","502.1639113271428"
"","canvas-keyboard-response","81","103886","0.0-6.0-5.10","577","","","","","make choice","401","1","","","critical","c","t","d","240","164","164","240","162.6685","237.1485","spektor","0.02","h","164","240","240","164","162.6685","237.1485","39360","39360","38576.5967","dc","null","null","null","null","null","null","[3,1]","","",""
"","canvas-keyboard-response","82","103905","0.0-6.0-6.10","577","","","","","clear_screen","null","null","","","critical","c","t","d","240","164","164","240","162.6685","237.1485","spektor","0.02","h","164","240","240","164","162.6685","237.1485","39360","39360","38576.5967","dc","null","null","null","null","null","null","[3,1]","","",""
"","canvas-keyboard-response","83","104107","0.0-6.0-0.11","577","","","","","pre trial waiting period","null","null","","","catch","sw","sh","l","180","200","167","186","231","174","trueblood","null","null","null","null","null","null","null","null","null","null","null","","180","200","260","200","36000","52000","[1,3]","457.754436291582","483.2972878654773","470.1664017099416"
"","canvas-keyboard-response","84","104128","0.0-6.0-1.11","577","","","","","clear_screen","null","null","","","catch","sw","sh","l","180","200","167","186","231","174","trueblood","null","null","null","null","null","null","null","null","null","null","null","","180","200","260","200","36000","52000","[1,3]","457.754436291582","483.2972878654773","470.1664017099416"
"","canvas-keyboard-response","85","104635","0.0-6.0-2.11","577","","","","","rectangles no change","null","null","","","catch","sw","sh","l","180","200","167","186","231","174","trueblood","null","null","null","null","null","null","null","null","null","null","null","","180","200","260","200","36000","52000","[1,3]","457.754436291582","483.2972878654773","470.1664017099416"
"","canvas-keyboard-response","86","105971","0.0-6.0-3.11","577","","","","","rectangles with change","null","null","","","catch","sw","sh","l","180","200","167","186","231","174","trueblood","null","null","null","null","null","null","null","null","null","null","null","","180","200","260","200","36000","52000","[1,3]","457.754436291582","483.2972878654773","470.1664017099416"
"","canvas-keyboard-response","87","105989","0.0-6.0-4.11","577","","","","","clear_screen","null","null","","","catch","sw","sh","l","180","200","167","186","231","174","trueblood","null","null","null","null","null","null","null","null","null","null","null","","180","200","260","200","36000","52000","[1,3]","457.754436291582","483.2972878654773","470.1664017099416"
"","canvas-keyboard-response","88","106277","0.0-6.0-5.11","577","","","","","make choice","285","3","","","catch","sw","sh","l","180","200","167","186","231","174","trueblood","null","null","null","null","null","null","null","null","null","null","null","","180","200","260","200","36000","52000","[1,3]","","",""
"","canvas-keyboard-response","89","106298","0.0-6.0-6.11","577","","","","","clear_screen","null","null","","","catch","sw","sh","l","180","200","167","186","231","174","trueblood","null","null","null","null","null","null","null","null","null","null","null","","180","200","260","200","36000","52000","[1,3]","","",""
"","canvas-keyboard-response","90","106499","0.0-6.0-0.12","577","","","","","pre trial waiting period","null","null","","","catch","sh","l","sw","208","163","167","233","176","172","trueblood","null","null","null","null","null","null","null","null","null","null","null","","180","200","260","200","36000","52000","[1,2]","495.90026762349964","461.96688871071325","474.9965617245073"
"","canvas-keyboard-response","91","106521","0.0-6.0-1.12","577","","","","","clear_screen","null","null","","","catch","sh","l","sw","208","163","167","233","176","172","trueblood","null","null","null","null","null","null","null","null","null","null","null","","180","200","260","200","36000","52000","[1,2]","495.90026762349964","461.96688871071325","474.9965617245073"
"","canvas-keyboard-response","92","107031","0.0-6.0-2.12","577","","","","","rectangles no change","null","null","","","catch","sh","l","sw","208","163","167","233","176","172","trueblood","null","null","null","null","null","null","null","null","null","null","null","","180","200","260","200","36000","52000","[1,2]","495.90026762349964","461.96688871071325","474.9965617245073"
"","canvas-keyboard-response","93","108365","0.0-6.0-3.12","577","","","","","rectangles with change","null","null","","","catch","sh","l","sw","208","163","167","233","176","172","trueblood","null","null","null","null","null","null","null","null","null","null","null","","180","200","260","200","36000","52000","[1,2]","495.90026762349964","461.96688871071325","474.9965617245073"
"","canvas-keyboard-response","94","108385","0.0-6.0-4.12","577","","","","","clear_screen","null","null","","","catch","sh","l","sw","208","163","167","233","176","172","trueblood","null","null","null","null","null","null","null","null","null","null","null","","180","200","260","200","36000","52000","[1,2]","495.90026762349964","461.96688871071325","474.9965617245073"
"","canvas-keyboard-response","95","108670","0.0-6.0-5.12","577","","","","","make choice","279","2","","","catch","sh","l","sw","208","163","167","233","176","172","trueblood","null","null","null","null","null","null","null","null","null","null","null","","180","200","260","200","36000","52000","[1,2]","","",""
"","canvas-keyboard-response","96","108689","0.0-6.0-6.12","577","","","","","clear_screen","null","null","","","catch","sh","l","sw","208","163","167","233","176","172","trueblood","null","null","null","null","null","null","null","null","null","null","null","","180","200","260","200","36000","52000","[1,2]","","",""
"","canvas-keyboard-response","97","108890","0.0-6.0-0.13","577","","","","","pre trial waiting period","null","null","","","critical","d","t","c","162.6685","237.1485","164","240","240","164","spektor","0.02","h","164","240","240","164","162.6685","237.1485","39360","39360","38576.5967","tc","null","null","null","null","null","null","[2,3]","464.4324475641905","97.2025735246042","541.629322740702"
"","canvas-keyboard-response","98","108913","0.0-6.0-1.13","577","","","","","clear_screen","null","null","","","critical","d","t","c","162.6685","237.1485","164","240","240","164","spektor","0.02","h","164","240","240","164","162.6685","237.1485","39360","39360","38576.5967","tc","null","null","null","null","null","null","[2,3]","464.4324475641905","97.2025735246042","541.629322740702"
"","canvas-keyboard-response","99","109422","0.0-6.0-2.13","577","","","","","rectangles no change","null","null","","","critical","d","t","c","162.6685","237.1485","164","240","240","164","spektor","0.02","h","164","240","240","164","162.6685","237.1485","39360","39360","38576.5967","tc","null","null","null","null","null","null","[2,3]","464.4324475641905","97.2025735246042","541.629322740702"
"","canvas-keyboard-response","100","110758","0.0-6.0-3.13","577","","","","","rectangles with change","null","null","","","critical","d","t","c","162.6685","237.1485","164","240","240","164","spektor","0.02","h","164","240","240","164","162.6685","237.1485","39360","39360","38576.5967","tc","null","null","null","null","null","null","[2,3]","464.4324475641905","97.2025735246042","541.629322740702"
"","canvas-keyboard-response","101","110779","0.0-6.0-4.13","577","","","","","clear_screen","null","null","","","critical","d","t","c","162.6685","237.1485","164","240","240","164","spektor","0.02","h","164","240","240","164","162.6685","237.1485","39360","39360","38576.5967","tc","null","null","null","null","null","null","[2,3]","464.4324475641905","97.2025735246042","541.629322740702"
"","canvas-keyboard-response","102","111102","0.0-6.0-5.13","577","","","","","make choice","316","3","","","critical","d","t","c","162.6685","237.1485","164","240","240","164","spektor","0.02","h","164","240","240","164","162.6685","237.1485","39360","39360","38576.5967","tc","null","null","null","null","null","null","[2,3]","","",""
"","canvas-keyboard-response","103","111123","0.0-6.0-6.13","577","","","","","clear_screen","null","null","","","critical","d","t","c","162.6685","237.1485","164","240","240","164","spektor","0.02","h","164","240","240","164","162.6685","237.1485","39360","39360","38576.5967","tc","null","null","null","null","null","null","[2,3]","","",""
"","canvas-keyboard-response","104","111324","0.0-6.0-0.14","577","","","","","pre trial waiting period","null","null","","","catch","sh","sw","l","182","143","160","216","239","247","trueblood","null","null","null","null","null","null","null","null","null","null","null","","180","200","260","200","36000","52000","[1,3]","490.6543176007084","465.8711249142942","415.3917789390068"
"","canvas-keyboard-response","105","111348","0.0-6.0-1.14","577","","","","","clear_screen","null","null","","","catch","sh","sw","l","182","143","160","216","239","247","trueblood","null","null","null","null","null","null","null","null","null","null","null","","180","200","260","200","36000","52000","[1,3]","490.6543176007084","465.8711249142942","415.3917789390068"
"","canvas-keyboard-response","106","111856","0.0-6.0-2.14","577","","","","","rectangles no change","null","null","","","catch","sh","sw","l","182","143","160","216","239","247","trueblood","null","null","null","null","null","null","null","null","null","null","null","","180","200","260","200","36000","52000","[1,3]","490.6543176007084","465.8711249142942","415.3917789390068"
"","canvas-keyboard-response","107","113190","0.0-6.0-3.14","577","","","","","rectangles with change","null","null","","","catch","sh","sw","l","182","143","160","216","239","247","trueblood","null","null","null","null","null","null","null","null","null","null","null","","180","200","260","200","36000","52000","[1,3]","490.6543176007084","465.8711249142942","415.3917789390068"
"","canvas-keyboard-response","108","113208","0.0-6.0-4.14","577","","","","","clear_screen","null","null","","","catch","sh","sw","l","182","143","160","216","239","247","trueblood","null","null","null","null","null","null","null","null","null","null","null","","180","200","260","200","36000","52000","[1,3]","490.6543176007084","465.8711249142942","415.3917789390068"
"","canvas-keyboard-response","109","113485","0.0-6.0-5.14","577","","","","","make choice","270","3","","","catch","sh","sw","l","182","143","160","216","239","247","trueblood","null","null","null","null","null","null","null","null","null","null","null","","180","200","260","200","36000","52000","[1,3]","","",""
"","canvas-keyboard-response","110","113507","0.0-6.0-6.14","577","","","","","clear_screen","null","null","","","catch","sh","sw","l","182","143","160","216","239","247","trueblood","null","null","null","null","null","null","null","null","null","null","null","","180","200","260","200","36000","52000","[1,3]","","",""
"","canvas-keyboard-response","111","113709","0.0-6.0-0.15","577","","","","","pre trial waiting period","null","null","","","critical","d","c","t","164","240","240","164","164","240","spektor","0","h","164","240","240","164","164","240","39360","39360","39360","dc","null","null","null","null","null","null","[1,2]","468.08551011431103","187.48945799679842","469.44481428653677"
"","canvas-keyboard-response","112","113728","0.0-6.0-1.15","577","","","","","clear_screen","null","null","","","critical","d","c","t","164","240","240","164","164","240","spektor","0","h","164","240","240","164","164","240","39360","39360","39360","dc","null","null","null","null","null","null","[1,2]","468.08551011431103","187.48945799679842","469.44481428653677"
"","canvas-keyboard-response","113","114236","0.0-6.0-2.15","577","","","","","rectangles no change","null","null","","","critical","d","c","t","164","240","240","164","164","240","spektor","0","h","164","240","240","164","164","240","39360","39360","39360","dc","null","null","null","null","null","null","[1,2]","468.08551011431103","187.48945799679842","469.44481428653677"
"","canvas-keyboard-response","114","115576","0.0-6.0-3.15","577","","","","","rectangles with change","null","null","","","critical","d","c","t","164","240","240","164","164","240","spektor","0","h","164","240","240","164","164","240","39360","39360","39360","dc","null","null","null","null","null","null","[1,2]","468.08551011431103","187.48945799679842","469.44481428653677"
"","canvas-keyboard-response","115","115599","0.0-6.0-4.15","577","","","","","clear_screen","null","null","","","critical","d","c","t","164","240","240","164","164","240","spektor","0","h","164","240","240","164","164","240","39360","39360","39360","dc","null","null","null","null","null","null","[1,2]","468.08551011431103","187.48945799679842","469.44481428653677"
"","canvas-keyboard-response","116","116542","0.0-6.0-5.15","577","","","","","make choice","934","2","","","critical","d","c","t","164","240","240","164","164","240","spektor","0","h","164","240","240","164","164","240","39360","39360","39360","dc","null","null","null","null","null","null","[1,2]","","",""
"","canvas-keyboard-response","117","116561","0.0-6.0-6.15","577","","","","","clear_screen","null","null","","","critical","d","c","t","164","240","240","164","164","240","spektor","0","h","164","240","240","164","164","240","39360","39360","39360","dc","null","null","null","null","null","null","[1,2]","","",""
"","canvas-keyboard-response","118","116762","0.0-6.0-0.16","577","","","","","pre trial waiting period","null","null","","","critical","t","d","c","240","164","220.0396","154.6796","164","240","trueblood","0.14","w","240","164","164","240","220.0396","154.6796","39360","39360","34035.6388","dc","null","null","null","null","null","null","[2,3]","474.2688236355488","478.042668209591","423.38776191013926"
"","canvas-keyboard-response","119","116786","0.0-6.0-1.16","577","","","","","clear_screen","null","null","","","critical","t","d","c","240","164","220.0396","154.6796","164","240","trueblood","0.14","w","240","164","164","240","220.0396","154.6796","39360","39360","34035.6388","dc","null","null","null","null","null","null","[2,3]","474.2688236355488","478.042668209591","423.38776191013926"
"","canvas-keyboard-response","120","117292","0.0-6.0-2.16","577","","","","","rectangles no change","null","null","","","critical","t","d","c","240","164","220.0396","154.6796","164","240","trueblood","0.14","w","240","164","164","240","220.0396","154.6796","39360","39360","34035.6388","dc","null","null","null","null","null","null","[2,3]","474.2688236355488","478.042668209591","423.38776191013926"
"","canvas-keyboard-response","121","118632","0.0-6.0-3.16","577","","","","","rectangles with change","null","null","","","critical","t","d","c","240","164","220.0396","154.6796","164","240","trueblood","0.14","w","240","164","164","240","220.0396","154.6796","39360","39360","34035.6388","dc","null","null","null","null","null","null","[2,3]","474.2688236355488","478.042668209591","423.38776191013926"
"","canvas-keyboard-response","122","118653","0.0-6.0-4.16","577","","","","","clear_screen","null","null","","","critical","t","d","c","240","164","220.0396","154.6796","164","240","trueblood","0.14","w","240","164","164","240","220.0396","154.6796","39360","39360","34035.6388","dc","null","null","null","null","null","null","[2,3]","474.2688236355488","478.042668209591","423.38776191013926"
"","canvas-keyboard-response","123","119645","0.0-6.0-5.16","577","","","","","make choice","987","2","","","critical","t","d","c","240","164","220.0396","154.6796","164","240","trueblood","0.14","w","240","164","164","240","220.0396","154.6796","39360","39360","34035.6388","dc","null","null","null","null","null","null","[2,3]","","",""
"","canvas-keyboard-response","124","119666","0.0-6.0-6.16","577","","","","","clear_screen","null","null","","","critical","t","d","c","240","164","220.0396","154.6796","164","240","trueblood","0.14","w","240","164","164","240","220.0396","154.6796","39360","39360","34035.6388","dc","null","null","null","null","null","null","[2,3]","","",""
"","canvas-keyboard-response","125","119867","0.0-6.0-0.17","577","","","","","pre trial waiting period","null","null","","","critical","c","d","t","164","240","232.8713","160.6713","240","164","trueblood","0.05","w","240","164","164","240","232.8713","160.6713","39360","39360","37415.7294","tc","null","null","null","null","null","null","[3,1]","465.514115247814","492.9368338943019","514.1567177131764"
"","canvas-keyboard-response","126","119887","0.0-6.0-1.17","577","","","","","clear_screen","null","null","","","critical","c","d","t","164","240","232.8713","160.6713","240","164","trueblood","0.05","w","240","164","164","240","232.8713","160.6713","39360","39360","37415.7294","tc","null","null","null","null","null","null","[3,1]","465.514115247814","492.9368338943019","514.1567177131764"
"","canvas-keyboard-response","127","120393","0.0-6.0-2.17","577","","","","","rectangles no change","null","null","","","critical","c","d","t","164","240","232.8713","160.6713","240","164","trueblood","0.05","w","240","164","164","240","232.8713","160.6713","39360","39360","37415.7294","tc","null","null","null","null","null","null","[3,1]","465.514115247814","492.9368338943019","514.1567177131764"
"","canvas-keyboard-response","128","121732","0.0-6.0-3.17","577","","","","","rectangles with change","null","null","","","critical","c","d","t","164","240","232.8713","160.6713","240","164","trueblood","0.05","w","240","164","164","240","232.8713","160.6713","39360","39360","37415.7294","tc","null","null","null","null","null","null","[3,1]","465.514115247814","492.9368338943019","514.1567177131764"
"","canvas-keyboard-response","129","121750","0.0-6.0-4.17","577","","","","","clear_screen","null","null","","","critical","c","d","t","164","240","232.8713","160.6713","240","164","trueblood","0.05","w","240","164","164","240","232.8713","160.6713","39360","39360","37415.7294","tc","null","null","null","null","null","null","[3,1]","465.514115247814","492.9368338943019","514.1567177131764"
"","canvas-keyboard-response","130","122407","0.0-6.0-5.17","577","","","","","make choice","648","3","","","critical","c","d","t","164","240","232.8713","160.6713","240","164","trueblood","0.05","w","240","164","164","240","232.8713","160.6713","39360","39360","37415.7294","tc","null","null","null","null","null","null","[3,1]","","",""
"","canvas-keyboard-response","131","122424","0.0-6.0-6.17","577","","","","","clear_screen","null","null","","","critical","c","d","t","164","240","232.8713","160.6713","240","164","trueblood","0.05","w","240","164","164","240","232.8713","160.6713","39360","39360","37415.7294","tc","null","null","null","null","null","null","[3,1]","","",""
"","canvas-keyboard-response","132","122625","0.0-6.0-0.18","577","","","","","pre trial waiting period","null","null","","","critical","t","d","c","164","240","160.6713","232.8713","240","164","spektor","0.05","h","164","240","240","164","160.6713","232.8713","39360","39360","37415.7294","td","null","null","null","null","null","null","[1,2]","471.2099823197294","126.21888758537","502.2057615688366"
"","canvas-keyboard-response","133","122645","0.0-6.0-1.18","577","","","","","clear_screen","null","null","","","critical","t","d","c","164","240","160.6713","232.8713","240","164","spektor","0.05","h","164","240","240","164","160.6713","232.8713","39360","39360","37415.7294","td","null","null","null","null","null","null","[1,2]","471.2099823197294","126.21888758537","502.2057615688366"
"","canvas-keyboard-response","134","123153","0.0-6.0-2.18","577","","","","","rectangles no change","null","null","","","critical","t","d","c","164","240","160.6713","232.8713","240","164","spektor","0.05","h","164","240","240","164","160.6713","232.8713","39360","39360","37415.7294","td","null","null","null","null","null","null","[1,2]","471.2099823197294","126.21888758537","502.2057615688366"
"","canvas-keyboard-response","135","124492","0.0-6.0-3.18","577","","","","","rectangles with change","null","null","","","critical","t","d","c","164","240","160.6713","232.8713","240","164","spektor","0.05","h","164","240","240","164","160.6713","232.8713","39360","39360","37415.7294","td","null","null","null","null","null","null","[1,2]","471.2099823197294","126.21888758537","502.2057615688366"
"","canvas-keyboard-response","136","124515","0.0-6.0-4.18","577","","","","","clear_screen","null","null","","","critical","t","d","c","164","240","160.6713","232.8713","240","164","spektor","0.05","h","164","240","240","164","160.6713","232.8713","39360","39360","37415.7294","td","null","null","null","null","null","null","[1,2]","471.2099823197294","126.21888758537","502.2057615688366"
"","canvas-keyboard-response","137","124911","0.0-6.0-5.18","577","","","","","make choice","391","2","","","critical","t","d","c","164","240","160.6713","232.8713","240","164","spektor","0.05","h","164","240","240","164","160.6713","232.8713","39360","39360","37415.7294","td","null","null","null","null","null","null","[1,2]","","",""
"","canvas-keyboard-response","138","124927","0.0-6.0-6.18","577","","","","","clear_screen","null","null","","","critical","t","d","c","164","240","160.6713","232.8713","240","164","spektor","0.05","h","164","240","240","164","160.6713","232.8713","39360","39360","37415.7294","td","null","null","null","null","null","null","[1,2]","","",""
"","canvas-keyboard-response","139","125128","0.0-6.0-0.19","577","","","","","pre trial waiting period","null","null","","","critical","c","d","t","240","164","154.6796","220.0396","164","240","spektor","0.14","h","164","240","240","164","154.6796","220.0396","39360","39360","34035.6388","tc","null","null","null","null","null","null","[3,1]","542.4229171626812","131.90862053264857","460.2316144746576"
"","canvas-keyboard-response","140","125152","0.0-6.0-1.19","577","","","","","clear_screen","null","null","","","critical","c","d","t","240","164","154.6796","220.0396","164","240","spektor","0.14","h","164","240","240","164","154.6796","220.0396","39360","39360","34035.6388","tc","null","null","null","null","null","null","[3,1]","542.4229171626812","131.90862053264857","460.2316144746576"
"","canvas-keyboard-response","141","125662","0.0-6.0-2.19","577","","","","","rectangles no change","null","null","","","critical","c","d","t","240","164","154.6796","220.0396","164","240","spektor","0.14","h","164","240","240","164","154.6796","220.0396","39360","39360","34035.6388","tc","null","null","null","null","null","null","[3,1]","542.4229171626812","131.90862053264857","460.2316144746576"
"","canvas-keyboard-response","142","126998","0.0-6.0-3.19","577","","","","","rectangles with change","null","null","","","critical","c","d","t","240","164","154.6796","220.0396","164","240","spektor","0.14","h","164","240","240","164","154.6796","220.0396","39360","39360","34035.6388","tc","null","null","null","null","null","null","[3,1]","542.4229171626812","131.90862053264857","460.2316144746576"
"","canvas-keyboard-response","143","127016","0.0-6.0-4.19","577","","","","","clear_screen","null","null","","","critical","c","d","t","240","164","154.6796","220.0396","164","240","spektor","0.14","h","164","240","240","164","154.6796","220.0396","39360","39360","34035.6388","tc","null","null","null","null","null","null","[3,1]","542.4229171626812","131.90862053264857","460.2316144746576"
"","canvas-keyboard-response","144","127477","0.0-6.0-5.19","577","","","","","make choice","454","1","","","critical","c","d","t","240","164","154.6796","220.0396","164","240","spektor","0.14","h","164","240","240","164","154.6796","220.0396","39360","39360","34035.6388","tc","null","null","null","null","null","null","[3,1]","","",""
"","canvas-keyboard-response","145","127497","0.0-6.0-6.19","577","","","","","clear_screen","null","null","","","critical","c","d","t","240","164","154.6796","220.0396","164","240","spektor","0.14","h","164","240","240","164","154.6796","220.0396","39360","39360","34035.6388","tc","null","null","null","null","null","null","[3,1]","","",""
"","canvas-keyboard-response","146","127698","0.0-6.0-0.20","577","","","","","pre trial waiting period","null","null","","","catch","sw","l","sh","180","200","272","219","186","190","spektor","null","null","null","null","null","null","null","null","null","null","null","","180","200","260","200","36000","52000","[1,2]","519.5046469408373","131.0220628969931","518.1451564714489"
"","canvas-keyboard-response","147","127718","0.0-6.0-1.20","577","","","","","clear_screen","null","null","","","catch","sw","l","sh","180","200","272","219","186","190","spektor","null","null","null","null","null","null","null","null","null","null","null","","180","200","260","200","36000","52000","[1,2]","519.5046469408373","131.0220628969931","518.1451564714489"
"","canvas-keyboard-response","148","128227","0.0-6.0-2.20","577","","","","","rectangles no change","null","null","","","catch","sw","l","sh","180","200","272","219","186","190","spektor","null","null","null","null","null","null","null","null","null","null","null","","180","200","260","200","36000","52000","[1,2]","519.5046469408373","131.0220628969931","518.1451564714489"
"","canvas-keyboard-response","149","129562","0.0-6.0-3.20","577","","","","","rectangles with change","null","null","","","catch","sw","l","sh","180","200","272","219","186","190","spektor","null","null","null","null","null","null","null","null","null","null","null","","180","200","260","200","36000","52000","[1,2]","519.5046469408373","131.0220628969931","518.1451564714489"
"","canvas-keyboard-response","150","129581","0.0-6.0-4.20","577","","","","","clear_screen","null","null","","","catch","sw","l","sh","180","200","272","219","186","190","spektor","null","null","null","null","null","null","null","null","null","null","null","","180","200","260","200","36000","52000","[1,2]","519.5046469408373","131.0220628969931","518.1451564714489"
"","canvas-keyboard-response","151","129854","0.0-6.0-5.20","577","","","","","make choice","267","2","","","catch","sw","l","sh","180","200","272","219","186","190","spektor","null","null","null","null","null","null","null","null","null","null","null","","180","200","260","200","36000","52000","[1,2]","","",""
"","canvas-keyboard-response","152","129874","0.0-6.0-6.20","577","","","","","clear_screen","null","null","","","catch","sw","l","sh","180","200","272","219","186","190","spektor","null","null","null","null","null","null","null","null","null","null","null","","180","200","260","200","36000","52000","[1,2]","","",""
"","canvas-keyboard-response","153","130075","0.0-6.0-0.21","577","","","","","pre trial waiting period","null","null","","","critical","d","c","t","240","164","164","240","240","164","trueblood","0","w","240","164","164","240","240","164","39360","39360","39360","tc","null","null","null","null","null","null","[3,2]","493.20283557255254","432.6661156219537","487.41684855935137"
"","canvas-keyboard-response","154","130093","0.0-6.0-1.21","577","","","","","clear_screen","null","null","","","critical","d","c","t","240","164","164","240","240","164","trueblood","0","w","240","164","164","240","240","164","39360","39360","39360","tc","null","null","null","null","null","null","[3,2]","493.20283557255254","432.6661156219537","487.41684855935137"
"","canvas-keyboard-response","155","130601","0.0-6.0-2.21","577","","","","","rectangles no change","null","null","","","critical","d","c","t","240","164","164","240","240","164","trueblood","0","w","240","164","164","240","240","164","39360","39360","39360","tc","null","null","null","null","null","null","[3,2]","493.20283557255254","432.6661156219537","487.41684855935137"
"","canvas-keyboard-response","156","131935","0.0-6.0-3.21","577","","","","","rectangles with change","null","null","","","critical","d","c","t","240","164","164","240","240","164","trueblood","0","w","240","164","164","240","240","164","39360","39360","39360","tc","null","null","null","null","null","null","[3,2]","493.20283557255254","432.6661156219537","487.41684855935137"
"","canvas-keyboard-response","157","131955","0.0-6.0-4.21","577","","","","","clear_screen","null","null","","","critical","d","c","t","240","164","164","240","240","164","trueblood","0","w","240","164","164","240","240","164","39360","39360","39360","tc","null","null","null","null","null","null","[3,2]","493.20283557255254","432.6661156219537","487.41684855935137"
"","canvas-keyboard-response","158","132190","0.0-6.0-5.21","577","","","","","make choice","230","3","","","critical","d","c","t","240","164","164","240","240","164","trueblood","0","w","240","164","164","240","240","164","39360","39360","39360","tc","null","null","null","null","null","null","[3,2]","","",""
"","canvas-keyboard-response","159","132209","0.0-6.0-6.21","577","","","","","clear_screen","null","null","","","critical","d","c","t","240","164","164","240","240","164","trueblood","0","w","240","164","164","240","240","164","39360","39360","39360","tc","null","null","null","null","null","null","[3,2]","","",""
"","canvas-keyboard-response","160","132411","0.0-6.0-0.22","577","","","","","pre trial waiting period","null","null","","","catch","sh","sw","l","232","189","194","198","239","258","spektor","null","null","null","null","null","null","null","null","null","null","null","","180","200","260","200","36000","52000","[1,3]","510.1585580319691","150.62392395843162","491.486720057597"
"","canvas-keyboard-response","161","132432","0.0-6.0-1.22","577","","","","","clear_screen","null","null","","","catch","sh","sw","l","232","189","194","198","239","258","spektor","null","null","null","null","null","null","null","null","null","null","null","","180","200","260","200","36000","52000","[1,3]","510.1585580319691","150.62392395843162","491.486720057597"
"","canvas-keyboard-response","162","132938","0.0-6.0-2.22","577","","","","","rectangles no change","null","null","","","catch","sh","sw","l","232","189","194","198","239","258","spektor","null","null","null","null","null","null","null","null","null","null","null","","180","200","260","200","36000","52000","[1,3]","510.1585580319691","150.62392395843162","491.486720057597"
"","canvas-keyboard-response","163","134273","0.0-6.0-3.22","577","","","","","rectangles with change","null","null","","","catch","sh","sw","l","232","189","194","198","239","258","spektor","null","null","null","null","null","null","null","null","null","null","null","","180","200","260","200","36000","52000","[1,3]","510.1585580319691","150.62392395843162","491.486720057597"
"","canvas-keyboard-response","164","134291","0.0-6.0-4.22","577","","","","","clear_screen","null","null","","","catch","sh","sw","l","232","189","194","198","239","258","spektor","null","null","null","null","null","null","null","null","null","null","null","","180","200","260","200","36000","52000","[1,3]","510.1585580319691","150.62392395843162","491.486720057597"
"","canvas-keyboard-response","165","134542","0.0-6.0-5.22","577","","","","","make choice","240","3","","","catch","sh","sw","l","232","189","194","198","239","258","spektor","null","null","null","null","null","null","null","null","null","null","null","","180","200","260","200","36000","52000","[1,3]","","",""
"","canvas-keyboard-response","166","134562","0.0-6.0-6.22","577","","","","","clear_screen","null","null","","","catch","sh","sw","l","232","189","194","198","239","258","spektor","null","null","null","null","null","null","null","null","null","null","null","","180","200","260","200","36000","52000","[1,3]","","",""
"","canvas-keyboard-response","167","134763","0.0-6.0-0.23","577","","","","","pre trial waiting period","null","null","","","critical","d","c","t","237.1485","162.6685","164","240","240","164","trueblood","0.02","w","240","164","164","240","237.1485","162.6685","39360","39360","38576.5967","td","null","null","null","null","null","null","[3,1]","490.14498447451126","440.56502505539055","474.2485612921084"
"","canvas-keyboard-response","168","134782","0.0-6.0-1.23","577","","","","","clear_screen","null","null","","","critical","d","c","t","237.1485","162.6685","164","240","240","164","trueblood","0.02","w","240","164","164","240","237.1485","162.6685","39360","39360","38576.5967","td","null","null","null","null","null","null","[3,1]","490.14498447451126","440.56502505539055","474.2485612921084"
"","canvas-keyboard-response","169","135291","0.0-6.0-2.23","577","","","","","rectangles no change","null","null","","","critical","d","c","t","237.1485","162.6685","164","240","240","164","trueblood","0.02","w","240","164","164","240","237.1485","162.6685","39360","39360","38576.5967","td","null","null","null","null","null","null","[3,1]","490.14498447451126","440.56502505539055","474.2485612921084"
"","canvas-keyboard-response","170","136628","0.0-6.0-3.23","577","","","","","rectangles with change","null","null","","","critical","d","c","t","237.1485","162.6685","164","240","240","164","trueblood","0.02","w","240","164","164","240","237.1485","162.6685","39360","39360","38576.5967","td","null","null","null","null","null","null","[3,1]","490.14498447451126","440.56502505539055","474.2485612921084"
"","canvas-keyboard-response","171","136651","0.0-6.0-4.23","577","","","","","clear_screen","null","null","","","critical","d","c","t","237.1485","162.6685","164","240","240","164","trueblood","0.02","w","240","164","164","240","237.1485","162.6685","39360","39360","38576.5967","td","null","null","null","null","null","null","[3,1]","490.14498447451126","440.56502505539055","474.2485612921084"
"","canvas-keyboard-response","172","136926","0.0-6.0-5.23","577","","","","","make choice","271","3","","","critical","d","c","t","237.1485","162.6685","164","240","240","164","trueblood","0.02","w","240","164","164","240","237.1485","162.6685","39360","39360","38576.5967","td","null","null","null","null","null","null","[3,1]","","",""
"","canvas-keyboard-response","173","136946","0.0-6.0-6.23","577","","","","","clear_screen","null","null","","","critical","d","c","t","237.1485","162.6685","164","240","240","164","trueblood","0.02","w","240","164","164","240","237.1485","162.6685","39360","39360","38576.5967","td","null","null","null","null","null","null","[3,1]","","",""
"","canvas-keyboard-response","174","137147","0.0-6.0-0.24","577","","","","","pre trial waiting period","null","null","","","catch","sw","l","sh","180","200","265","187","207","140","trueblood","null","null","null","null","null","null","null","null","null","null","null","","180","200","260","200","36000","52000","[2,3]","481.48494634945615","463.7622046853925","488.9652188399637"
"","canvas-keyboard-response","175","137169","0.0-6.0-1.24","577","","","","","clear_screen","null","null","","","catch","sw","l","sh","180","200","265","187","207","140","trueblood","null","null","null","null","null","null","null","null","null","null","null","","180","200","260","200","36000","52000","[2,3]","481.48494634945615","463.7622046853925","488.9652188399637"
"","canvas-keyboard-response","176","137674","0.0-6.0-2.24","577","","","","","rectangles no change","null","null","","","catch","sw","l","sh","180","200","265","187","207","140","trueblood","null","null","null","null","null","null","null","null","null","null","null","","180","200","260","200","36000","52000","[2,3]","481.48494634945615","463.7622046853925","488.9652188399637"
"","canvas-keyboard-response","177","139010","0.0-6.0-3.24","577","","","","","rectangles with change","null","null","","","catch","sw","l","sh","180","200","265","187","207","140","trueblood","null","null","null","null","null","null","null","null","null","null","null","","180","200","260","200","36000","52000","[2,3]","481.48494634945615","463.7622046853925","488.9652188399637"
"","canvas-keyboard-response","178","139032","0.0-6.0-4.24","577","","","","","clear_screen","null","null","","","catch","sw","l","sh","180","200","265","187","207","140","trueblood","null","null","null","null","null","null","null","null","null","null","null","","180","200","260","200","36000","52000","[2,3]","481.48494634945615","463.7622046853925","488.9652188399637"
"","canvas-keyboard-response","179","139261","0.0-6.0-5.24","577","","","","","make choice","225","2","","","catch","sw","l","sh","180","200","265","187","207","140","trueblood","null","null","null","null","null","null","null","null","null","null","null","","180","200","260","200","36000","52000","[2,3]","","",""
"","canvas-keyboard-response","180","139279","0.0-6.0-6.24","577","","","","","clear_screen","null","null","","","catch","sw","l","sh","180","200","265","187","207","140","trueblood","null","null","null","null","null","null","null","null","null","null","null","","180","200","260","200","36000","52000","[2,3]","","",""
"","canvas-keyboard-response","181","139480","0.0-6.0-0.25","577","","","","","pre trial waiting period","null","null","","","critical","c","t","d","164","240","240","164","237.1485","162.6685","trueblood","0.02","w","240","164","164","240","237.1485","162.6685","39360","39360","38576.5967","dc","null","null","null","null","null","null","[3,1]","448.82705603232836","492.6241034966264","476.7396751847046"
"","canvas-keyboard-response","182","139499","0.0-6.0-1.25","577","","","","","clear_screen","null","null","","","critical","c","t","d","164","240","240","164","237.1485","162.6685","trueblood","0.02","w","240","164","164","240","237.1485","162.6685","39360","39360","38576.5967","dc","null","null","null","null","null","null","[3,1]","448.82705603232836","492.6241034966264","476.7396751847046"
"","canvas-keyboard-response","183","140009","0.0-6.0-2.25","577","","","","","rectangles no change","null","null","","","critical","c","t","d","164","240","240","164","237.1485","162.6685","trueblood","0.02","w","240","164","164","240","237.1485","162.6685","39360","39360","38576.5967","dc","null","null","null","null","null","null","[3,1]","448.82705603232836","492.6241034966264","476.7396751847046"
"","canvas-keyboard-response","184","141347","0.0-6.0-3.25","577","","","","","rectangles with change","null","null","","","critical","c","t","d","164","240","240","164","237.1485","162.6685","trueblood","0.02","w","240","164","164","240","237.1485","162.6685","39360","39360","38576.5967","dc","null","null","null","null","null","null","[3,1]","448.82705603232836","492.6241034966264","476.7396751847046"
"","canvas-keyboard-response","185","141370","0.0-6.0-4.25","577","","","","","clear_screen","null","null","","","critical","c","t","d","164","240","240","164","237.1485","162.6685","trueblood","0.02","w","240","164","164","240","237.1485","162.6685","39360","39360","38576.5967","dc","null","null","null","null","null","null","[3,1]","448.82705603232836","492.6241034966264","476.7396751847046"
"","canvas-keyboard-response","186","141607","0.0-6.0-5.25","577","","","","","make choice","229","3","","","critical","c","t","d","164","240","240","164","237.1485","162.6685","trueblood","0.02","w","240","164","164","240","237.1485","162.6685","39360","39360","38576.5967","dc","null","null","null","null","null","null","[3,1]","","",""
"","canvas-keyboard-response","187","141625","0.0-6.0-6.25","577","","","","","clear_screen","null","null","","","critical","c","t","d","164","240","240","164","237.1485","162.6685","trueblood","0.02","w","240","164","164","240","237.1485","162.6685","39360","39360","38576.5967","dc","null","null","null","null","null","null","[3,1]","","",""
"","canvas-keyboard-response","188","141827","0.0-6.0-0.26","577","","","","","pre trial waiting period","null","null","","","catch","sw","sh","l","180","200","193","196","293","206","spektor","null","null","null","null","null","null","null","null","null","null","null","","180","200","260","200","36000","52000","[2,3]","488.755712781592","134.03592398594247","484.50736224756963"
"","canvas-keyboard-response","189","141846","0.0-6.0-1.26","577","","","","","clear_screen","null","null","","","catch","sw","sh","l","180","200","193","196","293","206","spektor","null","null","null","null","null","null","null","null","null","null","null","","180","200","260","200","36000","52000","[2,3]","488.755712781592","134.03592398594247","484.50736224756963"
"","canvas-keyboard-response","190","142352","0.0-6.0-2.26","577","","","","","rectangles no change","null","null","","","catch","sw","sh","l","180","200","193","196","293","206","spektor","null","null","null","null","null","null","null","null","null","null","null","","180","200","260","200","36000","52000","[2,3]","488.755712781592","134.03592398594247","484.50736224756963"
"","canvas-keyboard-response","191","143694","0.0-6.0-3.26","577","","","","","rectangles with change","null","null","","","catch","sw","sh","l","180","200","193","196","293","206","spektor","null","null","null","null","null","null","null","null","null","null","null","","180","200","260","200","36000","52000","[2,3]","488.755712781592","134.03592398594247","484.50736224756963"
"","canvas-keyboard-response","192","143717","0.0-6.0-4.26","577","","","","","clear_screen","null","null","","","catch","sw","sh","l","180","200","193","196","293","206","spektor","null","null","null","null","null","null","null","null","null","null","null","","180","200","260","200","36000","52000","[2,3]","488.755712781592","134.03592398594247","484.50736224756963"
"","canvas-keyboard-response","193","143991","0.0-6.0-5.26","577","","","","","make choice","270","3","","","catch","sw","sh","l","180","200","193","196","293","206","spektor","null","null","null","null","null","null","null","null","null","null","null","","180","200","260","200","36000","52000","[2,3]","","",""
"","canvas-keyboard-response","194","144011","0.0-6.0-6.26","577","","","","","clear_screen","null","null","","","catch","sw","sh","l","180","200","193","196","293","206","spektor","null","null","null","null","null","null","null","null","null","null","null","","180","200","260","200","36000","52000","[2,3]","","",""
"","canvas-keyboard-response","195","144214","0.0-6.0-0.27","577","","","","","pre trial waiting period","null","null","","","catch","sh","l","sw","208","192","201","290","191","218","spektor","null","null","null","null","null","null","null","null","null","null","null","","180","200","260","200","36000","52000","[1,2]","521.8321681790538","66.9976188125002","492.80584752871647"
"","canvas-keyboard-response","196","144233","0.0-6.0-1.27","577","","","","","clear_screen","null","null","","","catch","sh","l","sw","208","192","201","290","191","218","spektor","null","null","null","null","null","null","null","null","null","null","null","","180","200","260","200","36000","52000","[1,2]","521.8321681790538","66.9976188125002","492.80584752871647"
"","canvas-keyboard-response","197","144740","0.0-6.0-2.27","577","","","","","rectangles no change","null","null","","","catch","sh","l","sw","208","192","201","290","191","218","spektor","null","null","null","null","null","null","null","null","null","null","null","","180","200","260","200","36000","52000","[1,2]","521.8321681790538","66.9976188125002","492.80584752871647"
"","canvas-keyboard-response","198","146081","0.0-6.0-3.27","577","","","","","rectangles with change","null","null","","","catch","sh","l","sw","208","192","201","290","191","218","spektor","null","null","null","null","null","null","null","null","null","null","null","","180","200","260","200","36000","52000","[1,2]","521.8321681790538","66.9976188125002","492.80584752871647"
"","canvas-keyboard-response","199","146104","0.0-6.0-4.27","577","","","","","clear_screen","null","null","","","catch","sh","l","sw","208","192","201","290","191","218","spektor","null","null","null","null","null","null","null","null","null","null","null","","180","200","260","200","36000","52000","[1,2]","521.8321681790538","66.9976188125002","492.80584752871647"
"","canvas-keyboard-response","200","146326","0.0-6.0-5.27","577","","","","","make choice","218","2","","","catch","sh","l","sw","208","192","201","290","191","218","spektor","null","null","null","null","null","null","null","null","null","null","null","","180","200","260","200","36000","52000","[1,2]","","",""
"","canvas-keyboard-response","201","146346","0.0-6.0-6.27","577","","","","","clear_screen","null","null","","","catch","sh","l","sw","208","192","201","290","191","218","spektor","null","null","null","null","null","null","null","null","null","null","null","","180","200","260","200","36000","52000","[1,2]","","",""
"","canvas-keyboard-response","202","146547","0.0-6.0-0.28","577","","","","","pre trial waiting period","null","null","","","critical","d","c","t","158.0083","227.1683","240","164","164","240","trueblood","0.09","h","164","240","240","164","158.0083","227.1683","39360","39360","35894.4834","td","null","null","null","null","null","null","[3,1]","457.0606452724449","510.74235529513027","468.46211434961646"
"","canvas-keyboard-response","203","146569","0.0-6.0-1.28","577","","","","","clear_screen","null","null","","","critical","d","c","t","158.0083","227.1683","240","164","164","240","trueblood","0.09","h","164","240","240","164","158.0083","227.1683","39360","39360","35894.4834","td","null","null","null","null","null","null","[3,1]","457.0606452724449","510.74235529513027","468.46211434961646"
"","canvas-keyboard-response","204","147077","0.0-6.0-2.28","577","","","","","rectangles no change","null","null","","","critical","d","c","t","158.0083","227.1683","240","164","164","240","trueblood","0.09","h","164","240","240","164","158.0083","227.1683","39360","39360","35894.4834","td","null","null","null","null","null","null","[3,1]","457.0606452724449","510.74235529513027","468.46211434961646"
"","canvas-keyboard-response","205","148413","0.0-6.0-3.28","577","","","","","rectangles with change","null","null","","","critical","d","c","t","158.0083","227.1683","240","164","164","240","trueblood","0.09","h","164","240","240","164","158.0083","227.1683","39360","39360","35894.4834","td","null","null","null","null","null","null","[3,1]","457.0606452724449","510.74235529513027","468.46211434961646"
"","canvas-keyboard-response","206","148432","0.0-6.0-4.28","577","","","","","clear_screen","null","null","","","critical","d","c","t","158.0083","227.1683","240","164","164","240","trueblood","0.09","h","164","240","240","164","158.0083","227.1683","39360","39360","35894.4834","td","null","null","null","null","null","null","[3,1]","457.0606452724449","510.74235529513027","468.46211434961646"
"","canvas-keyboard-response","207","148719","0.0-6.0-5.28","577","","","","","make choice","283","3","","","critical","d","c","t","158.0083","227.1683","240","164","164","240","trueblood","0.09","h","164","240","240","164","158.0083","227.1683","39360","39360","35894.4834","td","null","null","null","null","null","null","[3,1]","","",""
"","canvas-keyboard-response","208","148740","0.0-6.0-6.28","577","","","","","clear_screen","null","null","","","critical","d","c","t","158.0083","227.1683","240","164","164","240","trueblood","0.09","h","164","240","240","164","158.0083","227.1683","39360","39360","35894.4834","td","null","null","null","null","null","null","[3,1]","","",""
"","canvas-keyboard-response","209","148942","0.0-6.0-0.29","577","","","","","pre trial waiting period","null","null","","","critical","d","c","t","227.1683","158.0083","164","240","240","164","spektor","0.09","w","240","164","164","240","227.1683","158.0083","39360","39360","35894.4834","tc","null","null","null","null","null","null","[3,2]","536.5918909551194","110.55424412705293","527.5686494634281"
"","canvas-keyboard-response","210","148963","0.0-6.0-1.29","577","","","","","clear_screen","null","null","","","critical","d","c","t","227.1683","158.0083","164","240","240","164","spektor","0.09","w","240","164","164","240","227.1683","158.0083","39360","39360","35894.4834","tc","null","null","null","null","null","null","[3,2]","536.5918909551194","110.55424412705293","527.5686494634281"
"","canvas-keyboard-response","211","149478","0.0-6.0-2.29","577","","","","","rectangles no change","null","null","","","critical","d","c","t","227.1683","158.0083","164","240","240","164","spektor","0.09","w","240","164","164","240","227.1683","158.0083","39360","39360","35894.4834","tc","null","null","null","null","null","null","[3,2]","536.5918909551194","110.55424412705293","527.5686494634281"
"","canvas-keyboard-response","212","150813","0.0-6.0-3.29","577","","","","","rectangles with change","null","null","","","critical","d","c","t","227.1683","158.0083","164","240","240","164","spektor","0.09","w","240","164","164","240","227.1683","158.0083","39360","39360","35894.4834","tc","null","null","null","null","null","null","[3,2]","536.5918909551194","110.55424412705293","527.5686494634281"
"","canvas-keyboard-response","213","150835","0.0-6.0-4.29","577","","","","","clear_screen","null","null","","","critical","d","c","t","227.1683","158.0083","164","240","240","164","spektor","0.09","w","240","164","164","240","227.1683","158.0083","39360","39360","35894.4834","tc","null","null","null","null","null","null","[3,2]","536.5918909551194","110.55424412705293","527.5686494634281"
"","canvas-keyboard-response","214","151111","0.0-6.0-5.29","577","","","","","make choice","271","3","","","critical","d","c","t","227.1683","158.0083","164","240","240","164","spektor","0.09","w","240","164","164","240","227.1683","158.0083","39360","39360","35894.4834","tc","null","null","null","null","null","null","[3,2]","","",""
"","canvas-keyboard-response","215","151129","0.0-6.0-6.29","577","","","","","clear_screen","null","null","","","critical","d","c","t","227.1683","158.0083","164","240","240","164","spektor","0.09","w","240","164","164","240","227.1683","158.0083","39360","39360","35894.4834","tc","null","null","null","null","null","null","[3,2]","","",""
"","canvas-keyboard-response","216","151331","0.0-6.0-0.30","577","","","","","pre trial waiting period","null","null","","","critical","t","c","d","164","240","240","164","162.6685","237.1485","trueblood","0.02","h","164","240","240","164","162.6685","237.1485","39360","39360","38576.5967","dc","null","null","null","null","null","null","[3,2]","468.6594145476908","493.0462575984054","448.19044675360067"
"","canvas-keyboard-response","217","151350","0.0-6.0-1.30","577","","","","","clear_screen","null","null","","","critical","t","c","d","164","240","240","164","162.6685","237.1485","trueblood","0.02","h","164","240","240","164","162.6685","237.1485","39360","39360","38576.5967","dc","null","null","null","null","null","null","[3,2]","468.6594145476908","493.0462575984054","448.19044675360067"
"","canvas-keyboard-response","218","151857","0.0-6.0-2.30","577","","","","","rectangles no change","null","null","","","critical","t","c","d","164","240","240","164","162.6685","237.1485","trueblood","0.02","h","164","240","240","164","162.6685","237.1485","39360","39360","38576.5967","dc","null","null","null","null","null","null","[3,2]","468.6594145476908","493.0462575984054","448.19044675360067"
"","canvas-keyboard-response","219","153196","0.0-6.0-3.30","577","","","","","rectangles with change","null","null","","","critical","t","c","d","164","240","240","164","162.6685","237.1485","trueblood","0.02","h","164","240","240","164","162.6685","237.1485","39360","39360","38576.5967","dc","null","null","null","null","null","null","[3,2]","468.6594145476908","493.0462575984054","448.19044675360067"
"","canvas-keyboard-response","220","153220","0.0-6.0-4.30","577","","","","","clear_screen","null","null","","","critical","t","c","d","164","240","240","164","162.6685","237.1485","trueblood","0.02","h","164","240","240","164","162.6685","237.1485","39360","39360","38576.5967","dc","null","null","null","null","null","null","[3,2]","468.6594145476908","493.0462575984054","448.19044675360067"
"","canvas-keyboard-response","221","153470","0.0-6.0-5.30","577","","","","","make choice","246","2","","","critical","t","c","d","164","240","240","164","162.6685","237.1485","trueblood","0.02","h","164","240","240","164","162.6685","237.1485","39360","39360","38576.5967","dc","null","null","null","null","null","null","[3,2]","","",""
"","canvas-keyboard-response","222","153487","0.0-6.0-6.30","577","","","","","clear_screen","null","null","","","critical","t","c","d","164","240","240","164","162.6685","237.1485","trueblood","0.02","h","164","240","240","164","162.6685","237.1485","39360","39360","38576.5967","dc","null","null","null","null","null","null","[3,2]","","",""
"","canvas-keyboard-response","223","153688","0.0-6.0-0.31","577","","","","","pre trial waiting period","null","null","","","critical","t","d","c","164","240","160.6713","232.8713","240","164","trueblood","0.05","h","164","240","240","164","160.6713","232.8713","39360","39360","37415.7294","td","null","null","null","null","null","null","[1,2]","455.3767263740541","469.94105553330604","471.7811002547228"
"","canvas-keyboard-response","224","153711","0.0-6.0-1.31","577","","","","","clear_screen","null","null","","","critical","t","d","c","164","240","160.6713","232.8713","240","164","trueblood","0.05","h","164","240","240","164","160.6713","232.8713","39360","39360","37415.7294","td","null","null","null","null","null","null","[1,2]","455.3767263740541","469.94105553330604","471.7811002547228"
"","canvas-keyboard-response","225","154217","0.0-6.0-2.31","577","","","","","rectangles no change","null","null","","","critical","t","d","c","164","240","160.6713","232.8713","240","164","trueblood","0.05","h","164","240","240","164","160.6713","232.8713","39360","39360","37415.7294","td","null","null","null","null","null","null","[1,2]","455.3767263740541","469.94105553330604","471.7811002547228"
"","canvas-keyboard-response","226","155556","0.0-6.0-3.31","577","","","","","rectangles with change","null","null","","","critical","t","d","c","164","240","160.6713","232.8713","240","164","trueblood","0.05","h","164","240","240","164","160.6713","232.8713","39360","39360","37415.7294","td","null","null","null","null","null","null","[1,2]","455.3767263740541","469.94105553330604","471.7811002547228"
"","canvas-keyboard-response","227","155569","0.0-6.0-4.31","577","","","","","clear_screen","null","null","","","critical","t","d","c","164","240","160.6713","232.8713","240","164","trueblood","0.05","h","164","240","240","164","160.6713","232.8713","39360","39360","37415.7294","td","null","null","null","null","null","null","[1,2]","455.3767263740541","469.94105553330604","471.7811002547228"
"","canvas-keyboard-response","228","155878","0.0-6.0-5.31","577","","","","","make choice","304","2","","","critical","t","d","c","164","240","160.6713","232.8713","240","164","trueblood","0.05","h","164","240","240","164","160.6713","232.8713","39360","39360","37415.7294","td","null","null","null","null","null","null","[1,2]","","",""
"","canvas-keyboard-response","229","155896","0.0-6.0-6.31","577","","","","","clear_screen","null","null","","","critical","t","d","c","164","240","160.6713","232.8713","240","164","trueblood","0.05","h","164","240","240","164","160.6713","232.8713","39360","39360","37415.7294","td","null","null","null","null","null","null","[1,2]","","",""
"","canvas-keyboard-response","230","156097","0.0-6.0-0.32","577","","","","","pre trial waiting period","null","null","","","critical","t","d","c","240","164","237.1485","162.6685","164","240","spektor","0.02","w","240","164","164","240","237.1485","162.6685","39360","39360","38576.5967","dc","null","null","null","null","null","null","[2,3]","499.40338472305456","216.983441398152","499.7869496974865"
"","canvas-keyboard-response","231","156121","0.0-6.0-1.32","577","","","","","clear_screen","null","null","","","critical","t","d","c","240","164","237.1485","162.6685","164","240","spektor","0.02","w","240","164","164","240","237.1485","162.6685","39360","39360","38576.5967","dc","null","null","null","null","null","null","[2,3]","499.40338472305456","216.983441398152","499.7869496974865"
"","canvas-keyboard-response","232","156627","0.0-6.0-2.32","577","","","","","rectangles no change","null","null","","","critical","t","d","c","240","164","237.1485","162.6685","164","240","spektor","0.02","w","240","164","164","240","237.1485","162.6685","39360","39360","38576.5967","dc","null","null","null","null","null","null","[2,3]","499.40338472305456","216.983441398152","499.7869496974865"
"","canvas-keyboard-response","233","157965","0.0-6.0-3.32","577","","","","","rectangles with change","null","null","","","critical","t","d","c","240","164","237.1485","162.6685","164","240","spektor","0.02","w","240","164","164","240","237.1485","162.6685","39360","39360","38576.5967","dc","null","null","null","null","null","null","[2,3]","499.40338472305456","216.983441398152","499.7869496974865"
"","canvas-keyboard-response","234","157988","0.0-6.0-4.32","577","","","","","clear_screen","null","null","","","critical","t","d","c","240","164","237.1485","162.6685","164","240","spektor","0.02","w","240","164","164","240","237.1485","162.6685","39360","39360","38576.5967","dc","null","null","null","null","null","null","[2,3]","499.40338472305456","216.983441398152","499.7869496974865"
"","canvas-keyboard-response","235","158270","0.0-6.0-5.32","577","","","","","make choice","272","3","","","critical","t","d","c","240","164","237.1485","162.6685","164","240","spektor","0.02","w","240","164","164","240","237.1485","162.6685","39360","39360","38576.5967","dc","null","null","null","null","null","null","[2,3]","","",""
"","canvas-keyboard-response","236","158290","0.0-6.0-6.32","577","","","","","clear_screen","null","null","","","critical","t","d","c","240","164","237.1485","162.6685","164","240","spektor","0.02","w","240","164","164","240","237.1485","162.6685","39360","39360","38576.5967","dc","null","null","null","null","null","null","[2,3]","","",""
"","canvas-keyboard-response","237","158490","0.0-6.0-0.33","577","","","","","pre trial waiting period","null","null","","","catch","sw","sh","l","180","200","187","167","293","196","spektor","null","null","null","null","null","null","null","null","null","null","null","","180","200","260","200","36000","52000","[1,3]","509.21565665159824","185.9227525609003","512.6825393550563"
"","canvas-keyboard-response","238","158511","0.0-6.0-1.33","577","","","","","clear_screen","null","null","","","catch","sw","sh","l","180","200","187","167","293","196","spektor","null","null","null","null","null","null","null","null","null","null","null","","180","200","260","200","36000","52000","[1,3]","509.21565665159824","185.9227525609003","512.6825393550563"
"","canvas-keyboard-response","239","159020","0.0-6.0-2.33","577","","","","","rectangles no change","null","null","","","catch","sw","sh","l","180","200","187","167","293","196","spektor","null","null","null","null","null","null","null","null","null","null","null","","180","200","260","200","36000","52000","[1,3]","509.21565665159824","185.9227525609003","512.6825393550563"
"","canvas-keyboard-response","240","160357","0.0-6.0-3.33","577","","","","","rectangles with change","null","null","","","catch","sw","sh","l","180","200","187","167","293","196","spektor","null","null","null","null","null","null","null","null","null","null","null","","180","200","260","200","36000","52000","[1,3]","509.21565665159824","185.9227525609003","512.6825393550563"
"","canvas-keyboard-response","241","160375","0.0-6.0-4.33","577","","","","","clear_screen","null","null","","","catch","sw","sh","l","180","200","187","167","293","196","spektor","null","null","null","null","null","null","null","null","null","null","null","","180","200","260","200","36000","52000","[1,3]","509.21565665159824","185.9227525609003","512.6825393550563"
"","canvas-keyboard-response","242","160614","0.0-6.0-5.33","577","","","","","make choice","233","3","","","catch","sw","sh","l","180","200","187","167","293","196","spektor","null","null","null","null","null","null","null","null","null","null","null","","180","200","260","200","36000","52000","[1,3]","","",""
"","canvas-keyboard-response","243","160631","0.0-6.0-6.33","577","","","","","clear_screen","null","null","","","catch","sw","sh","l","180","200","187","167","293","196","spektor","null","null","null","null","null","null","null","null","null","null","null","","180","200","260","200","36000","52000","[1,3]","","",""
"","canvas-keyboard-response","244","160832","0.0-6.0-0.34","577","","","","","pre trial waiting period","null","null","","","critical","c","d","t","164","240","232.8713","160.6713","240","164","spektor","0.05","w","240","164","164","240","232.8713","160.6713","39360","39360","37415.7294","tc","null","null","null","null","null","null","[3,1]","469.3980098184008","173.29365513907806","542.7234186777258"
"","canvas-keyboard-response","245","160853","0.0-6.0-1.34","577","","","","","clear_screen","null","null","","","critical","c","d","t","164","240","232.8713","160.6713","240","164","spektor","0.05","w","240","164","164","240","232.8713","160.6713","39360","39360","37415.7294","tc","null","null","null","null","null","null","[3,1]","469.3980098184008","173.29365513907806","542.7234186777258"
"","canvas-keyboard-response","246","161358","0.0-6.0-2.34","577","","","","","rectangles no change","null","null","","","critical","c","d","t","164","240","232.8713","160.6713","240","164","spektor","0.05","w","240","164","164","240","232.8713","160.6713","39360","39360","37415.7294","tc","null","null","null","null","null","null","[3,1]","469.3980098184008","173.29365513907806","542.7234186777258"
"","canvas-keyboard-response","247","162694","0.0-6.0-3.34","577","","","","","rectangles with change","null","null","","","critical","c","d","t","164","240","232.8713","160.6713","240","164","spektor","0.05","w","240","164","164","240","232.8713","160.6713","39360","39360","37415.7294","tc","null","null","null","null","null","null","[3,1]","469.3980098184008","173.29365513907806","542.7234186777258"
"","canvas-keyboard-response","248","162714","0.0-6.0-4.34","577","","","","","clear_screen","null","null","","","critical","c","d","t","164","240","232.8713","160.6713","240","164","spektor","0.05","w","240","164","164","240","232.8713","160.6713","39360","39360","37415.7294","tc","null","null","null","null","null","null","[3,1]","469.3980098184008","173.29365513907806","542.7234186777258"
"","canvas-keyboard-response","249","162983","0.0-6.0-5.34","577","","","","","make choice","264","3","","","critical","c","d","t","164","240","232.8713","160.6713","240","164","spektor","0.05","w","240","164","164","240","232.8713","160.6713","39360","39360","37415.7294","tc","null","null","null","null","null","null","[3,1]","","",""
"","canvas-keyboard-response","250","163004","0.0-6.0-6.34","577","","","","","clear_screen","null","null","","","critical","c","d","t","164","240","232.8713","160.6713","240","164","spektor","0.05","w","240","164","164","240","232.8713","160.6713","39360","39360","37415.7294","tc","null","null","null","null","null","null","[3,1]","","",""
"","canvas-keyboard-response","251","163204","0.0-6.0-0.35","577","","","","","pre trial waiting period","null","null","","","critical","t","d","c","240","164","232.8713","160.6713","164","240","spektor","0.05","w","240","164","164","240","232.8713","160.6713","39360","39360","37415.7294","dc","null","null","null","null","null","null","[2,3]","528.6014221262137","174.67731364447772","476.8108399670308"
"","canvas-keyboard-response","252","163226","0.0-6.0-1.35","577","","","","","clear_screen","null","null","","","critical","t","d","c","240","164","232.8713","160.6713","164","240","spektor","0.05","w","240","164","164","240","232.8713","160.6713","39360","39360","37415.7294","dc","null","null","null","null","null","null","[2,3]","528.6014221262137","174.67731364447772","476.8108399670308"
"","canvas-keyboard-response","253","163732","0.0-6.0-2.35","577","","","","","rectangles no change","null","null","","","critical","t","d","c","240","164","232.8713","160.6713","164","240","spektor","0.05","w","240","164","164","240","232.8713","160.6713","39360","39360","37415.7294","dc","null","null","null","null","null","null","[2,3]","528.6014221262137","174.67731364447772","476.8108399670308"
"","canvas-keyboard-response","254","165072","0.0-6.0-3.35","577","","","","","rectangles with change","null","null","","","critical","t","d","c","240","164","232.8713","160.6713","164","240","spektor","0.05","w","240","164","164","240","232.8713","160.6713","39360","39360","37415.7294","dc","null","null","null","null","null","null","[2,3]","528.6014221262137","174.67731364447772","476.8108399670308"
"","canvas-keyboard-response","255","165090","0.0-6.0-4.35","577","","","","","clear_screen","null","null","","","critical","t","d","c","240","164","232.8713","160.6713","164","240","spektor","0.05","w","240","164","164","240","232.8713","160.6713","39360","39360","37415.7294","dc","null","null","null","null","null","null","[2,3]","528.6014221262137","174.67731364447772","476.8108399670308"
"","canvas-keyboard-response","256","165382","0.0-6.0-5.35","577","","","","","make choice","286","2","","","critical","t","d","c","240","164","232.8713","160.6713","164","240","spektor","0.05","w","240","164","164","240","232.8713","160.6713","39360","39360","37415.7294","dc","null","null","null","null","null","null","[2,3]","","",""
"","canvas-keyboard-response","257","165401","0.0-6.0-6.35","577","","","","","clear_screen","null","null","","","critical","t","d","c","240","164","232.8713","160.6713","164","240","spektor","0.05","w","240","164","164","240","232.8713","160.6713","39360","39360","37415.7294","dc","null","null","null","null","null","null","[2,3]","","",""
"","canvas-keyboard-response","258","165603","0.0-6.0-0.36","577","","","","","pre trial waiting period","null","null","","","critical","t","d","c","240","164","240","164","164","240","trueblood","0","w","240","164","164","240","240","164","39360","39360","39360","dc","null","null","null","null","null","null","[2,3]","510.6442491982059","504.3562927537732","428.6758140140727"
"","canvas-keyboard-response","259","165628","0.0-6.0-1.36","577","","","","","clear_screen","null","null","","","critical","t","d","c","240","164","240","164","164","240","trueblood","0","w","240","164","164","240","240","164","39360","39360","39360","dc","null","null","null","null","null","null","[2,3]","510.6442491982059","504.3562927537732","428.6758140140727"
"","canvas-keyboard-response","260","166139","0.0-6.0-2.36","577","","","","","rectangles no change","null","null","","","critical","t","d","c","240","164","240","164","164","240","trueblood","0","w","240","164","164","240","240","164","39360","39360","39360","dc","null","null","null","null","null","null","[2,3]","510.6442491982059","504.3562927537732","428.6758140140727"
"","canvas-keyboard-response","261","167477","0.0-6.0-3.36","577","","","","","rectangles with change","null","null","","","critical","t","d","c","240","164","240","164","164","240","trueblood","0","w","240","164","164","240","240","164","39360","39360","39360","dc","null","null","null","null","null","null","[2,3]","510.6442491982059","504.3562927537732","428.6758140140727"
"","canvas-keyboard-response","262","167497","0.0-6.0-4.36","577","","","","","clear_screen","null","null","","","critical","t","d","c","240","164","240","164","164","240","trueblood","0","w","240","164","164","240","240","164","39360","39360","39360","dc","null","null","null","null","null","null","[2,3]","510.6442491982059","504.3562927537732","428.6758140140727"
"","canvas-keyboard-response","263","167751","0.0-6.0-5.36","577","","","","","make choice","246","2","","","critical","t","d","c","240","164","240","164","164","240","trueblood","0","w","240","164","164","240","240","164","39360","39360","39360","dc","null","null","null","null","null","null","[2,3]","","",""
"","canvas-keyboard-response","264","167770","0.0-6.0-6.36","577","","","","","clear_screen","null","null","","","critical","t","d","c","240","164","240","164","164","240","trueblood","0","w","240","164","164","240","240","164","39360","39360","39360","dc","null","null","null","null","null","null","[2,3]","","",""
"","canvas-keyboard-response","265","167971","0.0-6.0-0.37","577","","","","","pre trial waiting period","null","null","","","critical","t","c","d","164","240","240","164","164","240","spektor","0","h","164","240","240","164","164","240","39360","39360","39360","td","null","null","null","null","null","null","[1,3]","496.92749414091503","179.16064659633486","483.13836982477824"
"","canvas-keyboard-response","266","167995","0.0-6.0-1.37","577","","","","","clear_screen","null","null","","","critical","t","c","d","164","240","240","164","164","240","spektor","0","h","164","240","240","164","164","240","39360","39360","39360","td","null","null","null","null","null","null","[1,3]","496.92749414091503","179.16064659633486","483.13836982477824"
"","canvas-keyboard-response","267","168502","0.0-6.0-2.37","577","","","","","rectangles no change","null","null","","","critical","t","c","d","164","240","240","164","164","240","spektor","0","h","164","240","240","164","164","240","39360","39360","39360","td","null","null","null","null","null","null","[1,3]","496.92749414091503","179.16064659633486","483.13836982477824"
