"success","trial_type","trial_index","time_elapsed","internal_node_id","sub_n","timeout","failed_images","failed_audio","failed_video","screen_id","rt","response","stimulus","view_history","trial","r1","r2","r3","w1","h1","w2","h2","w3","h3","display","tdd","tdo","tw","th","cw","ch","dw","dh","ta","ca","da","probe","csls","csss","clls","clss","sa","la","probe_rects","r1yloc","r2yloc","r3yloc"
"true","fullscreen","0","2032","0.0-0.0","575","","","","","","","","","","","","","","","","","","","","","","","","","","","","","","","","","","","","","","","","","",""
"true","preload","1","2056","0.0-1.0","575","false","[]","[]","[]","img preload","","","","","","","","","","","","","","","","","","","","","","","","","","","","","","","","","","","","",""
"","survey-html-form","2","5107","0.0-2.0","575","","","","","enter-sub-number","3042","{""response"":""575""}","","","","","","","","","","","","","","","","","","","","","","","","","","","","","","","","","","",""
"","image-button-response","3","93962","0.0-3.0","575","","","","","","88787","0","consent.png","","","","","","","","","","","","","","","","","","","","","","","","","","","","","","","","","",""
"","html-button-response","4","101074","0.0-4.0","575","","","","","intro mssg","7106","0","<div style= ""font-size:25px;"" <p> <strong> Welcome! </strong><br> <p style=""color:#8B0000; font-size:25px;""><strong> Please do NOT exit full screen until you are done with the experiment. </strong> </p><p style=""font-size:25px;color:#8B0000;""> <strong> Your data will be lost <br> if you try to go back or refresh the page after the experiment starts. Feel free to click ""previous"" during the instructions, however.</strong> </p><br><p> <strong> Thanks in advance for your contribution to our research! </strong></p>","","","","","","","","","","","","","","","","","","","","","","","","","","","","","","","","","",""
"","instructions","5","151426","0.0-5.0","575","","","","","instructions","50346","","","[{""page_index"":0,""viewing_time"":5401},{""page_index"":1,""viewing_time"":10048},{""page_index"":2,""viewing_time"":4920},{""page_index"":3,""viewing_time"":18936},{""page_index"":4,""viewing_time"":5296},{""page_index"":5,""viewing_time"":2056},{""page_index"":6,""viewing_time"":2712},{""page_index"":7,""viewing_time"":976}]","","","","","","","","","","","","","","","","","","","","","","","","","","","","","","","","",""
"","canvas-keyboard-response","6","151632","0.0-6.0-0.0","575","","","","","pre trial waiting period","null","null","","","critical","d","t","c","240","164","240","164","164","240","spektor","0","w","240","164","164","240","240","164","39360","39360","39360","tc","null","null","null","null","null","null","[2,3]","519.3282181243516","176.99116634982855","489.46567120511406"
"","canvas-keyboard-response","7","151657","0.0-6.0-1.0","575","","","","","clear_screen","null","null","","","critical","d","t","c","240","164","240","164","164","240","spektor","0","w","240","164","164","240","240","164","39360","39360","39360","tc","null","null","null","null","null","null","[2,3]","519.3282181243516","176.99116634982855","489.46567120511406"
"","canvas-keyboard-response","8","152169","0.0-6.0-2.0","575","","","","","rectangles no change","null","null","","","critical","d","t","c","240","164","240","164","164","240","spektor","0","w","240","164","164","240","240","164","39360","39360","39360","tc","null","null","null","null","null","null","[2,3]","519.3282181243516","176.99116634982855","489.46567120511406"
"","canvas-keyboard-response","9","153507","0.0-6.0-3.0","575","","","","","rectangles with change","null","null","","","critical","d","t","c","240","164","240","164","164","240","spektor","0","w","240","164","164","240","240","164","39360","39360","39360","tc","null","null","null","null","null","null","[2,3]","519.3282181243516","176.99116634982855","489.46567120511406"
"","canvas-keyboard-response","10","153530","0.0-6.0-4.0","575","","","","","clear_screen","null","null","","","critical","d","t","c","240","164","240","164","164","240","spektor","0","w","240","164","164","240","240","164","39360","39360","39360","tc","null","null","null","null","null","null","[2,3]","519.3282181243516","176.99116634982855","489.46567120511406"
"","canvas-keyboard-response","11","159806","0.0-6.0-5.0","575","","","","","make choice","6265","3","","","critical","d","t","c","240","164","240","164","164","240","spektor","0","w","240","164","164","240","240","164","39360","39360","39360","tc","null","null","null","null","null","null","[2,3]","","",""
"","canvas-keyboard-response","12","159825","0.0-6.0-6.0","575","","","","","clear_screen","null","null","","","critical","d","t","c","240","164","240","164","164","240","spektor","0","w","240","164","164","240","240","164","39360","39360","39360","tc","null","null","null","null","null","null","[2,3]","","",""
"","canvas-keyboard-response","13","160027","0.0-6.0-0.1","575","","","","","pre trial waiting period","null","null","","","critical","d","c","t","154.6796","220.0396","240","164","164","240","spektor","0.14","h","164","240","240","164","154.6796","220.0396","39360","39360","34035.6388","tc","null","null","null","null","null","null","[3,2]","494.17244691682095","200.49851690617425","493.64123382154867"
"","canvas-keyboard-response","14","160045","0.0-6.0-1.1","575","","","","","clear_screen","null","null","","","critical","d","c","t","154.6796","220.0396","240","164","164","240","spektor","0.14","h","164","240","240","164","154.6796","220.0396","39360","39360","34035.6388","tc","null","null","null","null","null","null","[3,2]","494.17244691682095","200.49851690617425","493.64123382154867"
"","canvas-keyboard-response","15","160554","0.0-6.0-2.1","575","","","","","rectangles no change","null","null","","","critical","d","c","t","154.6796","220.0396","240","164","164","240","spektor","0.14","h","164","240","240","164","154.6796","220.0396","39360","39360","34035.6388","tc","null","null","null","null","null","null","[3,2]","494.17244691682095","200.49851690617425","493.64123382154867"
"","canvas-keyboard-response","16","161894","0.0-6.0-3.1","575","","","","","rectangles with change","null","null","","","critical","d","c","t","154.6796","220.0396","240","164","164","240","spektor","0.14","h","164","240","240","164","154.6796","220.0396","39360","39360","34035.6388","tc","null","null","null","null","null","null","[3,2]","494.17244691682095","200.49851690617425","493.64123382154867"
"","canvas-keyboard-response","17","161915","0.0-6.0-4.1","575","","","","","clear_screen","null","null","","","critical","d","c","t","154.6796","220.0396","240","164","164","240","spektor","0.14","h","164","240","240","164","154.6796","220.0396","39360","39360","34035.6388","tc","null","null","null","null","null","null","[3,2]","494.17244691682095","200.49851690617425","493.64123382154867"
"","canvas-keyboard-response","18","163029","0.0-6.0-5.1","575","","","","","make choice","1102","3","","","critical","d","c","t","154.6796","220.0396","240","164","164","240","spektor","0.14","h","164","240","240","164","154.6796","220.0396","39360","39360","34035.6388","tc","null","null","null","null","null","null","[3,2]","","",""
"","canvas-keyboard-response","19","163046","0.0-6.0-6.1","575","","","","","clear_screen","null","null","","","critical","d","c","t","154.6796","220.0396","240","164","164","240","spektor","0.14","h","164","240","240","164","154.6796","220.0396","39360","39360","34035.6388","tc","null","null","null","null","null","null","[3,2]","","",""
"","canvas-keyboard-response","20","163247","0.0-6.0-0.2","575","","","","","pre trial waiting period","null","null","","","critical","c","d","t","164","240","237.1485","162.6685","240","164","spektor","0.02","w","240","164","164","240","237.1485","162.6685","39360","39360","38576.5967","td","null","null","null","null","null","null","[3,2]","502.87767586558954","186.36735578590344","509.4328849561182"
"","canvas-keyboard-response","21","163271","0.0-6.0-1.2","575","","","","","clear_screen","null","null","","","critical","c","d","t","164","240","237.1485","162.6685","240","164","spektor","0.02","w","240","164","164","240","237.1485","162.6685","39360","39360","38576.5967","td","null","null","null","null","null","null","[3,2]","502.87767586558954","186.36735578590344","509.4328849561182"
"","canvas-keyboard-response","22","163778","0.0-6.0-2.2","575","","","","","rectangles no change","null","null","","","critical","c","d","t","164","240","237.1485","162.6685","240","164","spektor","0.02","w","240","164","164","240","237.1485","162.6685","39360","39360","38576.5967","td","null","null","null","null","null","null","[3,2]","502.87767586558954","186.36735578590344","509.4328849561182"
"","canvas-keyboard-response","23","165114","0.0-6.0-3.2","575","","","","","rectangles with change","null","null","","","critical","c","d","t","164","240","237.1485","162.6685","240","164","spektor","0.02","w","240","164","164","240","237.1485","162.6685","39360","39360","38576.5967","td","null","null","null","null","null","null","[3,2]","502.87767586558954","186.36735578590344","509.4328849561182"
"","canvas-keyboard-response","24","165134","0.0-6.0-4.2","575","","","","","clear_screen","null","null","","","critical","c","d","t","164","240","237.1485","162.6685","240","164","spektor","0.02","w","240","164","164","240","237.1485","162.6685","39360","39360","38576.5967","td","null","null","null","null","null","null","[3,2]","502.87767586558954","186.36735578590344","509.4328849561182"
"","canvas-keyboard-response","25","165964","0.0-6.0-5.2","575","","","","","make choice","825","3","","","critical","c","d","t","164","240","237.1485","162.6685","240","164","spektor","0.02","w","240","164","164","240","237.1485","162.6685","39360","39360","38576.5967","td","null","null","null","null","null","null","[3,2]","","",""
"","canvas-keyboard-response","26","165983","0.0-6.0-6.2","575","","","","","clear_screen","null","null","","","critical","c","d","t","164","240","237.1485","162.6685","240","164","spektor","0.02","w","240","164","164","240","237.1485","162.6685","39360","39360","38576.5967","td","null","null","null","null","null","null","[3,2]","","",""
"","canvas-keyboard-response","27","166185","0.0-6.0-0.3","575","","","","","pre trial waiting period","null","null","","","critical","c","t","d","164","240","240","164","232.8713","160.6713","trueblood","0.05","w","240","164","164","240","232.8713","160.6713","39360","39360","37415.7294","td","null","null","null","null","null","null","[2,3]","459.77934350527835","489.8594149298618","477.49049160295544"
"","canvas-keyboard-response","28","166206","0.0-6.0-1.3","575","","","","","clear_screen","null","null","","","critical","c","t","d","164","240","240","164","232.8713","160.6713","trueblood","0.05","w","240","164","164","240","232.8713","160.6713","39360","39360","37415.7294","td","null","null","null","null","null","null","[2,3]","459.77934350527835","489.8594149298618","477.49049160295544"
"","canvas-keyboard-response","29","166716","0.0-6.0-2.3","575","","","","","rectangles no change","null","null","","","critical","c","t","d","164","240","240","164","232.8713","160.6713","trueblood","0.05","w","240","164","164","240","232.8713","160.6713","39360","39360","37415.7294","td","null","null","null","null","null","null","[2,3]","459.77934350527835","489.8594149298618","477.49049160295544"
"","canvas-keyboard-response","30","168052","0.0-6.0-3.3","575","","","","","rectangles with change","null","null","","","critical","c","t","d","164","240","240","164","232.8713","160.6713","trueblood","0.05","w","240","164","164","240","232.8713","160.6713","39360","39360","37415.7294","td","null","null","null","null","null","null","[2,3]","459.77934350527835","489.8594149298618","477.49049160295544"
"","canvas-keyboard-response","31","168072","0.0-6.0-4.3","575","","","","","clear_screen","null","null","","","critical","c","t","d","164","240","240","164","232.8713","160.6713","trueblood","0.05","w","240","164","164","240","232.8713","160.6713","39360","39360","37415.7294","td","null","null","null","null","null","null","[2,3]","459.77934350527835","489.8594149298618","477.49049160295544"
"","canvas-keyboard-response","32","171167","0.0-6.0-5.3","575","","","","","make choice","3088","3","","","critical","c","t","d","164","240","240","164","232.8713","160.6713","trueblood","0.05","w","240","164","164","240","232.8713","160.6713","39360","39360","37415.7294","td","null","null","null","null","null","null","[2,3]","","",""
"","canvas-keyboard-response","33","171189","0.0-6.0-6.3","575","","","","","clear_screen","null","null","","","critical","c","t","d","164","240","240","164","232.8713","160.6713","trueblood","0.05","w","240","164","164","240","232.8713","160.6713","39360","39360","37415.7294","td","null","null","null","null","null","null","[2,3]","","",""
"","canvas-keyboard-response","34","171390","0.0-6.0-0.4","575","","","","","pre trial waiting period","null","null","","","critical","t","d","c","164","240","158.0083","227.1683","240","164","trueblood","0.09","h","164","240","240","164","158.0083","227.1683","39360","39360","35894.4834","dc","null","null","null","null","null","null","[2,3]","439.61304420093666","463.28967841215785","494.25176002755256"
"","canvas-keyboard-response","35","171413","0.0-6.0-1.4","575","","","","","clear_screen","null","null","","","critical","t","d","c","164","240","158.0083","227.1683","240","164","trueblood","0.09","h","164","240","240","164","158.0083","227.1683","39360","39360","35894.4834","dc","null","null","null","null","null","null","[2,3]","439.61304420093666","463.28967841215785","494.25176002755256"
"","canvas-keyboard-response","36","171922","0.0-6.0-2.4","575","","","","","rectangles no change","null","null","","","critical","t","d","c","164","240","158.0083","227.1683","240","164","trueblood","0.09","h","164","240","240","164","158.0083","227.1683","39360","39360","35894.4834","dc","null","null","null","null","null","null","[2,3]","439.61304420093666","463.28967841215785","494.25176002755256"
"","canvas-keyboard-response","37","173257","0.0-6.0-3.4","575","","","","","rectangles with change","null","null","","","critical","t","d","c","164","240","158.0083","227.1683","240","164","trueblood","0.09","h","164","240","240","164","158.0083","227.1683","39360","39360","35894.4834","dc","null","null","null","null","null","null","[2,3]","439.61304420093666","463.28967841215785","494.25176002755256"
"","canvas-keyboard-response","38","173277","0.0-6.0-4.4","575","","","","","clear_screen","null","null","","","critical","t","d","c","164","240","158.0083","227.1683","240","164","trueblood","0.09","h","164","240","240","164","158.0083","227.1683","39360","39360","35894.4834","dc","null","null","null","null","null","null","[2,3]","439.61304420093666","463.28967841215785","494.25176002755256"
"","canvas-keyboard-response","39","174365","0.0-6.0-5.4","575","","","","","make choice","1081","3","","","critical","t","d","c","164","240","158.0083","227.1683","240","164","trueblood","0.09","h","164","240","240","164","158.0083","227.1683","39360","39360","35894.4834","dc","null","null","null","null","null","null","[2,3]","","",""
"","canvas-keyboard-response","40","174386","0.0-6.0-6.4","575","","","","","clear_screen","null","null","","","critical","t","d","c","164","240","158.0083","227.1683","240","164","trueblood","0.09","h","164","240","240","164","158.0083","227.1683","39360","39360","35894.4834","dc","null","null","null","null","null","null","[2,3]","","",""
"","canvas-keyboard-response","41","174588","0.0-6.0-0.5","575","","","","","pre trial waiting period","null","null","","","catch","sh","l","sw","204","156","215","247","218","237","spektor","null","null","null","null","null","null","null","null","null","null","null","","180","200","260","200","36000","52000","[1,2]","539.3989805844855","132.8711033573553","487.33752828252756"
"","canvas-keyboard-response","42","174609","0.0-6.0-1.5","575","","","","","clear_screen","null","null","","","catch","sh","l","sw","204","156","215","247","218","237","spektor","null","null","null","null","null","null","null","null","null","null","null","","180","200","260","200","36000","52000","[1,2]","539.3989805844855","132.8711033573553","487.33752828252756"
"","canvas-keyboard-response","43","175118","0.0-6.0-2.5","575","","","","","rectangles no change","null","null","","","catch","sh","l","sw","204","156","215","247","218","237","spektor","null","null","null","null","null","null","null","null","null","null","null","","180","200","260","200","36000","52000","[1,2]","539.3989805844855","132.8711033573553","487.33752828252756"
"","canvas-keyboard-response","44","176454","0.0-6.0-3.5","575","","","","","rectangles with change","null","null","","","catch","sh","l","sw","204","156","215","247","218","237","spektor","null","null","null","null","null","null","null","null","null","null","null","","180","200","260","200","36000","52000","[1,2]","539.3989805844855","132.8711033573553","487.33752828252756"
"","canvas-keyboard-response","45","176478","0.0-6.0-4.5","575","","","","","clear_screen","null","null","","","catch","sh","l","sw","204","156","215","247","218","237","spektor","null","null","null","null","null","null","null","null","null","null","null","","180","200","260","200","36000","52000","[1,2]","539.3989805844855","132.8711033573553","487.33752828252756"
"","canvas-keyboard-response","46","176828","0.0-6.0-5.5","575","","","","","make choice","338","2","","","catch","sh","l","sw","204","156","215","247","218","237","spektor","null","null","null","null","null","null","null","null","null","null","null","","180","200","260","200","36000","52000","[1,2]","","",""
"","canvas-keyboard-response","47","176846","0.0-6.0-6.5","575","","","","","clear_screen","null","null","","","catch","sh","l","sw","204","156","215","247","218","237","spektor","null","null","null","null","null","null","null","null","null","null","null","","180","200","260","200","36000","52000","[1,2]","","",""
"","canvas-keyboard-response","48","177047","0.0-6.0-0.6","575","","","","","pre trial waiting period","null","null","","","critical","t","d","c","240","164","237.1485","162.6685","164","240","trueblood","0.02","w","240","164","164","240","237.1485","162.6685","39360","39360","38576.5967","td","null","null","null","null","null","null","[1,2]","506.30514432830455","498.63349681419515","432.49901711257826"
"","canvas-keyboard-response","49","177068","0.0-6.0-1.6","575","","","","","clear_screen","null","null","","","critical","t","d","c","240","164","237.1485","162.6685","164","240","trueblood","0.02","w","240","164","164","240","237.1485","162.6685","39360","39360","38576.5967","td","null","null","null","null","null","null","[1,2]","506.30514432830455","498.63349681419515","432.49901711257826"
"","canvas-keyboard-response","50","177577","0.0-6.0-2.6","575","","","","","rectangles no change","null","null","","","critical","t","d","c","240","164","237.1485","162.6685","164","240","trueblood","0.02","w","240","164","164","240","237.1485","162.6685","39360","39360","38576.5967","td","null","null","null","null","null","null","[1,2]","506.30514432830455","498.63349681419515","432.49901711257826"
"","canvas-keyboard-response","51","178916","0.0-6.0-3.6","575","","","","","rectangles with change","null","null","","","critical","t","d","c","240","164","237.1485","162.6685","164","240","trueblood","0.02","w","240","164","164","240","237.1485","162.6685","39360","39360","38576.5967","td","null","null","null","null","null","null","[1,2]","506.30514432830455","498.63349681419515","432.49901711257826"
"","canvas-keyboard-response","52","178941","0.0-6.0-4.6","575","","","","","clear_screen","null","null","","","critical","t","d","c","240","164","237.1485","162.6685","164","240","trueblood","0.02","w","240","164","164","240","237.1485","162.6685","39360","39360","38576.5967","td","null","null","null","null","null","null","[1,2]","506.30514432830455","498.63349681419515","432.49901711257826"
"","canvas-keyboard-response","53","180965","0.0-6.0-5.6","575","","","","","make choice","2018","1","","","critical","t","d","c","240","164","237.1485","162.6685","164","240","trueblood","0.02","w","240","164","164","240","237.1485","162.6685","39360","39360","38576.5967","td","null","null","null","null","null","null","[1,2]","","",""
"","canvas-keyboard-response","54","180986","0.0-6.0-6.6","575","","","","","clear_screen","null","null","","","critical","t","d","c","240","164","237.1485","162.6685","164","240","trueblood","0.02","w","240","164","164","240","237.1485","162.6685","39360","39360","38576.5967","td","null","null","null","null","null","null","[1,2]","","",""
"","canvas-keyboard-response","55","181188","0.0-6.0-0.7","575","","","","","pre trial waiting period","null","null","","","catch","sh","l","sw","209","197","227","235","168","239","spektor","null","null","null","null","null","null","null","null","null","null","null","","180","200","260","200","36000","52000","[2,3]","495.24456919563954","112.13231062011475","484.04730324240387"
"","canvas-keyboard-response","56","181211","0.0-6.0-1.7","575","","","","","clear_screen","null","null","","","catch","sh","l","sw","209","197","227","235","168","239","spektor","null","null","null","null","null","null","null","null","null","null","null","","180","200","260","200","36000","52000","[2,3]","495.24456919563954","112.13231062011475","484.04730324240387"
"","canvas-keyboard-response","57","181718","0.0-6.0-2.7","575","","","","","rectangles no change","null","null","","","catch","sh","l","sw","209","197","227","235","168","239","spektor","null","null","null","null","null","null","null","null","null","null","null","","180","200","260","200","36000","52000","[2,3]","495.24456919563954","112.13231062011475","484.04730324240387"
"","canvas-keyboard-response","58","183057","0.0-6.0-3.7","575","","","","","rectangles with change","null","null","","","catch","sh","l","sw","209","197","227","235","168","239","spektor","null","null","null","null","null","null","null","null","null","null","null","","180","200","260","200","36000","52000","[2,3]","495.24456919563954","112.13231062011475","484.04730324240387"
"","canvas-keyboard-response","59","183076","0.0-6.0-4.7","575","","","","","clear_screen","null","null","","","catch","sh","l","sw","209","197","227","235","168","239","spektor","null","null","null","null","null","null","null","null","null","null","null","","180","200","260","200","36000","52000","[2,3]","495.24456919563954","112.13231062011475","484.04730324240387"
"","canvas-keyboard-response","60","183541","0.0-6.0-5.7","575","","","","","make choice","456","2","","","catch","sh","l","sw","209","197","227","235","168","239","spektor","null","null","null","null","null","null","null","null","null","null","null","","180","200","260","200","36000","52000","[2,3]","","",""
"","canvas-keyboard-response","61","183560","0.0-6.0-6.7","575","","","","","clear_screen","null","null","","","catch","sh","l","sw","209","197","227","235","168","239","spektor","null","null","null","null","null","null","null","null","null","null","null","","180","200","260","200","36000","52000","[2,3]","","",""
"","canvas-keyboard-response","62","183761","0.0-6.0-0.8","575","","","","","pre trial waiting period","null","null","","","critical","t","c","d","164","240","240","164","164","240","trueblood","0","h","164","240","240","164","164","240","39360","39360","39360","tc","null","null","null","null","null","null","[1,2]","455.81394252236277","515.04165299161","459.1573958683654"
"","canvas-keyboard-response","63","183784","0.0-6.0-1.8","575","","","","","clear_screen","null","null","","","critical","t","c","d","164","240","240","164","164","240","trueblood","0","h","164","240","240","164","164","240","39360","39360","39360","tc","null","null","null","null","null","null","[1,2]","455.81394252236277","515.04165299161","459.1573958683654"
"","canvas-keyboard-response","64","184292","0.0-6.0-2.8","575","","","","","rectangles no change","null","null","","","critical","t","c","d","164","240","240","164","164","240","trueblood","0","h","164","240","240","164","164","240","39360","39360","39360","tc","null","null","null","null","null","null","[1,2]","455.81394252236277","515.04165299161","459.1573958683654"
"","canvas-keyboard-response","65","185627","0.0-6.0-3.8","575","","","","","rectangles with change","null","null","","","critical","t","c","d","164","240","240","164","164","240","trueblood","0","h","164","240","240","164","164","240","39360","39360","39360","tc","null","null","null","null","null","null","[1,2]","455.81394252236277","515.04165299161","459.1573958683654"
"","canvas-keyboard-response","66","185653","0.0-6.0-4.8","575","","","","","clear_screen","null","null","","","critical","t","c","d","164","240","240","164","164","240","trueblood","0","h","164","240","240","164","164","240","39360","39360","39360","tc","null","null","null","null","null","null","[1,2]","455.81394252236277","515.04165299161","459.1573958683654"
"","canvas-keyboard-response","67","187628","0.0-6.0-5.8","575","","","","","make choice","1971","1","","","critical","t","c","d","164","240","240","164","164","240","trueblood","0","h","164","240","240","164","164","240","39360","39360","39360","tc","null","null","null","null","null","null","[1,2]","","",""
"","canvas-keyboard-response","68","187649","0.0-6.0-6.8","575","","","","","clear_screen","null","null","","","critical","t","c","d","164","240","240","164","164","240","trueblood","0","h","164","240","240","164","164","240","39360","39360","39360","tc","null","null","null","null","null","null","[1,2]","","",""
"","canvas-keyboard-response","69","187850","0.0-6.0-0.9","575","","","","","pre trial waiting period","null","null","","","catch","l","sw","sh","223","282","164","205","214","216","trueblood","null","null","null","null","null","null","null","null","null","null","null","","180","200","260","200","36000","52000","[1,2]","405.0983668943349","454.12522028933205","454.8682944873776"
"","canvas-keyboard-response","70","187866","0.0-6.0-1.9","575","","","","","clear_screen","null","null","","","catch","l","sw","sh","223","282","164","205","214","216","trueblood","null","null","null","null","null","null","null","null","null","null","null","","180","200","260","200","36000","52000","[1,2]","405.0983668943349","454.12522028933205","454.8682944873776"
"","canvas-keyboard-response","71","188374","0.0-6.0-2.9","575","","","","","rectangles no change","null","null","","","catch","l","sw","sh","223","282","164","205","214","216","trueblood","null","null","null","null","null","null","null","null","null","null","null","","180","200","260","200","36000","52000","[1,2]","405.0983668943349","454.12522028933205","454.8682944873776"
"","canvas-keyboard-response","72","189711","0.0-6.0-3.9","575","","","","","rectangles with change","null","null","","","catch","l","sw","sh","223","282","164","205","214","216","trueblood","null","null","null","null","null","null","null","null","null","null","null","","180","200","260","200","36000","52000","[1,2]","405.0983668943349","454.12522028933205","454.8682944873776"
"","canvas-keyboard-response","73","189731","0.0-6.0-4.9","575","","","","","clear_screen","null","null","","","catch","l","sw","sh","223","282","164","205","214","216","trueblood","null","null","null","null","null","null","null","null","null","null","null","","180","200","260","200","36000","52000","[1,2]","405.0983668943349","454.12522028933205","454.8682944873776"
"","canvas-keyboard-response","74","190372","0.0-6.0-5.9","575","","","","","make choice","636","1","","","catch","l","sw","sh","223","282","164","205","214","216","trueblood","null","null","null","null","null","null","null","null","null","null","null","","180","200","260","200","36000","52000","[1,2]","","",""
"","canvas-keyboard-response","75","190391","0.0-6.0-6.9","575","","","","","clear_screen","null","null","","","catch","l","sw","sh","223","282","164","205","214","216","trueblood","null","null","null","null","null","null","null","null","null","null","null","","180","200","260","200","36000","52000","[1,2]","","",""
"","canvas-keyboard-response","76","190593","0.0-6.0-0.10","575","","","","","pre trial waiting period","null","null","","","catch","l","sh","sw","222","221","201","162","181","221","trueblood","null","null","null","null","null","null","null","null","null","null","null","","180","200","260","200","36000","52000","[1,3]","465.7855698422778","516.9698061267034","453.3293795549808"
"","canvas-keyboard-response","77","190617","0.0-6.0-1.10","575","","","","","clear_screen","null","null","","","catch","l","sh","sw","222","221","201","162","181","221","trueblood","null","null","null","null","null","null","null","null","null","null","null","","180","200","260","200","36000","52000","[1,3]","465.7855698422778","516.9698061267034","453.3293795549808"
"","canvas-keyboard-response","78","191126","0.0-6.0-2.10","575","","","","","rectangles no change","null","null","","","catch","l","sh","sw","222","221","201","162","181","221","trueblood","null","null","null","null","null","null","null","null","null","null","null","","180","200","260","200","36000","52000","[1,3]","465.7855698422778","516.9698061267034","453.3293795549808"
"","canvas-keyboard-response","79","192465","0.0-6.0-3.10","575","","","","","rectangles with change","null","null","","","catch","l","sh","sw","222","221","201","162","181","221","trueblood","null","null","null","null","null","null","null","null","null","null","null","","180","200","260","200","36000","52000","[1,3]","465.7855698422778","516.9698061267034","453.3293795549808"
"","canvas-keyboard-response","80","192486","0.0-6.0-4.10","575","","","","","clear_screen","null","null","","","catch","l","sh","sw","222","221","201","162","181","221","trueblood","null","null","null","null","null","null","null","null","null","null","null","","180","200","260","200","36000","52000","[1,3]","465.7855698422778","516.9698061267034","453.3293795549808"
"","canvas-keyboard-response","81","192948","0.0-6.0-5.10","575","","","","","make choice","455","1","","","catch","l","sh","sw","222","221","201","162","181","221","trueblood","null","null","null","null","null","null","null","null","null","null","null","","180","200","260","200","36000","52000","[1,3]","","",""
"","canvas-keyboard-response","82","192967","0.0-6.0-6.10","575","","","","","clear_screen","null","null","","","catch","l","sh","sw","222","221","201","162","181","221","trueblood","null","null","null","null","null","null","null","null","null","null","null","","180","200","260","200","36000","52000","[1,3]","","",""
"","canvas-keyboard-response","83","193169","0.0-6.0-0.11","575","","","","","pre trial waiting period","null","null","","","catch","l","sw","sh","184","299","212","206","222","190","spektor","null","null","null","null","null","null","null","null","null","null","null","","180","200","260","200","36000","52000","[1,2]","455.5459778222136","127.5062317067935","526.726444842658"
"","canvas-keyboard-response","84","193191","0.0-6.0-1.11","575","","","","","clear_screen","null","null","","","catch","l","sw","sh","184","299","212","206","222","190","spektor","null","null","null","null","null","null","null","null","null","null","null","","180","200","260","200","36000","52000","[1,2]","455.5459778222136","127.5062317067935","526.726444842658"
"","canvas-keyboard-response","85","193699","0.0-6.0-2.11","575","","","","","rectangles no change","null","null","","","catch","l","sw","sh","184","299","212","206","222","190","spektor","null","null","null","null","null","null","null","null","null","null","null","","180","200","260","200","36000","52000","[1,2]","455.5459778222136","127.5062317067935","526.726444842658"
"","canvas-keyboard-response","86","195038","0.0-6.0-3.11","575","","","","","rectangles with change","null","null","","","catch","l","sw","sh","184","299","212","206","222","190","spektor","null","null","null","null","null","null","null","null","null","null","null","","180","200","260","200","36000","52000","[1,2]","455.5459778222136","127.5062317067935","526.726444842658"
"","canvas-keyboard-response","87","195059","0.0-6.0-4.11","575","","","","","clear_screen","null","null","","","catch","l","sw","sh","184","299","212","206","222","190","spektor","null","null","null","null","null","null","null","null","null","null","null","","180","200","260","200","36000","52000","[1,2]","455.5459778222136","127.5062317067935","526.726444842658"
"","canvas-keyboard-response","88","195404","0.0-6.0-5.11","575","","","","","make choice","339","1","","","catch","l","sw","sh","184","299","212","206","222","190","spektor","null","null","null","null","null","null","null","null","null","null","null","","180","200","260","200","36000","52000","[1,2]","","",""
"","canvas-keyboard-response","89","195426","0.0-6.0-6.11","575","","","","","clear_screen","null","null","","","catch","l","sw","sh","184","299","212","206","222","190","spektor","null","null","null","null","null","null","null","null","null","null","null","","180","200","260","200","36000","52000","[1,2]","","",""
"","canvas-keyboard-response","90","195628","0.0-6.0-0.12","575","","","","","pre trial waiting period","null","null","","","critical","t","c","d","164","240","240","164","164","240","spektor","0","h","164","240","240","164","164","240","39360","39360","39360","tc","null","null","null","null","null","null","[1,2]","459.748873494042","153.76829334110477","464.99342386691205"
"","canvas-keyboard-response","91","195647","0.0-6.0-1.12","575","","","","","clear_screen","null","null","","","critical","t","c","d","164","240","240","164","164","240","spektor","0","h","164","240","240","164","164","240","39360","39360","39360","tc","null","null","null","null","null","null","[1,2]","459.748873494042","153.76829334110477","464.99342386691205"
"","canvas-keyboard-response","92","196156","0.0-6.0-2.12","575","","","","","rectangles no change","null","null","","","critical","t","c","d","164","240","240","164","164","240","spektor","0","h","164","240","240","164","164","240","39360","39360","39360","tc","null","null","null","null","null","null","[1,2]","459.748873494042","153.76829334110477","464.99342386691205"
"","canvas-keyboard-response","93","197493","0.0-6.0-3.12","575","","","","","rectangles with change","null","null","","","critical","t","c","d","164","240","240","164","164","240","spektor","0","h","164","240","240","164","164","240","39360","39360","39360","tc","null","null","null","null","null","null","[1,2]","459.748873494042","153.76829334110477","464.99342386691205"
"","canvas-keyboard-response","94","197513","0.0-6.0-4.12","575","","","","","clear_screen","null","null","","","critical","t","c","d","164","240","240","164","164","240","spektor","0","h","164","240","240","164","164","240","39360","39360","39360","tc","null","null","null","null","null","null","[1,2]","459.748873494042","153.76829334110477","464.99342386691205"
"","canvas-keyboard-response","95","198117","0.0-6.0-5.12","575","","","","","make choice","597","1","","","critical","t","c","d","164","240","240","164","164","240","spektor","0","h","164","240","240","164","164","240","39360","39360","39360","tc","null","null","null","null","null","null","[1,2]","","",""
"","canvas-keyboard-response","96","198138","0.0-6.0-6.12","575","","","","","clear_screen","null","null","","","critical","t","c","d","164","240","240","164","164","240","spektor","0","h","164","240","240","164","164","240","39360","39360","39360","tc","null","null","null","null","null","null","[1,2]","","",""
"","canvas-keyboard-response","97","198338","0.0-6.0-0.13","575","","","","","pre trial waiting period","null","null","","","critical","d","t","c","232.8713","160.6713","240","164","164","240","spektor","0.05","w","240","164","164","240","232.8713","160.6713","39360","39360","37415.7294","dc","null","null","null","null","null","null","[1,3]","543.9172919456231","185.56868157704804","487.285927136681"
"","canvas-keyboard-response","98","198362","0.0-6.0-1.13","575","","","","","clear_screen","null","null","","","critical","d","t","c","232.8713","160.6713","240","164","164","240","spektor","0.05","w","240","164","164","240","232.8713","160.6713","39360","39360","37415.7294","dc","null","null","null","null","null","null","[1,3]","543.9172919456231","185.56868157704804","487.285927136681"
"","canvas-keyboard-response","99","198869","0.0-6.0-2.13","575","","","","","rectangles no change","null","null","","","critical","d","t","c","232.8713","160.6713","240","164","164","240","spektor","0.05","w","240","164","164","240","232.8713","160.6713","39360","39360","37415.7294","dc","null","null","null","null","null","null","[1,3]","543.9172919456231","185.56868157704804","487.285927136681"
"","canvas-keyboard-response","100","200209","0.0-6.0-3.13","575","","","","","rectangles with change","null","null","","","critical","d","t","c","232.8713","160.6713","240","164","164","240","spektor","0.05","w","240","164","164","240","232.8713","160.6713","39360","39360","37415.7294","dc","null","null","null","null","null","null","[1,3]","543.9172919456231","185.56868157704804","487.285927136681"
"","canvas-keyboard-response","101","200234","0.0-6.0-4.13","575","","","","","clear_screen","null","null","","","critical","d","t","c","232.8713","160.6713","240","164","164","240","spektor","0.05","w","240","164","164","240","232.8713","160.6713","39360","39360","37415.7294","dc","null","null","null","null","null","null","[1,3]","543.9172919456231","185.56868157704804","487.285927136681"
"","canvas-keyboard-response","102","201492","0.0-6.0-5.13","575","","","","","make choice","1253","3","","","critical","d","t","c","232.8713","160.6713","240","164","164","240","spektor","0.05","w","240","164","164","240","232.8713","160.6713","39360","39360","37415.7294","dc","null","null","null","null","null","null","[1,3]","","",""
"","canvas-keyboard-response","103","201511","0.0-6.0-6.13","575","","","","","clear_screen","null","null","","","critical","d","t","c","232.8713","160.6713","240","164","164","240","spektor","0.05","w","240","164","164","240","232.8713","160.6713","39360","39360","37415.7294","dc","null","null","null","null","null","null","[1,3]","","",""
"","canvas-keyboard-response","104","201713","0.0-6.0-0.14","575","","","","","pre trial waiting period","null","null","","","critical","c","d","t","240","164","160.6713","232.8713","164","240","spektor","0.05","h","164","240","240","164","160.6713","232.8713","39360","39360","37415.7294","tc","null","null","null","null","null","null","[3,1]","518.787439850022","101.35155532348115","480.59797874006557"
"","canvas-keyboard-response","105","201737","0.0-6.0-1.14","575","","","","","clear_screen","null","null","","","critical","c","d","t","240","164","160.6713","232.8713","164","240","spektor","0.05","h","164","240","240","164","160.6713","232.8713","39360","39360","37415.7294","tc","null","null","null","null","null","null","[3,1]","518.787439850022","101.35155532348115","480.59797874006557"
"","canvas-keyboard-response","106","202248","0.0-6.0-2.14","575","","","","","rectangles no change","null","null","","","critical","c","d","t","240","164","160.6713","232.8713","164","240","spektor","0.05","h","164","240","240","164","160.6713","232.8713","39360","39360","37415.7294","tc","null","null","null","null","null","null","[3,1]","518.787439850022","101.35155532348115","480.59797874006557"
"","canvas-keyboard-response","107","203589","0.0-6.0-3.14","575","","","","","rectangles with change","null","null","","","critical","c","d","t","240","164","160.6713","232.8713","164","240","spektor","0.05","h","164","240","240","164","160.6713","232.8713","39360","39360","37415.7294","tc","null","null","null","null","null","null","[3,1]","518.787439850022","101.35155532348115","480.59797874006557"
"","canvas-keyboard-response","108","203610","0.0-6.0-4.14","575","","","","","clear_screen","null","null","","","critical","c","d","t","240","164","160.6713","232.8713","164","240","spektor","0.05","h","164","240","240","164","160.6713","232.8713","39360","39360","37415.7294","tc","null","null","null","null","null","null","[3,1]","518.787439850022","101.35155532348115","480.59797874006557"
"","canvas-keyboard-response","109","204260","0.0-6.0-5.14","575","","","","","make choice","644","3","","","critical","c","d","t","240","164","160.6713","232.8713","164","240","spektor","0.05","h","164","240","240","164","160.6713","232.8713","39360","39360","37415.7294","tc","null","null","null","null","null","null","[3,1]","","",""
"","canvas-keyboard-response","110","204280","0.0-6.0-6.14","575","","","","","clear_screen","null","null","","","critical","c","d","t","240","164","160.6713","232.8713","164","240","spektor","0.05","h","164","240","240","164","160.6713","232.8713","39360","39360","37415.7294","tc","null","null","null","null","null","null","[3,1]","","",""
"","canvas-keyboard-response","111","204480","0.0-6.0-0.15","575","","","","","pre trial waiting period","null","null","","","critical","c","t","d","240","164","164","240","154.6796","220.0396","trueblood","0.14","h","164","240","240","164","154.6796","220.0396","39360","39360","34035.6388","td","null","null","null","null","null","null","[2,3]","480.63775359075714","439.51080390955525","445.50948567560204"
"","canvas-keyboard-response","112","204502","0.0-6.0-1.15","575","","","","","clear_screen","null","null","","","critical","c","t","d","240","164","164","240","154.6796","220.0396","trueblood","0.14","h","164","240","240","164","154.6796","220.0396","39360","39360","34035.6388","td","null","null","null","null","null","null","[2,3]","480.63775359075714","439.51080390955525","445.50948567560204"
"","canvas-keyboard-response","113","205008","0.0-6.0-2.15","575","","","","","rectangles no change","null","null","","","critical","c","t","d","240","164","164","240","154.6796","220.0396","trueblood","0.14","h","164","240","240","164","154.6796","220.0396","39360","39360","34035.6388","td","null","null","null","null","null","null","[2,3]","480.63775359075714","439.51080390955525","445.50948567560204"
"","canvas-keyboard-response","114","206345","0.0-6.0-3.15","575","","","","","rectangles with change","null","null","","","critical","c","t","d","240","164","164","240","154.6796","220.0396","trueblood","0.14","h","164","240","240","164","154.6796","220.0396","39360","39360","34035.6388","td","null","null","null","null","null","null","[2,3]","480.63775359075714","439.51080390955525","445.50948567560204"
"","canvas-keyboard-response","115","206364","0.0-6.0-4.15","575","","","","","clear_screen","null","null","","","critical","c","t","d","240","164","164","240","154.6796","220.0396","trueblood","0.14","h","164","240","240","164","154.6796","220.0396","39360","39360","34035.6388","td","null","null","null","null","null","null","[2,3]","480.63775359075714","439.51080390955525","445.50948567560204"
"","canvas-keyboard-response","116","206636","0.0-6.0-5.15","575","","","","","make choice","265","2","","","critical","c","t","d","240","164","164","240","154.6796","220.0396","trueblood","0.14","h","164","240","240","164","154.6796","220.0396","39360","39360","34035.6388","td","null","null","null","null","null","null","[2,3]","","",""
"","canvas-keyboard-response","117","206658","0.0-6.0-6.15","575","","","","","clear_screen","null","null","","","critical","c","t","d","240","164","164","240","154.6796","220.0396","trueblood","0.14","h","164","240","240","164","154.6796","220.0396","39360","39360","34035.6388","td","null","null","null","null","null","null","[2,3]","","",""
"","canvas-keyboard-response","118","206859","0.0-6.0-0.16","575","","","","","pre trial waiting period","null","null","","","catch","sw","l","sh","180","200","225","212","202","215","trueblood","null","null","null","null","null","null","null","null","null","null","null","","180","200","260","200","36000","52000","[1,2]","457.6295017172893","442.1875714631212","436.9375832210718"
"","canvas-keyboard-response","119","206879","0.0-6.0-1.16","575","","","","","clear_screen","null","null","","","catch","sw","l","sh","180","200","225","212","202","215","trueblood","null","null","null","null","null","null","null","null","null","null","null","","180","200","260","200","36000","52000","[1,2]","457.6295017172893","442.1875714631212","436.9375832210718"
"","canvas-keyboard-response","120","207386","0.0-6.0-2.16","575","","","","","rectangles no change","null","null","","","catch","sw","l","sh","180","200","225","212","202","215","trueblood","null","null","null","null","null","null","null","null","null","null","null","","180","200","260","200","36000","52000","[1,2]","457.6295017172893","442.1875714631212","436.9375832210718"
"","canvas-keyboard-response","121","208723","0.0-6.0-3.16","575","","","","","rectangles with change","null","null","","","catch","sw","l","sh","180","200","225","212","202","215","trueblood","null","null","null","null","null","null","null","null","null","null","null","","180","200","260","200","36000","52000","[1,2]","457.6295017172893","442.1875714631212","436.9375832210718"
"","canvas-keyboard-response","122","208744","0.0-6.0-4.16","575","","","","","clear_screen","null","null","","","catch","sw","l","sh","180","200","225","212","202","215","trueblood","null","null","null","null","null","null","null","null","null","null","null","","180","200","260","200","36000","52000","[1,2]","457.6295017172893","442.1875714631212","436.9375832210718"
"","canvas-keyboard-response","123","209060","0.0-6.0-5.16","575","","","","","make choice","311","2","","","catch","sw","l","sh","180","200","225","212","202","215","trueblood","null","null","null","null","null","null","null","null","null","null","null","","180","200","260","200","36000","52000","[1,2]","","",""
"","canvas-keyboard-response","124","209079","0.0-6.0-6.16","575","","","","","clear_screen","null","null","","","catch","sw","l","sh","180","200","225","212","202","215","trueblood","null","null","null","null","null","null","null","null","null","null","null","","180","200","260","200","36000","52000","[1,2]","","",""
"","canvas-keyboard-response","125","209281","0.0-6.0-0.17","575","","","","","pre trial waiting period","null","null","","","catch","sh","l","sw","180","211","249","236","215","165","trueblood","null","null","null","null","null","null","null","null","null","null","null","","180","200","260","200","36000","52000","[1,2]","447.4509887783962","456.03145082172136","517.3807940471903"
"","canvas-keyboard-response","126","209306","0.0-6.0-1.17","575","","","","","clear_screen","null","null","","","catch","sh","l","sw","180","211","249","236","215","165","trueblood","null","null","null","null","null","null","null","null","null","null","null","","180","200","260","200","36000","52000","[1,2]","447.4509887783962","456.03145082172136","517.3807940471903"
"","canvas-keyboard-response","127","209813","0.0-6.0-2.17","575","","","","","rectangles no change","null","null","","","catch","sh","l","sw","180","211","249","236","215","165","trueblood","null","null","null","null","null","null","null","null","null","null","null","","180","200","260","200","36000","52000","[1,2]","447.4509887783962","456.03145082172136","517.3807940471903"
"","canvas-keyboard-response","128","211147","0.0-6.0-3.17","575","","","","","rectangles with change","null","null","","","catch","sh","l","sw","180","211","249","236","215","165","trueblood","null","null","null","null","null","null","null","null","null","null","null","","180","200","260","200","36000","52000","[1,2]","447.4509887783962","456.03145082172136","517.3807940471903"
"","canvas-keyboard-response","129","211166","0.0-6.0-4.17","575","","","","","clear_screen","null","null","","","catch","sh","l","sw","180","211","249","236","215","165","trueblood","null","null","null","null","null","null","null","null","null","null","null","","180","200","260","200","36000","52000","[1,2]","447.4509887783962","456.03145082172136","517.3807940471903"
"","canvas-keyboard-response","130","211516","0.0-6.0-5.17","575","","","","","make choice","344","2","","","catch","sh","l","sw","180","211","249","236","215","165","trueblood","null","null","null","null","null","null","null","null","null","null","null","","180","200","260","200","36000","52000","[1,2]","","",""
"","canvas-keyboard-response","131","211535","0.0-6.0-6.17","575","","","","","clear_screen","null","null","","","catch","sh","l","sw","180","211","249","236","215","165","trueblood","null","null","null","null","null","null","null","null","null","null","null","","180","200","260","200","36000","52000","[1,2]","","",""
"","canvas-keyboard-response","132","211737","0.0-6.0-0.18","575","","","","","pre trial waiting period","null","null","","","critical","c","t","d","240","164","164","240","160.6713","232.8713","spektor","0.05","h","164","240","240","164","160.6713","232.8713","39360","39360","37415.7294","td","null","null","null","null","null","null","[2,3]","496.26182993927523","118.30763319145036","500.76563483573386"
"","canvas-keyboard-response","133","211759","0.0-6.0-1.18","575","","","","","clear_screen","null","null","","","critical","c","t","d","240","164","164","240","160.6713","232.8713","spektor","0.05","h","164","240","240","164","160.6713","232.8713","39360","39360","37415.7294","td","null","null","null","null","null","null","[2,3]","496.26182993927523","118.30763319145036","500.76563483573386"
"","canvas-keyboard-response","134","212267","0.0-6.0-2.18","575","","","","","rectangles no change","null","null","","","critical","c","t","d","240","164","164","240","160.6713","232.8713","spektor","0.05","h","164","240","240","164","160.6713","232.8713","39360","39360","37415.7294","td","null","null","null","null","null","null","[2,3]","496.26182993927523","118.30763319145036","500.76563483573386"
"","canvas-keyboard-response","135","213604","0.0-6.0-3.18","575","","","","","rectangles with change","null","null","","","critical","c","t","d","240","164","164","240","160.6713","232.8713","spektor","0.05","h","164","240","240","164","160.6713","232.8713","39360","39360","37415.7294","td","null","null","null","null","null","null","[2,3]","496.26182993927523","118.30763319145036","500.76563483573386"
"","canvas-keyboard-response","136","213624","0.0-6.0-4.18","575","","","","","clear_screen","null","null","","","critical","c","t","d","240","164","164","240","160.6713","232.8713","spektor","0.05","h","164","240","240","164","160.6713","232.8713","39360","39360","37415.7294","td","null","null","null","null","null","null","[2,3]","496.26182993927523","118.30763319145036","500.76563483573386"
"","canvas-keyboard-response","137","214012","0.0-6.0-5.18","575","","","","","make choice","384","3","","","critical","c","t","d","240","164","164","240","160.6713","232.8713","spektor","0.05","h","164","240","240","164","160.6713","232.8713","39360","39360","37415.7294","td","null","null","null","null","null","null","[2,3]","","",""
"","canvas-keyboard-response","138","214034","0.0-6.0-6.18","575","","","","","clear_screen","null","null","","","critical","c","t","d","240","164","164","240","160.6713","232.8713","spektor","0.05","h","164","240","240","164","160.6713","232.8713","39360","39360","37415.7294","td","null","null","null","null","null","null","[2,3]","","",""
"","canvas-keyboard-response","139","214235","0.0-6.0-0.19","575","","","","","pre trial waiting period","null","null","","","catch","sh","sw","l","222","175","187","192","189","223","trueblood","null","null","null","null","null","null","null","null","null","null","null","","180","200","260","200","36000","52000","[1,3]","482.80213612814134","451.5459957013136","434.5179008821997"
"","canvas-keyboard-response","140","214256","0.0-6.0-1.19","575","","","","","clear_screen","null","null","","","catch","sh","sw","l","222","175","187","192","189","223","trueblood","null","null","null","null","null","null","null","null","null","null","null","","180","200","260","200","36000","52000","[1,3]","482.80213612814134","451.5459957013136","434.5179008821997"
"","canvas-keyboard-response","141","214762","0.0-6.0-2.19","575","","","","","rectangles no change","null","null","","","catch","sh","sw","l","222","175","187","192","189","223","trueblood","null","null","null","null","null","null","null","null","null","null","null","","180","200","260","200","36000","52000","[1,3]","482.80213612814134","451.5459957013136","434.5179008821997"
"","canvas-keyboard-response","142","216099","0.0-6.0-3.19","575","","","","","rectangles with change","null","null","","","catch","sh","sw","l","222","175","187","192","189","223","trueblood","null","null","null","null","null","null","null","null","null","null","null","","180","200","260","200","36000","52000","[1,3]","482.80213612814134","451.5459957013136","434.5179008821997"
"","canvas-keyboard-response","143","216122","0.0-6.0-4.19","575","","","","","clear_screen","null","null","","","catch","sh","sw","l","222","175","187","192","189","223","trueblood","null","null","null","null","null","null","null","null","null","null","null","","180","200","260","200","36000","52000","[1,3]","482.80213612814134","451.5459957013136","434.5179008821997"
"","canvas-keyboard-response","144","216437","0.0-6.0-5.19","575","","","","","make choice","305","3","","","catch","sh","sw","l","222","175","187","192","189","223","trueblood","null","null","null","null","null","null","null","null","null","null","null","","180","200","260","200","36000","52000","[1,3]","","",""
"","canvas-keyboard-response","145","216455","0.0-6.0-6.19","575","","","","","clear_screen","null","null","","","catch","sh","sw","l","222","175","187","192","189","223","trueblood","null","null","null","null","null","null","null","null","null","null","null","","180","200","260","200","36000","52000","[1,3]","","",""
"","canvas-keyboard-response","146","216656","0.0-6.0-0.20","575","","","","","pre trial waiting period","null","null","","","critical","c","t","d","164","240","240","164","220.0396","154.6796","trueblood","0.14","w","240","164","164","240","220.0396","154.6796","39360","39360","34035.6388","td","null","null","null","null","null","null","[2,3]","463.8754707110687","512.2055028711986","495.97009364106003"
"","canvas-keyboard-response","147","216678","0.0-6.0-1.20","575","","","","","clear_screen","null","null","","","critical","c","t","d","164","240","240","164","220.0396","154.6796","trueblood","0.14","w","240","164","164","240","220.0396","154.6796","39360","39360","34035.6388","td","null","null","null","null","null","null","[2,3]","463.8754707110687","512.2055028711986","495.97009364106003"
"","canvas-keyboard-response","148","217187","0.0-6.0-2.20","575","","","","","rectangles no change","null","null","","","critical","c","t","d","164","240","240","164","220.0396","154.6796","trueblood","0.14","w","240","164","164","240","220.0396","154.6796","39360","39360","34035.6388","td","null","null","null","null","null","null","[2,3]","463.8754707110687","512.2055028711986","495.97009364106003"
"","canvas-keyboard-response","149","218526","0.0-6.0-3.20","575","","","","","rectangles with change","null","null","","","critical","c","t","d","164","240","240","164","220.0396","154.6796","trueblood","0.14","w","240","164","164","240","220.0396","154.6796","39360","39360","34035.6388","td","null","null","null","null","null","null","[2,3]","463.8754707110687","512.2055028711986","495.97009364106003"
"","canvas-keyboard-response","150","218539","0.0-6.0-4.20","575","","","","","clear_screen","5","2","","","critical","c","t","d","164","240","240","164","220.0396","154.6796","trueblood","0.14","w","240","164","164","240","220.0396","154.6796","39360","39360","34035.6388","td","null","null","null","null","null","null","[2,3]","463.8754707110687","512.2055028711986","495.97009364106003"
"","canvas-keyboard-response","151","220148","0.0-6.0-5.20","575","","","","","make choice","1601","2","","","critical","c","t","d","164","240","240","164","220.0396","154.6796","trueblood","0.14","w","240","164","164","240","220.0396","154.6796","39360","39360","34035.6388","td","null","null","null","null","null","null","[2,3]","","",""
"","canvas-keyboard-response","152","220168","0.0-6.0-6.20","575","","","","","clear_screen","null","null","","","critical","c","t","d","164","240","240","164","220.0396","154.6796","trueblood","0.14","w","240","164","164","240","220.0396","154.6796","39360","39360","34035.6388","td","null","null","null","null","null","null","[2,3]","","",""
"","canvas-keyboard-response","153","220368","0.0-6.0-0.21","575","","","","","pre trial waiting period","null","null","","","catch","sw","l","sh","180","200","298","212","188","185","spektor","null","null","null","null","null","null","null","null","null","null","null","","180","200","260","200","36000","52000","[2,3]","504.5137657727128","136.9076532324405","528.3203136503029"
"","canvas-keyboard-response","154","220391","0.0-6.0-1.21","575","","","","","clear_screen","null","null","","","catch","sw","l","sh","180","200","298","212","188","185","spektor","null","null","null","null","null","null","null","null","null","null","null","","180","200","260","200","36000","52000","[2,3]","504.5137657727128","136.9076532324405","528.3203136503029"
"","canvas-keyboard-response","155","220899","0.0-6.0-2.21","575","","","","","rectangles no change","null","null","","","catch","sw","l","sh","180","200","298","212","188","185","spektor","null","null","null","null","null","null","null","null","null","null","null","","180","200","260","200","36000","52000","[2,3]","504.5137657727128","136.9076532324405","528.3203136503029"
"","canvas-keyboard-response","156","222235","0.0-6.0-3.21","575","","","","","rectangles with change","null","null","","","catch","sw","l","sh","180","200","298","212","188","185","spektor","null","null","null","null","null","null","null","null","null","null","null","","180","200","260","200","36000","52000","[2,3]","504.5137657727128","136.9076532324405","528.3203136503029"
"","canvas-keyboard-response","157","222255","0.0-6.0-4.21","575","","","","","clear_screen","null","null","","","catch","sw","l","sh","180","200","298","212","188","185","spektor","null","null","null","null","null","null","null","null","null","null","null","","180","200","260","200","36000","52000","[2,3]","504.5137657727128","136.9076532324405","528.3203136503029"
"","canvas-keyboard-response","158","222469","0.0-6.0-5.21","575","","","","","make choice","206","2","","","catch","sw","l","sh","180","200","298","212","188","185","spektor","null","null","null","null","null","null","null","null","null","null","null","","180","200","260","200","36000","52000","[2,3]","","",""
"","canvas-keyboard-response","159","222488","0.0-6.0-6.21","575","","","","","clear_screen","null","null","","","catch","sw","l","sh","180","200","298","212","188","185","spektor","null","null","null","null","null","null","null","null","null","null","null","","180","200","260","200","36000","52000","[2,3]","","",""
"","canvas-keyboard-response","160","222689","0.0-6.0-0.22","575","","","","","pre trial waiting period","null","null","","","critical","c","t","d","240","164","164","240","162.6685","237.1485","trueblood","0.02","h","164","240","240","164","162.6685","237.1485","39360","39360","38576.5967","td","null","null","null","null","null","null","[2,3]","479.35156128009953","421.6130586757933","454.95993246282893"
"","canvas-keyboard-response","161","222714","0.0-6.0-1.22","575","","","","","clear_screen","null","null","","","critical","c","t","d","240","164","164","240","162.6685","237.1485","trueblood","0.02","h","164","240","240","164","162.6685","237.1485","39360","39360","38576.5967","td","null","null","null","null","null","null","[2,3]","479.35156128009953","421.6130586757933","454.95993246282893"
"","canvas-keyboard-response","162","223224","0.0-6.0-2.22","575","","","","","rectangles no change","null","null","","","critical","c","t","d","240","164","164","240","162.6685","237.1485","trueblood","0.02","h","164","240","240","164","162.6685","237.1485","39360","39360","38576.5967","td","null","null","null","null","null","null","[2,3]","479.35156128009953","421.6130586757933","454.95993246282893"
"","canvas-keyboard-response","163","224560","0.0-6.0-3.22","575","","","","","rectangles with change","null","null","","","critical","c","t","d","240","164","164","240","162.6685","237.1485","trueblood","0.02","h","164","240","240","164","162.6685","237.1485","39360","39360","38576.5967","td","null","null","null","null","null","null","[2,3]","479.35156128009953","421.6130586757933","454.95993246282893"
"","canvas-keyboard-response","164","224583","0.0-6.0-4.22","575","","","","","clear_screen","null","null","","","critical","c","t","d","240","164","164","240","162.6685","237.1485","trueblood","0.02","h","164","240","240","164","162.6685","237.1485","39360","39360","38576.5967","td","null","null","null","null","null","null","[2,3]","479.35156128009953","421.6130586757933","454.95993246282893"
"","canvas-keyboard-response","165","225396","0.0-6.0-5.22","575","","","","","make choice","807","3","","","critical","c","t","d","240","164","164","240","162.6685","237.1485","trueblood","0.02","h","164","240","240","164","162.6685","237.1485","39360","39360","38576.5967","td","null","null","null","null","null","null","[2,3]","","",""
"","canvas-keyboard-response","166","225415","0.0-6.0-6.22","575","","","","","clear_screen","null","null","","","critical","c","t","d","240","164","164","240","162.6685","237.1485","trueblood","0.02","h","164","240","240","164","162.6685","237.1485","39360","39360","38576.5967","td","null","null","null","null","null","null","[2,3]","","",""
"","canvas-keyboard-response","167","225616","0.0-6.0-0.23","575","","","","","pre trial waiting period","null","null","","","catch","sh","l","sw","223","147","227","212","178","209","trueblood","null","null","null","null","null","null","null","null","null","null","null","","180","200","260","200","36000","52000","[2,3]","491.39345513659","475.4634537296644","458.59963132738307"
"","canvas-keyboard-response","168","225638","0.0-6.0-1.23","575","","","","","clear_screen","null","null","","","catch","sh","l","sw","223","147","227","212","178","209","trueblood","null","null","null","null","null","null","null","null","null","null","null","","180","200","260","200","36000","52000","[2,3]","491.39345513659","475.4634537296644","458.59963132738307"
"","canvas-keyboard-response","169","226145","0.0-6.0-2.23","575","","","","","rectangles no change","null","null","","","catch","sh","l","sw","223","147","227","212","178","209","trueblood","null","null","null","null","null","null","null","null","null","null","null","","180","200","260","200","36000","52000","[2,3]","491.39345513659","475.4634537296644","458.59963132738307"
"","canvas-keyboard-response","170","227484","0.0-6.0-3.23","575","","","","","rectangles with change","null","null","","","catch","sh","l","sw","223","147","227","212","178","209","trueblood","null","null","null","null","null","null","null","null","null","null","null","","180","200","260","200","36000","52000","[2,3]","491.39345513659","475.4634537296644","458.59963132738307"
"","canvas-keyboard-response","171","227503","0.0-6.0-4.23","575","","","","","clear_screen","null","null","","","catch","sh","l","sw","223","147","227","212","178","209","trueblood","null","null","null","null","null","null","null","null","null","null","null","","180","200","260","200","36000","52000","[2,3]","491.39345513659","475.4634537296644","458.59963132738307"
"","canvas-keyboard-response","172","227709","0.0-6.0-5.23","575","","","","","make choice","198","2","","","catch","sh","l","sw","223","147","227","212","178","209","trueblood","null","null","null","null","null","null","null","null","null","null","null","","180","200","260","200","36000","52000","[2,3]","","",""
"","canvas-keyboard-response","173","227726","0.0-6.0-6.23","575","","","","","clear_screen","null","null","","","catch","sh","l","sw","223","147","227","212","178","209","trueblood","null","null","null","null","null","null","null","null","null","null","null","","180","200","260","200","36000","52000","[2,3]","","",""
"","canvas-keyboard-response","174","227927","0.0-6.0-0.24","575","","","","","pre trial waiting period","null","null","","","critical","c","d","t","240","164","154.6796","220.0396","164","240","trueblood","0.14","h","164","240","240","164","154.6796","220.0396","39360","39360","34035.6388","tc","null","null","null","null","null","null","[3,1]","493.600465277397","468.3866984644828","423.05166010952985"
"","canvas-keyboard-response","175","227950","0.0-6.0-1.24","575","","","","","clear_screen","null","null","","","critical","c","d","t","240","164","154.6796","220.0396","164","240","trueblood","0.14","h","164","240","240","164","154.6796","220.0396","39360","39360","34035.6388","tc","null","null","null","null","null","null","[3,1]","493.600465277397","468.3866984644828","423.05166010952985"
"","canvas-keyboard-response","176","228459","0.0-6.0-2.24","575","","","","","rectangles no change","null","null","","","critical","c","d","t","240","164","154.6796","220.0396","164","240","trueblood","0.14","h","164","240","240","164","154.6796","220.0396","39360","39360","34035.6388","tc","null","null","null","null","null","null","[3,1]","493.600465277397","468.3866984644828","423.05166010952985"
"","canvas-keyboard-response","177","229796","0.0-6.0-3.24","575","","","","","rectangles with change","null","null","","","critical","c","d","t","240","164","154.6796","220.0396","164","240","trueblood","0.14","h","164","240","240","164","154.6796","220.0396","39360","39360","34035.6388","tc","null","null","null","null","null","null","[3,1]","493.600465277397","468.3866984644828","423.05166010952985"
"","canvas-keyboard-response","178","229816","0.0-6.0-4.24","575","","","","","clear_screen","null","null","","","critical","c","d","t","240","164","154.6796","220.0396","164","240","trueblood","0.14","h","164","240","240","164","154.6796","220.0396","39360","39360","34035.6388","tc","null","null","null","null","null","null","[3,1]","493.600465277397","468.3866984644828","423.05166010952985"
"","canvas-keyboard-response","179","230333","0.0-6.0-5.24","575","","","","","make choice","508","1","","","critical","c","d","t","240","164","154.6796","220.0396","164","240","trueblood","0.14","h","164","240","240","164","154.6796","220.0396","39360","39360","34035.6388","tc","null","null","null","null","null","null","[3,1]","","",""
"","canvas-keyboard-response","180","230352","0.0-6.0-6.24","575","","","","","clear_screen","null","null","","","critical","c","d","t","240","164","154.6796","220.0396","164","240","trueblood","0.14","h","164","240","240","164","154.6796","220.0396","39360","39360","34035.6388","tc","null","null","null","null","null","null","[3,1]","","",""
"","canvas-keyboard-response","181","230552","0.0-6.0-0.25","575","","","","","pre trial waiting period","null","null","","","catch","sh","sw","l","221","164","203","199","213","252","trueblood","null","null","null","null","null","null","null","null","null","null","null","","180","200","260","200","36000","52000","[1,3]","499.4918595805515","486.73513189362603","435.1269789401606"
"","canvas-keyboard-response","182","230573","0.0-6.0-1.25","575","","","","","clear_screen","null","null","","","catch","sh","sw","l","221","164","203","199","213","252","trueblood","null","null","null","null","null","null","null","null","null","null","null","","180","200","260","200","36000","52000","[1,3]","499.4918595805515","486.73513189362603","435.1269789401606"
"","canvas-keyboard-response","183","231085","0.0-6.0-2.25","575","","","","","rectangles no change","null","null","","","catch","sh","sw","l","221","164","203","199","213","252","trueblood","null","null","null","null","null","null","null","null","null","null","null","","180","200","260","200","36000","52000","[1,3]","499.4918595805515","486.73513189362603","435.1269789401606"
"","canvas-keyboard-response","184","232422","0.0-6.0-3.25","575","","","","","rectangles with change","null","null","","","catch","sh","sw","l","221","164","203","199","213","252","trueblood","null","null","null","null","null","null","null","null","null","null","null","","180","200","260","200","36000","52000","[1,3]","499.4918595805515","486.73513189362603","435.1269789401606"
"","canvas-keyboard-response","185","232442","0.0-6.0-4.25","575","","","","","clear_screen","null","null","","","catch","sh","sw","l","221","164","203","199","213","252","trueblood","null","null","null","null","null","null","null","null","null","null","null","","180","200","260","200","36000","52000","[1,3]","499.4918595805515","486.73513189362603","435.1269789401606"
"","canvas-keyboard-response","186","232789","0.0-6.0-5.25","575","","","","","make choice","340","3","","","catch","sh","sw","l","221","164","203","199","213","252","trueblood","null","null","null","null","null","null","null","null","null","null","null","","180","200","260","200","36000","52000","[1,3]","","",""
"","canvas-keyboard-response","187","232807","0.0-6.0-6.25","575","","","","","clear_screen","null","null","","","catch","sh","sw","l","221","164","203","199","213","252","trueblood","null","null","null","null","null","null","null","null","null","null","null","","180","200","260","200","36000","52000","[1,3]","","",""
"","canvas-keyboard-response","188","233008","0.0-6.0-0.26","575","","","","","pre trial waiting period","null","null","","","critical","t","c","d","240","164","164","240","227.1683","158.0083","spektor","0.09","w","240","164","164","240","227.1683","158.0083","39360","39360","35894.4834","td","null","null","null","null","null","null","[1,3]","532.0448502935319","127.32495852595878","515.9773943969528"
"","canvas-keyboard-response","189","233031","0.0-6.0-1.26","575","","","","","clear_screen","null","null","","","critical","t","c","d","240","164","164","240","227.1683","158.0083","spektor","0.09","w","240","164","164","240","227.1683","158.0083","39360","39360","35894.4834","td","null","null","null","null","null","null","[1,3]","532.0448502935319","127.32495852595878","515.9773943969528"
"","canvas-keyboard-response","190","233540","0.0-6.0-2.26","575","","","","","rectangles no change","null","null","","","critical","t","c","d","240","164","164","240","227.1683","158.0083","spektor","0.09","w","240","164","164","240","227.1683","158.0083","39360","39360","35894.4834","td","null","null","null","null","null","null","[1,3]","532.0448502935319","127.32495852595878","515.9773943969528"
"","canvas-keyboard-response","191","234875","0.0-6.0-3.26","575","","","","","rectangles with change","null","null","","","critical","t","c","d","240","164","164","240","227.1683","158.0083","spektor","0.09","w","240","164","164","240","227.1683","158.0083","39360","39360","35894.4834","td","null","null","null","null","null","null","[1,3]","532.0448502935319","127.32495852595878","515.9773943969528"
"","canvas-keyboard-response","192","234899","0.0-6.0-4.26","575","","","","","clear_screen","null","null","","","critical","t","c","d","240","164","164","240","227.1683","158.0083","spektor","0.09","w","240","164","164","240","227.1683","158.0083","39360","39360","35894.4834","td","null","null","null","null","null","null","[1,3]","532.0448502935319","127.32495852595878","515.9773943969528"
"","canvas-keyboard-response","193","235149","0.0-6.0-5.26","575","","","","","make choice","242","1","","","critical","t","c","d","240","164","164","240","227.1683","158.0083","spektor","0.09","w","240","164","164","240","227.1683","158.0083","39360","39360","35894.4834","td","null","null","null","null","null","null","[1,3]","","",""
"","canvas-keyboard-response","194","235169","0.0-6.0-6.26","575","","","","","clear_screen","null","null","","","critical","t","c","d","240","164","164","240","227.1683","158.0083","spektor","0.09","w","240","164","164","240","227.1683","158.0083","39360","39360","35894.4834","td","null","null","null","null","null","null","[1,3]","","",""
"","canvas-keyboard-response","195","235369","0.0-6.0-0.27","575","","","","","pre trial waiting period","null","null","","","critical","t","d","c","240","164","232.8713","160.6713","164","240","spektor","0.05","w","240","164","164","240","232.8713","160.6713","39360","39360","37415.7294","td","null","null","null","null","null","null","[1,2]","512.353765915682","201.2974174582487","504.42923804128543"
"","canvas-keyboard-response","196","235388","0.0-6.0-1.27","575","","","","","clear_screen","null","null","","","critical","t","d","c","240","164","232.8713","160.6713","164","240","spektor","0.05","w","240","164","164","240","232.8713","160.6713","39360","39360","37415.7294","td","null","null","null","null","null","null","[1,2]","512.353765915682","201.2974174582487","504.42923804128543"
"","canvas-keyboard-response","197","235895","0.0-6.0-2.27","575","","","","","rectangles no change","null","null","","","critical","t","d","c","240","164","232.8713","160.6713","164","240","spektor","0.05","w","240","164","164","240","232.8713","160.6713","39360","39360","37415.7294","td","null","null","null","null","null","null","[1,2]","512.353765915682","201.2974174582487","504.42923804128543"
"","canvas-keyboard-response","198","237228","0.0-6.0-3.27","575","","","","","rectangles with change","null","null","","","critical","t","d","c","240","164","232.8713","160.6713","164","240","spektor","0.05","w","240","164","164","240","232.8713","160.6713","39360","39360","37415.7294","td","null","null","null","null","null","null","[1,2]","512.353765915682","201.2974174582487","504.42923804128543"
"","canvas-keyboard-response","199","237248","0.0-6.0-4.27","575","","","","","clear_screen","null","null","","","critical","t","d","c","240","164","232.8713","160.6713","164","240","spektor","0.05","w","240","164","164","240","232.8713","160.6713","39360","39360","37415.7294","td","null","null","null","null","null","null","[1,2]","512.353765915682","201.2974174582487","504.42923804128543"
"","canvas-keyboard-response","200","237580","0.0-6.0-5.27","575","","","","","make choice","326","1","","","critical","t","d","c","240","164","232.8713","160.6713","164","240","spektor","0.05","w","240","164","164","240","232.8713","160.6713","39360","39360","37415.7294","td","null","null","null","null","null","null","[1,2]","","",""
"","canvas-keyboard-response","201","237600","0.0-6.0-6.27","575","","","","","clear_screen","null","null","","","critical","t","d","c","240","164","232.8713","160.6713","164","240","spektor","0.05","w","240","164","164","240","232.8713","160.6713","39360","39360","37415.7294","td","null","null","null","null","null","null","[1,2]","","",""
"","canvas-keyboard-response","202","237802","0.0-6.0-0.28","575","","","","","pre trial waiting period","null","null","","","critical","d","t","c","154.6796","220.0396","164","240","240","164","spektor","0.14","h","164","240","240","164","154.6796","220.0396","39360","39360","34035.6388","dc","null","null","null","null","null","null","[1,3]","494.9587604009321","127.85957293496061","538.6893299455005"
"","canvas-keyboard-response","203","237821","0.0-6.0-1.28","575","","","","","clear_screen","null","null","","","critical","d","t","c","154.6796","220.0396","164","240","240","164","spektor","0.14","h","164","240","240","164","154.6796","220.0396","39360","39360","34035.6388","dc","null","null","null","null","null","null","[1,3]","494.9587604009321","127.85957293496061","538.6893299455005"
"","canvas-keyboard-response","204","238329","0.0-6.0-2.28","575","","","","","rectangles no change","null","null","","","critical","d","t","c","154.6796","220.0396","164","240","240","164","spektor","0.14","h","164","240","240","164","154.6796","220.0396","39360","39360","34035.6388","dc","null","null","null","null","null","null","[1,3]","494.9587604009321","127.85957293496061","538.6893299455005"
"","canvas-keyboard-response","205","239664","0.0-6.0-3.28","575","","","","","rectangles with change","null","null","","","critical","d","t","c","154.6796","220.0396","164","240","240","164","spektor","0.14","h","164","240","240","164","154.6796","220.0396","39360","39360","34035.6388","dc","null","null","null","null","null","null","[1,3]","494.9587604009321","127.85957293496061","538.6893299455005"
"","canvas-keyboard-response","206","239686","0.0-6.0-4.28","575","","","","","clear_screen","null","null","","","critical","d","t","c","154.6796","220.0396","164","240","240","164","spektor","0.14","h","164","240","240","164","154.6796","220.0396","39360","39360","34035.6388","dc","null","null","null","null","null","null","[1,3]","494.9587604009321","127.85957293496061","538.6893299455005"
"","canvas-keyboard-response","207","240629","0.0-6.0-5.28","575","","","","","make choice","937","3","","","critical","d","t","c","154.6796","220.0396","164","240","240","164","spektor","0.14","h","164","240","240","164","154.6796","220.0396","39360","39360","34035.6388","dc","null","null","null","null","null","null","[1,3]","","",""
"","canvas-keyboard-response","208","240648","0.0-6.0-6.28","575","","","","","clear_screen","null","null","","","critical","d","t","c","154.6796","220.0396","164","240","240","164","spektor","0.14","h","164","240","240","164","154.6796","220.0396","39360","39360","34035.6388","dc","null","null","null","null","null","null","[1,3]","","",""
"","canvas-keyboard-response","209","240849","0.0-6.0-0.29","575","","","","","pre trial waiting period","null","null","","","critical","c","d","t","164","240","227.1683","158.0083","240","164","trueblood","0.09","w","240","164","164","240","227.1683","158.0083","39360","39360","35894.4834","tc","null","null","null","null","null","null","[3,1]","443.61879602104585","506.83457176210294","514.9720035788831"
"","canvas-keyboard-response","210","240868","0.0-6.0-1.29","575","","","","","clear_screen","null","null","","","critical","c","d","t","164","240","227.1683","158.0083","240","164","trueblood","0.09","w","240","164","164","240","227.1683","158.0083","39360","39360","35894.4834","tc","null","null","null","null","null","null","[3,1]","443.61879602104585","506.83457176210294","514.9720035788831"
"","canvas-keyboard-response","211","241377","0.0-6.0-2.29","575","","","","","rectangles no change","null","null","","","critical","c","d","t","164","240","227.1683","158.0083","240","164","trueblood","0.09","w","240","164","164","240","227.1683","158.0083","39360","39360","35894.4834","tc","null","null","null","null","null","null","[3,1]","443.61879602104585","506.83457176210294","514.9720035788831"
"","canvas-keyboard-response","212","242712","0.0-6.0-3.29","575","","","","","rectangles with change","null","null","","","critical","c","d","t","164","240","227.1683","158.0083","240","164","trueblood","0.09","w","240","164","164","240","227.1683","158.0083","39360","39360","35894.4834","tc","null","null","null","null","null","null","[3,1]","443.61879602104585","506.83457176210294","514.9720035788831"
"","canvas-keyboard-response","213","242732","0.0-6.0-4.29","575","","","","","clear_screen","null","null","","","critical","c","d","t","164","240","227.1683","158.0083","240","164","trueblood","0.09","w","240","164","164","240","227.1683","158.0083","39360","39360","35894.4834","tc","null","null","null","null","null","null","[3,1]","443.61879602104585","506.83457176210294","514.9720035788831"
"","canvas-keyboard-response","214","243205","0.0-6.0-5.29","575","","","","","make choice","466","1","","","critical","c","d","t","164","240","227.1683","158.0083","240","164","trueblood","0.09","w","240","164","164","240","227.1683","158.0083","39360","39360","35894.4834","tc","null","null","null","null","null","null","[3,1]","","",""
"","canvas-keyboard-response","215","243223","0.0-6.0-6.29","575","","","","","clear_screen","null","null","","","critical","c","d","t","164","240","227.1683","158.0083","240","164","trueblood","0.09","w","240","164","164","240","227.1683","158.0083","39360","39360","35894.4834","tc","null","null","null","null","null","null","[3,1]","","",""
"","canvas-keyboard-response","216","243424","0.0-6.0-0.30","575","","","","","pre trial waiting period","null","null","","","critical","t","c","d","240","164","164","240","232.8713","160.6713","spektor","0.05","w","240","164","164","240","232.8713","160.6713","39360","39360","37415.7294","tc","null","null","null","null","null","null","[1,2]","542.5456611243716","135.0037464349642","543.1167377115103"
"","canvas-keyboard-response","217","243444","0.0-6.0-1.30","575","","","","","clear_screen","null","null","","","critical","t","c","d","240","164","164","240","232.8713","160.6713","spektor","0.05","w","240","164","164","240","232.8713","160.6713","39360","39360","37415.7294","tc","null","null","null","null","null","null","[1,2]","542.5456611243716","135.0037464349642","543.1167377115103"
"","canvas-keyboard-response","218","243952","0.0-6.0-2.30","575","","","","","rectangles no change","null","null","","","critical","t","c","d","240","164","164","240","232.8713","160.6713","spektor","0.05","w","240","164","164","240","232.8713","160.6713","39360","39360","37415.7294","tc","null","null","null","null","null","null","[1,2]","542.5456611243716","135.0037464349642","543.1167377115103"
"","canvas-keyboard-response","219","245288","0.0-6.0-3.30","575","","","","","rectangles with change","null","null","","","critical","t","c","d","240","164","164","240","232.8713","160.6713","spektor","0.05","w","240","164","164","240","232.8713","160.6713","39360","39360","37415.7294","tc","null","null","null","null","null","null","[1,2]","542.5456611243716","135.0037464349642","543.1167377115103"
"","canvas-keyboard-response","220","245310","0.0-6.0-4.30","575","","","","","clear_screen","null","null","","","critical","t","c","d","240","164","164","240","232.8713","160.6713","spektor","0.05","w","240","164","164","240","232.8713","160.6713","39360","39360","37415.7294","tc","null","null","null","null","null","null","[1,2]","542.5456611243716","135.0037464349642","543.1167377115103"
"","canvas-keyboard-response","221","245574","0.0-6.0-5.30","575","","","","","make choice","253","2","","","critical","t","c","d","240","164","164","240","232.8713","160.6713","spektor","0.05","w","240","164","164","240","232.8713","160.6713","39360","39360","37415.7294","tc","null","null","null","null","null","null","[1,2]","","",""
"","canvas-keyboard-response","222","245592","0.0-6.0-6.30","575","","","","","clear_screen","null","null","","","critical","t","c","d","240","164","164","240","232.8713","160.6713","spektor","0.05","w","240","164","164","240","232.8713","160.6713","39360","39360","37415.7294","tc","null","null","null","null","null","null","[1,2]","","",""
"","canvas-keyboard-response","223","245792","0.0-6.0-0.31","575","","","","","pre trial waiting period","null","null","","","critical","c","t","d","240","164","164","240","164","240","spektor","0","h","164","240","240","164","164","240","39360","39360","39360","dc","null","null","null","null","null","null","[3,1]","518.2593038253508","137.49309491568408","459.8028018382995"
"","canvas-keyboard-response","224","245814","0.0-6.0-1.31","575","","","","","clear_screen","null","null","","","critical","c","t","d","240","164","164","240","164","240","spektor","0","h","164","240","240","164","164","240","39360","39360","39360","dc","null","null","null","null","null","null","[3,1]","518.2593038253508","137.49309491568408","459.8028018382995"
"","canvas-keyboard-response","225","246323","0.0-6.0-2.31","575","","","","","rectangles no change","null","null","","","critical","c","t","d","240","164","164","240","164","240","spektor","0","h","164","240","240","164","164","240","39360","39360","39360","dc","null","null","null","null","null","null","[3,1]","518.2593038253508","137.49309491568408","459.8028018382995"
"","canvas-keyboard-response","226","247662","0.0-6.0-3.31","575","","","","","rectangles with change","null","null","","","critical","c","t","d","240","164","164","240","164","240","spektor","0","h","164","240","240","164","164","240","39360","39360","39360","dc","null","null","null","null","null","null","[3,1]","518.2593038253508","137.49309491568408","459.8028018382995"
"","canvas-keyboard-response","227","247682","0.0-6.0-4.31","575","","","","","clear_screen","null","null","","","critical","c","t","d","240","164","164","240","164","240","spektor","0","h","164","240","240","164","164","240","39360","39360","39360","dc","null","null","null","null","null","null","[3,1]","518.2593038253508","137.49309491568408","459.8028018382995"
"","canvas-keyboard-response","228","248099","0.0-6.0-5.31","575","","","","","make choice","409","3","","","critical","c","t","d","240","164","164","240","164","240","spektor","0","h","164","240","240","164","164","240","39360","39360","39360","dc","null","null","null","null","null","null","[3,1]","","",""
"","canvas-keyboard-response","229","248118","0.0-6.0-6.31","575","","","","","clear_screen","null","null","","","critical","c","t","d","240","164","164","240","164","240","spektor","0","h","164","240","240","164","164","240","39360","39360","39360","dc","null","null","null","null","null","null","[3,1]","","",""
"","canvas-keyboard-response","230","248320","0.0-6.0-0.32","575","","","","","pre trial waiting period","null","null","","","catch","l","sw","sh","257","212","192","176","210","197","trueblood","null","null","null","null","null","null","null","null","null","null","null","","180","200","260","200","36000","52000","[1,3]","482.6768532988371","478.54669830440986","453.3285001932285"
"","canvas-keyboard-response","231","248343","0.0-6.0-1.32","575","","","","","clear_screen","null","null","","","catch","l","sw","sh","257","212","192","176","210","197","trueblood","null","null","null","null","null","null","null","null","null","null","null","","180","200","260","200","36000","52000","[1,3]","482.6768532988371","478.54669830440986","453.3285001932285"
"","canvas-keyboard-response","232","248851","0.0-6.0-2.32","575","","","","","rectangles no change","null","null","","","catch","l","sw","sh","257","212","192","176","210","197","trueblood","null","null","null","null","null","null","null","null","null","null","null","","180","200","260","200","36000","52000","[1,3]","482.6768532988371","478.54669830440986","453.3285001932285"
"","canvas-keyboard-response","233","250191","0.0-6.0-3.32","575","","","","","rectangles with change","null","null","","","catch","l","sw","sh","257","212","192","176","210","197","trueblood","null","null","null","null","null","null","null","null","null","null","null","","180","200","260","200","36000","52000","[1,3]","482.6768532988371","478.54669830440986","453.3285001932285"
"","canvas-keyboard-response","234","250214","0.0-6.0-4.32","575","","","","","clear_screen","null","null","","","catch","l","sw","sh","257","212","192","176","210","197","trueblood","null","null","null","null","null","null","null","null","null","null","null","","180","200","260","200","36000","52000","[1,3]","482.6768532988371","478.54669830440986","453.3285001932285"
"","canvas-keyboard-response","235","250597","0.0-6.0-5.32","575","","","","","make choice","377","1","","","catch","l","sw","sh","257","212","192","176","210","197","trueblood","null","null","null","null","null","null","null","null","null","null","null","","180","200","260","200","36000","52000","[1,3]","","",""
"","canvas-keyboard-response","236","250618","0.0-6.0-6.32","575","","","","","clear_screen","null","null","","","catch","l","sw","sh","257","212","192","176","210","197","trueblood","null","null","null","null","null","null","null","null","null","null","null","","180","200","260","200","36000","52000","[1,3]","","",""
"","canvas-keyboard-response","237","250819","0.0-6.0-0.33","575","","","","","pre trial waiting period","null","null","","","critical","t","d","c","164","240","164","240","240","164","spektor","0","h","164","240","240","164","164","240","39360","39360","39360","td","null","null","null","null","null","null","[1,2]","480.67239604365426","113.57302947708601","506.79980586183973"
"","canvas-keyboard-response","238","250839","0.0-6.0-1.33","575","","","","","clear_screen","null","null","","","critical","t","d","c","164","240","164","240","240","164","spektor","0","h","164","240","240","164","164","240","39360","39360","39360","td","null","null","null","null","null","null","[1,2]","480.67239604365426","113.57302947708601","506.79980586183973"
"","canvas-keyboard-response","239","251347","0.0-6.0-2.33","575","","","","","rectangles no change","null","null","","","critical","t","d","c","164","240","164","240","240","164","spektor","0","h","164","240","240","164","164","240","39360","39360","39360","td","null","null","null","null","null","null","[1,2]","480.67239604365426","113.57302947708601","506.79980586183973"
"","canvas-keyboard-response","240","252684","0.0-6.0-3.33","575","","","","","rectangles with change","null","null","","","critical","t","d","c","164","240","164","240","240","164","spektor","0","h","164","240","240","164","164","240","39360","39360","39360","td","null","null","null","null","null","null","[1,2]","480.67239604365426","113.57302947708601","506.79980586183973"
"","canvas-keyboard-response","241","252707","0.0-6.0-4.33","575","","","","","clear_screen","null","null","","","critical","t","d","c","164","240","164","240","240","164","spektor","0","h","164","240","240","164","164","240","39360","39360","39360","td","null","null","null","null","null","null","[1,2]","480.67239604365426","113.57302947708601","506.79980586183973"
"","canvas-keyboard-response","242","253019","0.0-6.0-5.33","575","","","","","make choice","308","1","","","critical","t","d","c","164","240","164","240","240","164","spektor","0","h","164","240","240","164","164","240","39360","39360","39360","td","null","null","null","null","null","null","[1,2]","","",""
"","canvas-keyboard-response","243","253039","0.0-6.0-6.33","575","","","","","clear_screen","null","null","","","critical","t","d","c","164","240","164","240","240","164","spektor","0","h","164","240","240","164","164","240","39360","39360","39360","td","null","null","null","null","null","null","[1,2]","","",""
"","canvas-keyboard-response","244","253239","0.0-6.0-0.34","575","","","","","pre trial waiting period","null","null","","","critical","t","c","d","164","240","240","164","154.6796","220.0396","spektor","0.14","h","164","240","240","164","154.6796","220.0396","39360","39360","34035.6388","td","null","null","null","null","null","null","[1,3]","504.83376869802294","161.65649938176824","480.6604462450632"
"","canvas-keyboard-response","245","253260","0.0-6.0-1.34","575","","","","","clear_screen","null","null","","","critical","t","c","d","164","240","240","164","154.6796","220.0396","spektor","0.14","h","164","240","240","164","154.6796","220.0396","39360","39360","34035.6388","td","null","null","null","null","null","null","[1,3]","504.83376869802294","161.65649938176824","480.6604462450632"
"","canvas-keyboard-response","246","253769","0.0-6.0-2.34","575","","","","","rectangles no change","null","null","","","critical","t","c","d","164","240","240","164","154.6796","220.0396","spektor","0.14","h","164","240","240","164","154.6796","220.0396","39360","39360","34035.6388","td","null","null","null","null","null","null","[1,3]","504.83376869802294","161.65649938176824","480.6604462450632"
"","canvas-keyboard-response","247","255108","0.0-6.0-3.34","575","","","","","rectangles with change","null","null","","","critical","t","c","d","164","240","240","164","154.6796","220.0396","spektor","0.14","h","164","240","240","164","154.6796","220.0396","39360","39360","34035.6388","td","null","null","null","null","null","null","[1,3]","504.83376869802294","161.65649938176824","480.6604462450632"
"","canvas-keyboard-response","248","255130","0.0-6.0-4.34","575","","","","","clear_screen","null","null","","","critical","t","c","d","164","240","240","164","154.6796","220.0396","spektor","0.14","h","164","240","240","164","154.6796","220.0396","39360","39360","34035.6388","td","null","null","null","null","null","null","[1,3]","504.83376869802294","161.65649938176824","480.6604462450632"
"","canvas-keyboard-response","249","255348","0.0-6.0-5.34","575","","","","","make choice","213","1","","","critical","t","c","d","164","240","240","164","154.6796","220.0396","spektor","0.14","h","164","240","240","164","154.6796","220.0396","39360","39360","34035.6388","td","null","null","null","null","null","null","[1,3]","","",""
"","canvas-keyboard-response","250","255367","0.0-6.0-6.34","575","","","","","clear_screen","null","null","","","critical","t","c","d","164","240","240","164","154.6796","220.0396","spektor","0.14","h","164","240","240","164","154.6796","220.0396","39360","39360","34035.6388","td","null","null","null","null","null","null","[1,3]","","",""
"","canvas-keyboard-response","251","255568","0.0-6.0-0.35","575","","","","","pre trial waiting period","null","null","","","critical","c","d","t","240","164","158.0083","227.1683","164","240","spektor","0.09","h","164","240","240","164","158.0083","227.1683","39360","39360","35894.4834","td","null","null","null","null","null","null","[3,2]","507.3703029156025","130.48640686333133","470.61169700447357"
"","canvas-keyboard-response","252","255588","0.0-6.0-1.35","575","","","","","clear_screen","null","null","","","critical","c","d","t","240","164","158.0083","227.1683","164","240","spektor","0.09","h","164","240","240","164","158.0083","227.1683","39360","39360","35894.4834","td","null","null","null","null","null","null","[3,2]","507.3703029156025","130.48640686333133","470.61169700447357"
"","canvas-keyboard-response","253","256097","0.0-6.0-2.35","575","","","","","rectangles no change","null","null","","","critical","c","d","t","240","164","158.0083","227.1683","164","240","spektor","0.09","h","164","240","240","164","158.0083","227.1683","39360","39360","35894.4834","td","null","null","null","null","null","null","[3,2]","507.3703029156025","130.48640686333133","470.61169700447357"
"","canvas-keyboard-response","254","257438","0.0-6.0-3.35","575","","","","","rectangles with change","null","null","","","critical","c","d","t","240","164","158.0083","227.1683","164","240","spektor","0.09","h","164","240","240","164","158.0083","227.1683","39360","39360","35894.4834","td","null","null","null","null","null","null","[3,2]","507.3703029156025","130.48640686333133","470.61169700447357"
"","canvas-keyboard-response","255","257462","0.0-6.0-4.35","575","","","","","clear_screen","null","null","","","critical","c","d","t","240","164","158.0083","227.1683","164","240","spektor","0.09","h","164","240","240","164","158.0083","227.1683","39360","39360","35894.4834","td","null","null","null","null","null","null","[3,2]","507.3703029156025","130.48640686333133","470.61169700447357"
"","canvas-keyboard-response","256","257717","0.0-6.0-5.35","575","","","","","make choice","248","3","","","critical","c","d","t","240","164","158.0083","227.1683","164","240","spektor","0.09","h","164","240","240","164","158.0083","227.1683","39360","39360","35894.4834","td","null","null","null","null","null","null","[3,2]","","",""
"","canvas-keyboard-response","257","257736","0.0-6.0-6.35","575","","","","","clear_screen","null","null","","","critical","c","d","t","240","164","158.0083","227.1683","164","240","spektor","0.09","h","164","240","240","164","158.0083","227.1683","39360","39360","35894.4834","td","null","null","null","null","null","null","[3,2]","","",""
"","canvas-keyboard-response","258","257937","0.0-6.0-0.36","575","","","","","pre trial waiting period","null","null","","","critical","d","c","t","240","164","164","240","240","164","trueblood","0","w","240","164","164","240","240","164","39360","39360","39360","tc","null","null","null","null","null","null","[3,2]","468.7320293053977","452.39774423785155","504.2279881548177"
"","canvas-keyboard-response","259","257959","0.0-6.0-1.36","575","","","","","clear_screen","null","null","","","critical","d","c","t","240","164","164","240","240","164","trueblood","0","w","240","164","164","240","240","164","39360","39360","39360","tc","null","null","null","null","null","null","[3,2]","468.7320293053977","452.39774423785155","504.2279881548177"
"","canvas-keyboard-response","260","258471","0.0-6.0-2.36","575","","","","","rectangles no change","null","null","","","critical","d","c","t","240","164","164","240","240","164","trueblood","0","w","240","164","164","240","240","164","39360","39360","39360","tc","null","null","null","null","null","null","[3,2]","468.7320293053977","452.39774423785155","504.2279881548177"
"","canvas-keyboard-response","261","259807","0.0-6.0-3.36","575","","","","","rectangles with change","null","null","","","critical","d","c","t","240","164","164","240","240","164","trueblood","0","w","240","164","164","240","240","164","39360","39360","39360","tc","null","null","null","null","null","null","[3,2]","468.7320293053977","452.39774423785155","504.2279881548177"
"","canvas-keyboard-response","262","259826","0.0-6.0-4.36","575","","","","","clear_screen","null","null","","","critical","d","c","t","240","164","164","240","240","164","trueblood","0","w","240","164","164","240","240","164","39360","39360","39360","tc","null","null","null","null","null","null","[3,2]","468.7320293053977","452.39774423785155","504.2279881548177"
"","canvas-keyboard-response","263","260109","0.0-6.0-5.36","575","","","","","make choice","278","2","","","critical","d","c","t","240","164","164","240","240","164","trueblood","0","w","240","164","164","240","240","164","39360","39360","39360","tc","null","null","null","null","null","null","[3,2]","","",""
"","canvas-keyboard-response","264","260128","0.0-6.0-6.36","575","","","","","clear_screen","null","null","","","critical","d","c","t","240","164","164","240","240","164","trueblood","0","w","240","164","164","240","240","164","39360","39360","39360","tc","null","null","null","null","null","null","[3,2]","","",""
"","canvas-keyboard-response","265","260328","0.0-6.0-0.37","575","","","","","pre trial waiting period","null","null","","","critical","t","d","c","240","164","237.1485","162.6685","164","240","trueblood","0.02","w","240","164","164","240","237.1485","162.6685","39360","39360","38576.5967","tc","null","null","null","null","null","null","[1,3]","473.8487904018297","483.056383678452","468.68662499724456"
"","canvas-keyboard-response","266","260350","0.0-6.0-1.37","575","","","","","clear_screen","null","null","","","critical","t","d","c","240","164","237.1485","162.6685","164","240","trueblood","0.02","w","240","164","164","240","237.1485","162.6685","39360","39360","38576.5967","tc","null","null","null","null","null","null","[1,3]","473.8487904018297","483.056383678452","468.68662499724456"
"","canvas-keyboard-response","267","260856","0.0-6.0-2.37","575","","","","","rectangles no change","null","null","","","critical","t","d","c","240","164","237.1485","162.6685","164","240","trueblood","0.02","w","240","164","164","240","237.1485","162.6685","39360","39360","38576.5967","tc","null","null","null","null","null","null","[1,3]","473.8487904018297","483.056383678452","468.68662499724456"
