"success","trial_type","trial_index","time_elapsed","internal_node_id","sub_n","timeout","failed_images","failed_audio","failed_video","screen_id","rt","response","stimulus","view_history","trial","r1","r2","r3","w1","h1","w2","h2","w3","h3","display","tdd","tdo","tw","th","cw","ch","dw","dh","ta","ca","da","probe","csls","csss","clls","clss","sa","la","probe_rects","r1yloc","r2yloc","r3yloc"
"true","fullscreen","0","2236","0.0-0.0","567","","","","","","","","","","","","","","","","","","","","","","","","","","","","","","","","","","","","","","","","","",""
"true","preload","1","2255","0.0-1.0","567","false","[]","[]","[]","img preload","","","","","","","","","","","","","","","","","","","","","","","","","","","","","","","","","","","","",""
"","survey-html-form","2","4893","0.0-2.0","567","","","","","enter-sub-number","2631","{""response"":""567""}","","","","","","","","","","","","","","","","","","","","","","","","","","","","","","","","","","",""
"","image-button-response","3","32372","0.0-3.0","567","","","","","","27411","0","consent.png","","","","","","","","","","","","","","","","","","","","","","","","","","","","","","","","","",""
"","html-button-response","4","43810","0.0-4.0","567","","","","","intro mssg","11432","0","<div style= ""font-size:25px;"" <p> <strong> Welcome! </strong><br> <p style=""color:#8B0000; font-size:25px;""><strong> Please do NOT exit full screen until you are done with the experiment. </strong> </p><p style=""font-size:25px;color:#8B0000;""> <strong> Your data will be lost <br> if you try to go back or refresh the page after the experiment starts. Feel free to click ""previous"" during the instructions, however.</strong> </p><br><p> <strong> Thanks in advance for your contribution to our research! </strong></p>","","","","","","","","","","","","","","","","","","","","","","","","","","","","","","","","","",""
"","instructions","5","80132","0.0-5.0","567","","","","","instructions","36316","","","[{""page_index"":0,""viewing_time"":6203},{""page_index"":1,""viewing_time"":12584},{""page_index"":2,""viewing_time"":3768},{""page_index"":3,""viewing_time"":9047},{""page_index"":4,""viewing_time"":2098},{""page_index"":5,""viewing_time"":1199},{""page_index"":6,""viewing_time"":840},{""page_index"":7,""viewing_time"":576}]","","","","","","","","","","","","","","","","","","","","","","","","","","","","","","","","",""
"","canvas-keyboard-response","6","80338","0.0-6.0-0.0","567","","","","","pre trial waiting period","null","null","","","critical","t","c","d","240","164","164","240","237.1485","162.6685","trueblood","0.02","w","240","164","164","240","237.1485","162.6685","39360","39360","38576.5967","dc","null","null","null","null","null","null","[3,2]","510.19077453644474","426.0318321170623","475.044605875263"
"","canvas-keyboard-response","7","80361","0.0-6.0-1.0","567","","","","","clear_screen","null","null","","","critical","t","c","d","240","164","164","240","237.1485","162.6685","trueblood","0.02","w","240","164","164","240","237.1485","162.6685","39360","39360","38576.5967","dc","null","null","null","null","null","null","[3,2]","510.19077453644474","426.0318321170623","475.044605875263"
"","canvas-keyboard-response","8","80872","0.0-6.0-2.0","567","","","","","rectangles no change","null","null","","","critical","t","c","d","240","164","164","240","237.1485","162.6685","trueblood","0.02","w","240","164","164","240","237.1485","162.6685","39360","39360","38576.5967","dc","null","null","null","null","null","null","[3,2]","510.19077453644474","426.0318321170623","475.044605875263"
"","canvas-keyboard-response","9","82209","0.0-6.0-3.0","567","","","","","rectangles with change","null","null","","","critical","t","c","d","240","164","164","240","237.1485","162.6685","trueblood","0.02","w","240","164","164","240","237.1485","162.6685","39360","39360","38576.5967","dc","null","null","null","null","null","null","[3,2]","510.19077453644474","426.0318321170623","475.044605875263"
"","canvas-keyboard-response","10","82228","0.0-6.0-4.0","567","","","","","clear_screen","null","null","","","critical","t","c","d","240","164","164","240","237.1485","162.6685","trueblood","0.02","w","240","164","164","240","237.1485","162.6685","39360","39360","38576.5967","dc","null","null","null","null","null","null","[3,2]","510.19077453644474","426.0318321170623","475.044605875263"
"","canvas-keyboard-response","11","84999","0.0-6.0-5.0","567","","","","","make choice","2761","3","","","critical","t","c","d","240","164","164","240","237.1485","162.6685","trueblood","0.02","w","240","164","164","240","237.1485","162.6685","39360","39360","38576.5967","dc","null","null","null","null","null","null","[3,2]","","",""
"","canvas-keyboard-response","12","85018","0.0-6.0-6.0","567","","","","","clear_screen","null","null","","","critical","t","c","d","240","164","164","240","237.1485","162.6685","trueblood","0.02","w","240","164","164","240","237.1485","162.6685","39360","39360","38576.5967","dc","null","null","null","null","null","null","[3,2]","","",""
"","canvas-keyboard-response","13","85219","0.0-6.0-0.1","567","","","","","pre trial waiting period","null","null","","","critical","d","t","c","227.1683","158.0083","240","164","164","240","trueblood","0.09","w","240","164","164","240","227.1683","158.0083","39360","39360","35894.4834","tc","null","null","null","null","null","null","[2,3]","504.48928233974294","498.3947832339262","465.1153652433951"
"","canvas-keyboard-response","14","85243","0.0-6.0-1.1","567","","","","","clear_screen","null","null","","","critical","d","t","c","227.1683","158.0083","240","164","164","240","trueblood","0.09","w","240","164","164","240","227.1683","158.0083","39360","39360","35894.4834","tc","null","null","null","null","null","null","[2,3]","504.48928233974294","498.3947832339262","465.1153652433951"
"","canvas-keyboard-response","15","85752","0.0-6.0-2.1","567","","","","","rectangles no change","null","null","","","critical","d","t","c","227.1683","158.0083","240","164","164","240","trueblood","0.09","w","240","164","164","240","227.1683","158.0083","39360","39360","35894.4834","tc","null","null","null","null","null","null","[2,3]","504.48928233974294","498.3947832339262","465.1153652433951"
"","canvas-keyboard-response","16","87090","0.0-6.0-3.1","567","","","","","rectangles with change","null","null","","","critical","d","t","c","227.1683","158.0083","240","164","164","240","trueblood","0.09","w","240","164","164","240","227.1683","158.0083","39360","39360","35894.4834","tc","null","null","null","null","null","null","[2,3]","504.48928233974294","498.3947832339262","465.1153652433951"
"","canvas-keyboard-response","17","87113","0.0-6.0-4.1","567","","","","","clear_screen","null","null","","","critical","d","t","c","227.1683","158.0083","240","164","164","240","trueblood","0.09","w","240","164","164","240","227.1683","158.0083","39360","39360","35894.4834","tc","null","null","null","null","null","null","[2,3]","504.48928233974294","498.3947832339262","465.1153652433951"
"","canvas-keyboard-response","18","88559","0.0-6.0-5.1","567","","","","","make choice","1434","3","","","critical","d","t","c","227.1683","158.0083","240","164","164","240","trueblood","0.09","w","240","164","164","240","227.1683","158.0083","39360","39360","35894.4834","tc","null","null","null","null","null","null","[2,3]","","",""
"","canvas-keyboard-response","19","88581","0.0-6.0-6.1","567","","","","","clear_screen","null","null","","","critical","d","t","c","227.1683","158.0083","240","164","164","240","trueblood","0.09","w","240","164","164","240","227.1683","158.0083","39360","39360","35894.4834","tc","null","null","null","null","null","null","[2,3]","","",""
"","canvas-keyboard-response","20","88782","0.0-6.0-0.2","567","","","","","pre trial waiting period","null","null","","","critical","d","c","t","237.1485","162.6685","164","240","240","164","spektor","0.02","w","240","164","164","240","237.1485","162.6685","39360","39360","38576.5967","tc","null","null","null","null","null","null","[3,2]","514.8041787757388","120.8299960247637","504.4029768616569"
"","canvas-keyboard-response","21","88806","0.0-6.0-1.2","567","","","","","clear_screen","null","null","","","critical","d","c","t","237.1485","162.6685","164","240","240","164","spektor","0.02","w","240","164","164","240","237.1485","162.6685","39360","39360","38576.5967","tc","null","null","null","null","null","null","[3,2]","514.8041787757388","120.8299960247637","504.4029768616569"
"","canvas-keyboard-response","22","89316","0.0-6.0-2.2","567","","","","","rectangles no change","null","null","","","critical","d","c","t","237.1485","162.6685","164","240","240","164","spektor","0.02","w","240","164","164","240","237.1485","162.6685","39360","39360","38576.5967","tc","null","null","null","null","null","null","[3,2]","514.8041787757388","120.8299960247637","504.4029768616569"
"","canvas-keyboard-response","23","90653","0.0-6.0-3.2","567","","","","","rectangles with change","null","null","","","critical","d","c","t","237.1485","162.6685","164","240","240","164","spektor","0.02","w","240","164","164","240","237.1485","162.6685","39360","39360","38576.5967","tc","null","null","null","null","null","null","[3,2]","514.8041787757388","120.8299960247637","504.4029768616569"
"","canvas-keyboard-response","24","90678","0.0-6.0-4.2","567","","","","","clear_screen","null","null","","","critical","d","c","t","237.1485","162.6685","164","240","240","164","spektor","0.02","w","240","164","164","240","237.1485","162.6685","39360","39360","38576.5967","tc","null","null","null","null","null","null","[3,2]","514.8041787757388","120.8299960247637","504.4029768616569"
"","canvas-keyboard-response","25","91381","0.0-6.0-5.2","567","","","","","make choice","697","2","","","critical","d","c","t","237.1485","162.6685","164","240","240","164","spektor","0.02","w","240","164","164","240","237.1485","162.6685","39360","39360","38576.5967","tc","null","null","null","null","null","null","[3,2]","","",""
"","canvas-keyboard-response","26","91399","0.0-6.0-6.2","567","","","","","clear_screen","null","null","","","critical","d","c","t","237.1485","162.6685","164","240","240","164","spektor","0.02","w","240","164","164","240","237.1485","162.6685","39360","39360","38576.5967","tc","null","null","null","null","null","null","[3,2]","","",""
"","canvas-keyboard-response","27","91600","0.0-6.0-0.3","567","","","","","pre trial waiting period","null","null","","","catch","l","sw","sh","162","228","144","236","177","217","trueblood","null","null","null","null","null","null","null","null","null","null","null","","180","200","260","200","36000","52000","[1,3]","434.6188104434066","423.9757066798558","448.97903285233133"
"","canvas-keyboard-response","28","91619","0.0-6.0-1.3","567","","","","","clear_screen","null","null","","","catch","l","sw","sh","162","228","144","236","177","217","trueblood","null","null","null","null","null","null","null","null","null","null","null","","180","200","260","200","36000","52000","[1,3]","434.6188104434066","423.9757066798558","448.97903285233133"
"","canvas-keyboard-response","29","92126","0.0-6.0-2.3","567","","","","","rectangles no change","null","null","","","catch","l","sw","sh","162","228","144","236","177","217","trueblood","null","null","null","null","null","null","null","null","null","null","null","","180","200","260","200","36000","52000","[1,3]","434.6188104434066","423.9757066798558","448.97903285233133"
"","canvas-keyboard-response","30","93464","0.0-6.0-3.3","567","","","","","rectangles with change","null","null","","","catch","l","sw","sh","162","228","144","236","177","217","trueblood","null","null","null","null","null","null","null","null","null","null","null","","180","200","260","200","36000","52000","[1,3]","434.6188104434066","423.9757066798558","448.97903285233133"
"","canvas-keyboard-response","31","93484","0.0-6.0-4.3","567","","","","","clear_screen","null","null","","","catch","l","sw","sh","162","228","144","236","177","217","trueblood","null","null","null","null","null","null","null","null","null","null","null","","180","200","260","200","36000","52000","[1,3]","434.6188104434066","423.9757066798558","448.97903285233133"
"","canvas-keyboard-response","32","95389","0.0-6.0-5.3","567","","","","","make choice","1900","1","","","catch","l","sw","sh","162","228","144","236","177","217","trueblood","null","null","null","null","null","null","null","null","null","null","null","","180","200","260","200","36000","52000","[1,3]","","",""
"","canvas-keyboard-response","33","95408","0.0-6.0-6.3","567","","","","","clear_screen","null","null","","","catch","l","sw","sh","162","228","144","236","177","217","trueblood","null","null","null","null","null","null","null","null","null","null","null","","180","200","260","200","36000","52000","[1,3]","","",""
"","canvas-keyboard-response","34","95609","0.0-6.0-0.4","567","","","","","pre trial waiting period","null","null","","","critical","d","c","t","164","240","240","164","164","240","trueblood","0","h","164","240","240","164","164","240","39360","39360","39360","dc","null","null","null","null","null","null","[1,2]","432.92679481773155","500.789927117403","460.1725695692008"
"","canvas-keyboard-response","35","95631","0.0-6.0-1.4","567","","","","","clear_screen","null","null","","","critical","d","c","t","164","240","240","164","164","240","trueblood","0","h","164","240","240","164","164","240","39360","39360","39360","dc","null","null","null","null","null","null","[1,2]","432.92679481773155","500.789927117403","460.1725695692008"
"","canvas-keyboard-response","36","96139","0.0-6.0-2.4","567","","","","","rectangles no change","null","null","","","critical","d","c","t","164","240","240","164","164","240","trueblood","0","h","164","240","240","164","164","240","39360","39360","39360","dc","null","null","null","null","null","null","[1,2]","432.92679481773155","500.789927117403","460.1725695692008"
"","canvas-keyboard-response","37","97475","0.0-6.0-3.4","567","","","","","rectangles with change","null","null","","","critical","d","c","t","164","240","240","164","164","240","trueblood","0","h","164","240","240","164","164","240","39360","39360","39360","dc","null","null","null","null","null","null","[1,2]","432.92679481773155","500.789927117403","460.1725695692008"
"","canvas-keyboard-response","38","97495","0.0-6.0-4.4","567","","","","","clear_screen","null","null","","","critical","d","c","t","164","240","240","164","164","240","trueblood","0","h","164","240","240","164","164","240","39360","39360","39360","dc","null","null","null","null","null","null","[1,2]","432.92679481773155","500.789927117403","460.1725695692008"
"","canvas-keyboard-response","39","98255","0.0-6.0-5.4","567","","","","","make choice","752","1","","","critical","d","c","t","164","240","240","164","164","240","trueblood","0","h","164","240","240","164","164","240","39360","39360","39360","dc","null","null","null","null","null","null","[1,2]","","",""
"","canvas-keyboard-response","40","98273","0.0-6.0-6.4","567","","","","","clear_screen","null","null","","","critical","d","c","t","164","240","240","164","164","240","trueblood","0","h","164","240","240","164","164","240","39360","39360","39360","dc","null","null","null","null","null","null","[1,2]","","",""
"","canvas-keyboard-response","41","98475","0.0-6.0-0.5","567","","","","","pre trial waiting period","null","null","","","critical","t","c","d","164","240","240","164","154.6796","220.0396","spektor","0.14","h","164","240","240","164","154.6796","220.0396","39360","39360","34035.6388","tc","null","null","null","null","null","null","[1,2]","457.9961845566398","168.22563890112687","480.0098455556199"
"","canvas-keyboard-response","42","98494","0.0-6.0-1.5","567","","","","","clear_screen","null","null","","","critical","t","c","d","164","240","240","164","154.6796","220.0396","spektor","0.14","h","164","240","240","164","154.6796","220.0396","39360","39360","34035.6388","tc","null","null","null","null","null","null","[1,2]","457.9961845566398","168.22563890112687","480.0098455556199"
"","canvas-keyboard-response","43","99002","0.0-6.0-2.5","567","","","","","rectangles no change","null","null","","","critical","t","c","d","164","240","240","164","154.6796","220.0396","spektor","0.14","h","164","240","240","164","154.6796","220.0396","39360","39360","34035.6388","tc","null","null","null","null","null","null","[1,2]","457.9961845566398","168.22563890112687","480.0098455556199"
"","canvas-keyboard-response","44","100341","0.0-6.0-3.5","567","","","","","rectangles with change","null","null","","","critical","t","c","d","164","240","240","164","154.6796","220.0396","spektor","0.14","h","164","240","240","164","154.6796","220.0396","39360","39360","34035.6388","tc","null","null","null","null","null","null","[1,2]","457.9961845566398","168.22563890112687","480.0098455556199"
"","canvas-keyboard-response","45","100362","0.0-6.0-4.5","567","","","","","clear_screen","null","null","","","critical","t","c","d","164","240","240","164","154.6796","220.0396","spektor","0.14","h","164","240","240","164","154.6796","220.0396","39360","39360","34035.6388","tc","null","null","null","null","null","null","[1,2]","457.9961845566398","168.22563890112687","480.0098455556199"
"","canvas-keyboard-response","46","101070","0.0-6.0-5.5","567","","","","","make choice","701","2","","","critical","t","c","d","164","240","240","164","154.6796","220.0396","spektor","0.14","h","164","240","240","164","154.6796","220.0396","39360","39360","34035.6388","tc","null","null","null","null","null","null","[1,2]","","",""
"","canvas-keyboard-response","47","101088","0.0-6.0-6.5","567","","","","","clear_screen","null","null","","","critical","t","c","d","164","240","240","164","154.6796","220.0396","spektor","0.14","h","164","240","240","164","154.6796","220.0396","39360","39360","34035.6388","tc","null","null","null","null","null","null","[1,2]","","",""
"","canvas-keyboard-response","48","101290","0.0-6.0-0.6","567","","","","","pre trial waiting period","null","null","","","catch","sh","sw","l","191","174","199","239","226","225","spektor","null","null","null","null","null","null","null","null","null","null","null","","180","200","260","200","36000","52000","[2,3]","506.1317961696971","97.26229171466638","467.6446682073209"
"","canvas-keyboard-response","49","101311","0.0-6.0-1.6","567","","","","","clear_screen","null","null","","","catch","sh","sw","l","191","174","199","239","226","225","spektor","null","null","null","null","null","null","null","null","null","null","null","","180","200","260","200","36000","52000","[2,3]","506.1317961696971","97.26229171466638","467.6446682073209"
"","canvas-keyboard-response","50","101819","0.0-6.0-2.6","567","","","","","rectangles no change","null","null","","","catch","sh","sw","l","191","174","199","239","226","225","spektor","null","null","null","null","null","null","null","null","null","null","null","","180","200","260","200","36000","52000","[2,3]","506.1317961696971","97.26229171466638","467.6446682073209"
"","canvas-keyboard-response","51","103155","0.0-6.0-3.6","567","","","","","rectangles with change","null","null","","","catch","sh","sw","l","191","174","199","239","226","225","spektor","null","null","null","null","null","null","null","null","null","null","null","","180","200","260","200","36000","52000","[2,3]","506.1317961696971","97.26229171466638","467.6446682073209"
"","canvas-keyboard-response","52","103177","0.0-6.0-4.6","567","","","","","clear_screen","null","null","","","catch","sh","sw","l","191","174","199","239","226","225","spektor","null","null","null","null","null","null","null","null","null","null","null","","180","200","260","200","36000","52000","[2,3]","506.1317961696971","97.26229171466638","467.6446682073209"
"","canvas-keyboard-response","53","103862","0.0-6.0-5.6","567","","","","","make choice","678","3","","","catch","sh","sw","l","191","174","199","239","226","225","spektor","null","null","null","null","null","null","null","null","null","null","null","","180","200","260","200","36000","52000","[2,3]","","",""
"","canvas-keyboard-response","54","103882","0.0-6.0-6.6","567","","","","","clear_screen","null","null","","","catch","sh","sw","l","191","174","199","239","226","225","spektor","null","null","null","null","null","null","null","null","null","null","null","","180","200","260","200","36000","52000","[2,3]","","",""
"","canvas-keyboard-response","55","104084","0.0-6.0-0.7","567","","","","","pre trial waiting period","null","null","","","critical","c","t","d","240","164","164","240","162.6685","237.1485","trueblood","0.02","h","164","240","240","164","162.6685","237.1485","39360","39360","38576.5967","td","null","null","null","null","null","null","[2,3]","482.42292779397656","439.57139346971735","461.092389152616"
"","canvas-keyboard-response","56","104102","0.0-6.0-1.7","567","","","","","clear_screen","null","null","","","critical","c","t","d","240","164","164","240","162.6685","237.1485","trueblood","0.02","h","164","240","240","164","162.6685","237.1485","39360","39360","38576.5967","td","null","null","null","null","null","null","[2,3]","482.42292779397656","439.57139346971735","461.092389152616"
"","canvas-keyboard-response","57","104613","0.0-6.0-2.7","567","","","","","rectangles no change","null","null","","","critical","c","t","d","240","164","164","240","162.6685","237.1485","trueblood","0.02","h","164","240","240","164","162.6685","237.1485","39360","39360","38576.5967","td","null","null","null","null","null","null","[2,3]","482.42292779397656","439.57139346971735","461.092389152616"
"","canvas-keyboard-response","58","105949","0.0-6.0-3.7","567","","","","","rectangles with change","null","null","","","critical","c","t","d","240","164","164","240","162.6685","237.1485","trueblood","0.02","h","164","240","240","164","162.6685","237.1485","39360","39360","38576.5967","td","null","null","null","null","null","null","[2,3]","482.42292779397656","439.57139346971735","461.092389152616"
"","canvas-keyboard-response","59","105968","0.0-6.0-4.7","567","","","","","clear_screen","null","null","","","critical","c","t","d","240","164","164","240","162.6685","237.1485","trueblood","0.02","h","164","240","240","164","162.6685","237.1485","39360","39360","38576.5967","td","null","null","null","null","null","null","[2,3]","482.42292779397656","439.57139346971735","461.092389152616"
"","canvas-keyboard-response","60","106470","0.0-6.0-5.7","567","","","","","make choice","495","2","","","critical","c","t","d","240","164","164","240","162.6685","237.1485","trueblood","0.02","h","164","240","240","164","162.6685","237.1485","39360","39360","38576.5967","td","null","null","null","null","null","null","[2,3]","","",""
"","canvas-keyboard-response","61","106491","0.0-6.0-6.7","567","","","","","clear_screen","null","null","","","critical","c","t","d","240","164","164","240","162.6685","237.1485","trueblood","0.02","h","164","240","240","164","162.6685","237.1485","39360","39360","38576.5967","td","null","null","null","null","null","null","[2,3]","","",""
"","canvas-keyboard-response","62","106692","0.0-6.0-0.8","567","","","","","pre trial waiting period","null","null","","","catch","sw","l","sh","180","200","234","268","180","149","trueblood","null","null","null","null","null","null","null","null","null","null","null","","180","200","260","200","36000","52000","[2,3]","484.0240255540349","446.94950463629385","498.76274760059675"
"","canvas-keyboard-response","63","106713","0.0-6.0-1.8","567","","","","","clear_screen","null","null","","","catch","sw","l","sh","180","200","234","268","180","149","trueblood","null","null","null","null","null","null","null","null","null","null","null","","180","200","260","200","36000","52000","[2,3]","484.0240255540349","446.94950463629385","498.76274760059675"
"","canvas-keyboard-response","64","107221","0.0-6.0-2.8","567","","","","","rectangles no change","null","null","","","catch","sw","l","sh","180","200","234","268","180","149","trueblood","null","null","null","null","null","null","null","null","null","null","null","","180","200","260","200","36000","52000","[2,3]","484.0240255540349","446.94950463629385","498.76274760059675"
"","canvas-keyboard-response","65","108556","0.0-6.0-3.8","567","","","","","rectangles with change","null","null","","","catch","sw","l","sh","180","200","234","268","180","149","trueblood","null","null","null","null","null","null","null","null","null","null","null","","180","200","260","200","36000","52000","[2,3]","484.0240255540349","446.94950463629385","498.76274760059675"
"","canvas-keyboard-response","66","108576","0.0-6.0-4.8","567","","","","","clear_screen","null","null","","","catch","sw","l","sh","180","200","234","268","180","149","trueblood","null","null","null","null","null","null","null","null","null","null","null","","180","200","260","200","36000","52000","[2,3]","484.0240255540349","446.94950463629385","498.76274760059675"
"","canvas-keyboard-response","67","108990","0.0-6.0-5.8","567","","","","","make choice","408","2","","","catch","sw","l","sh","180","200","234","268","180","149","trueblood","null","null","null","null","null","null","null","null","null","null","null","","180","200","260","200","36000","52000","[2,3]","","",""
"","canvas-keyboard-response","68","109011","0.0-6.0-6.8","567","","","","","clear_screen","null","null","","","catch","sw","l","sh","180","200","234","268","180","149","trueblood","null","null","null","null","null","null","null","null","null","null","null","","180","200","260","200","36000","52000","[2,3]","","",""
"","canvas-keyboard-response","69","109212","0.0-6.0-0.9","567","","","","","pre trial waiting period","null","null","","","catch","sw","sh","l","180","200","227","217","177","277","trueblood","null","null","null","null","null","null","null","null","null","null","null","","180","200","260","200","36000","52000","[2,3]","455.71817721204866","459.58489177180996","419.7472087319395"
"","canvas-keyboard-response","70","109232","0.0-6.0-1.9","567","","","","","clear_screen","null","null","","","catch","sw","sh","l","180","200","227","217","177","277","trueblood","null","null","null","null","null","null","null","null","null","null","null","","180","200","260","200","36000","52000","[2,3]","455.71817721204866","459.58489177180996","419.7472087319395"
"","canvas-keyboard-response","71","109739","0.0-6.0-2.9","567","","","","","rectangles no change","null","null","","","catch","sw","sh","l","180","200","227","217","177","277","trueblood","null","null","null","null","null","null","null","null","null","null","null","","180","200","260","200","36000","52000","[2,3]","455.71817721204866","459.58489177180996","419.7472087319395"
"","canvas-keyboard-response","72","111076","0.0-6.0-3.9","567","","","","","rectangles with change","null","null","","","catch","sw","sh","l","180","200","227","217","177","277","trueblood","null","null","null","null","null","null","null","null","null","null","null","","180","200","260","200","36000","52000","[2,3]","455.71817721204866","459.58489177180996","419.7472087319395"
"","canvas-keyboard-response","73","111093","0.0-6.0-4.9","567","","","","","clear_screen","null","null","","","catch","sw","sh","l","180","200","227","217","177","277","trueblood","null","null","null","null","null","null","null","null","null","null","null","","180","200","260","200","36000","52000","[2,3]","455.71817721204866","459.58489177180996","419.7472087319395"
"","canvas-keyboard-response","74","111535","0.0-6.0-5.9","567","","","","","make choice","435","2","","","catch","sw","sh","l","180","200","227","217","177","277","trueblood","null","null","null","null","null","null","null","null","null","null","null","","180","200","260","200","36000","52000","[2,3]","","",""
"","canvas-keyboard-response","75","111555","0.0-6.0-6.9","567","","","","","clear_screen","null","null","","","catch","sw","sh","l","180","200","227","217","177","277","trueblood","null","null","null","null","null","null","null","null","null","null","null","","180","200","260","200","36000","52000","[2,3]","","",""
"","canvas-keyboard-response","76","111755","0.0-6.0-0.10","567","","","","","pre trial waiting period","null","null","","","critical","t","d","c","164","240","154.6796","220.0396","240","164","trueblood","0.14","h","164","240","240","164","154.6796","220.0396","39360","39360","34035.6388","dc","null","null","null","null","null","null","[2,3]","433.51738169800143","455.8185454856122","516.800299453326"
"","canvas-keyboard-response","77","111776","0.0-6.0-1.10","567","","","","","clear_screen","null","null","","","critical","t","d","c","164","240","154.6796","220.0396","240","164","trueblood","0.14","h","164","240","240","164","154.6796","220.0396","39360","39360","34035.6388","dc","null","null","null","null","null","null","[2,3]","433.51738169800143","455.8185454856122","516.800299453326"
"","canvas-keyboard-response","78","112284","0.0-6.0-2.10","567","","","","","rectangles no change","null","null","","","critical","t","d","c","164","240","154.6796","220.0396","240","164","trueblood","0.14","h","164","240","240","164","154.6796","220.0396","39360","39360","34035.6388","dc","null","null","null","null","null","null","[2,3]","433.51738169800143","455.8185454856122","516.800299453326"
"","canvas-keyboard-response","79","113622","0.0-6.0-3.10","567","","","","","rectangles with change","null","null","","","critical","t","d","c","164","240","154.6796","220.0396","240","164","trueblood","0.14","h","164","240","240","164","154.6796","220.0396","39360","39360","34035.6388","dc","null","null","null","null","null","null","[2,3]","433.51738169800143","455.8185454856122","516.800299453326"
"","canvas-keyboard-response","80","113646","0.0-6.0-4.10","567","","","","","clear_screen","null","null","","","critical","t","d","c","164","240","154.6796","220.0396","240","164","trueblood","0.14","h","164","240","240","164","154.6796","220.0396","39360","39360","34035.6388","dc","null","null","null","null","null","null","[2,3]","433.51738169800143","455.8185454856122","516.800299453326"
"","canvas-keyboard-response","81","114278","0.0-6.0-5.10","567","","","","","make choice","625","3","","","critical","t","d","c","164","240","154.6796","220.0396","240","164","trueblood","0.14","h","164","240","240","164","154.6796","220.0396","39360","39360","34035.6388","dc","null","null","null","null","null","null","[2,3]","","",""
"","canvas-keyboard-response","82","114296","0.0-6.0-6.10","567","","","","","clear_screen","null","null","","","critical","t","d","c","164","240","154.6796","220.0396","240","164","trueblood","0.14","h","164","240","240","164","154.6796","220.0396","39360","39360","34035.6388","dc","null","null","null","null","null","null","[2,3]","","",""
"","canvas-keyboard-response","83","114498","0.0-6.0-0.11","567","","","","","pre trial waiting period","null","null","","","catch","l","sw","sh","214","255","169","161","223","181","trueblood","null","null","null","null","null","null","null","null","null","null","null","","180","200","260","200","36000","52000","[1,2]","459.24415784118975","486.7928611644895","500.07049247251956"
"","canvas-keyboard-response","84","114517","0.0-6.0-1.11","567","","","","","clear_screen","null","null","","","catch","l","sw","sh","214","255","169","161","223","181","trueblood","null","null","null","null","null","null","null","null","null","null","null","","180","200","260","200","36000","52000","[1,2]","459.24415784118975","486.7928611644895","500.07049247251956"
"","canvas-keyboard-response","85","115026","0.0-6.0-2.11","567","","","","","rectangles no change","null","null","","","catch","l","sw","sh","214","255","169","161","223","181","trueblood","null","null","null","null","null","null","null","null","null","null","null","","180","200","260","200","36000","52000","[1,2]","459.24415784118975","486.7928611644895","500.07049247251956"
"","canvas-keyboard-response","86","116366","0.0-6.0-3.11","567","","","","","rectangles with change","null","null","","","catch","l","sw","sh","214","255","169","161","223","181","trueblood","null","null","null","null","null","null","null","null","null","null","null","","180","200","260","200","36000","52000","[1,2]","459.24415784118975","486.7928611644895","500.07049247251956"
"","canvas-keyboard-response","87","116386","0.0-6.0-4.11","567","","","","","clear_screen","null","null","","","catch","l","sw","sh","214","255","169","161","223","181","trueblood","null","null","null","null","null","null","null","null","null","null","null","","180","200","260","200","36000","52000","[1,2]","459.24415784118975","486.7928611644895","500.07049247251956"
"","canvas-keyboard-response","88","116646","0.0-6.0-5.11","567","","","","","make choice","252","1","","","catch","l","sw","sh","214","255","169","161","223","181","trueblood","null","null","null","null","null","null","null","null","null","null","null","","180","200","260","200","36000","52000","[1,2]","","",""
"","canvas-keyboard-response","89","116666","0.0-6.0-6.11","567","","","","","clear_screen","null","null","","","catch","l","sw","sh","214","255","169","161","223","181","trueblood","null","null","null","null","null","null","null","null","null","null","null","","180","200","260","200","36000","52000","[1,2]","","",""
"","canvas-keyboard-response","90","116868","0.0-6.0-0.12","567","","","","","pre trial waiting period","null","null","","","critical","t","d","c","164","240","160.6713","232.8713","240","164","spektor","0.05","h","164","240","240","164","160.6713","232.8713","39360","39360","37415.7294","dc","null","null","null","null","null","null","[2,3]","476.41490579777565","107.3656450931793","530.3730430979649"
"","canvas-keyboard-response","91","116888","0.0-6.0-1.12","567","","","","","clear_screen","null","null","","","critical","t","d","c","164","240","160.6713","232.8713","240","164","spektor","0.05","h","164","240","240","164","160.6713","232.8713","39360","39360","37415.7294","dc","null","null","null","null","null","null","[2,3]","476.41490579777565","107.3656450931793","530.3730430979649"
"","canvas-keyboard-response","92","117394","0.0-6.0-2.12","567","","","","","rectangles no change","null","null","","","critical","t","d","c","164","240","160.6713","232.8713","240","164","spektor","0.05","h","164","240","240","164","160.6713","232.8713","39360","39360","37415.7294","dc","null","null","null","null","null","null","[2,3]","476.41490579777565","107.3656450931793","530.3730430979649"
"","canvas-keyboard-response","93","118731","0.0-6.0-3.12","567","","","","","rectangles with change","null","null","","","critical","t","d","c","164","240","160.6713","232.8713","240","164","spektor","0.05","h","164","240","240","164","160.6713","232.8713","39360","39360","37415.7294","dc","null","null","null","null","null","null","[2,3]","476.41490579777565","107.3656450931793","530.3730430979649"
"","canvas-keyboard-response","94","118751","0.0-6.0-4.12","567","","","","","clear_screen","null","null","","","critical","t","d","c","164","240","160.6713","232.8713","240","164","spektor","0.05","h","164","240","240","164","160.6713","232.8713","39360","39360","37415.7294","dc","null","null","null","null","null","null","[2,3]","476.41490579777565","107.3656450931793","530.3730430979649"
"","canvas-keyboard-response","95","119918","0.0-6.0-5.12","567","","","","","make choice","1159","3","","","critical","t","d","c","164","240","160.6713","232.8713","240","164","spektor","0.05","h","164","240","240","164","160.6713","232.8713","39360","39360","37415.7294","dc","null","null","null","null","null","null","[2,3]","","",""
"","canvas-keyboard-response","96","119938","0.0-6.0-6.12","567","","","","","clear_screen","null","null","","","critical","t","d","c","164","240","160.6713","232.8713","240","164","spektor","0.05","h","164","240","240","164","160.6713","232.8713","39360","39360","37415.7294","dc","null","null","null","null","null","null","[2,3]","","",""
"","canvas-keyboard-response","97","120139","0.0-6.0-0.13","567","","","","","pre trial waiting period","null","null","","","critical","d","t","c","240","164","240","164","164","240","spektor","0","w","240","164","164","240","240","164","39360","39360","39360","td","null","null","null","null","null","null","[2,1]","530.0623087276992","166.46322789695594","456.3487671638871"
"","canvas-keyboard-response","98","120158","0.0-6.0-1.13","567","","","","","clear_screen","null","null","","","critical","d","t","c","240","164","240","164","164","240","spektor","0","w","240","164","164","240","240","164","39360","39360","39360","td","null","null","null","null","null","null","[2,1]","530.0623087276992","166.46322789695594","456.3487671638871"
"","canvas-keyboard-response","99","120669","0.0-6.0-2.13","567","","","","","rectangles no change","null","null","","","critical","d","t","c","240","164","240","164","164","240","spektor","0","w","240","164","164","240","240","164","39360","39360","39360","td","null","null","null","null","null","null","[2,1]","530.0623087276992","166.46322789695594","456.3487671638871"
"","canvas-keyboard-response","100","122009","0.0-6.0-3.13","567","","","","","rectangles with change","null","null","","","critical","d","t","c","240","164","240","164","164","240","spektor","0","w","240","164","164","240","240","164","39360","39360","39360","td","null","null","null","null","null","null","[2,1]","530.0623087276992","166.46322789695594","456.3487671638871"
"","canvas-keyboard-response","101","122029","0.0-6.0-4.13","567","","","","","clear_screen","null","null","","","critical","d","t","c","240","164","240","164","164","240","spektor","0","w","240","164","164","240","240","164","39360","39360","39360","td","null","null","null","null","null","null","[2,1]","530.0623087276992","166.46322789695594","456.3487671638871"
"","canvas-keyboard-response","102","122493","0.0-6.0-5.13","567","","","","","make choice","459","2","","","critical","d","t","c","240","164","240","164","164","240","spektor","0","w","240","164","164","240","240","164","39360","39360","39360","td","null","null","null","null","null","null","[2,1]","","",""
"","canvas-keyboard-response","103","122508","0.0-6.0-6.13","567","","","","","clear_screen","null","null","","","critical","d","t","c","240","164","240","164","164","240","spektor","0","w","240","164","164","240","240","164","39360","39360","39360","td","null","null","null","null","null","null","[2,1]","","",""
"","canvas-keyboard-response","104","122709","0.0-6.0-0.14","567","","","","","pre trial waiting period","null","null","","","critical","t","c","d","164","240","240","164","162.6685","237.1485","spektor","0.02","h","164","240","240","164","162.6685","237.1485","39360","39360","38576.5967","tc","null","null","null","null","null","null","[1,2]","476.94507686024815","180.95325272373162","467.0293871302881"
"","canvas-keyboard-response","105","122729","0.0-6.0-1.14","567","","","","","clear_screen","null","null","","","critical","t","c","d","164","240","240","164","162.6685","237.1485","spektor","0.02","h","164","240","240","164","162.6685","237.1485","39360","39360","38576.5967","tc","null","null","null","null","null","null","[1,2]","476.94507686024815","180.95325272373162","467.0293871302881"
"","canvas-keyboard-response","106","123239","0.0-6.0-2.14","567","","","","","rectangles no change","null","null","","","critical","t","c","d","164","240","240","164","162.6685","237.1485","spektor","0.02","h","164","240","240","164","162.6685","237.1485","39360","39360","38576.5967","tc","null","null","null","null","null","null","[1,2]","476.94507686024815","180.95325272373162","467.0293871302881"
"","canvas-keyboard-response","107","124576","0.0-6.0-3.14","567","","","","","rectangles with change","null","null","","","critical","t","c","d","164","240","240","164","162.6685","237.1485","spektor","0.02","h","164","240","240","164","162.6685","237.1485","39360","39360","38576.5967","tc","null","null","null","null","null","null","[1,2]","476.94507686024815","180.95325272373162","467.0293871302881"
"","canvas-keyboard-response","108","124598","0.0-6.0-4.14","567","","","","","clear_screen","null","null","","","critical","t","c","d","164","240","240","164","162.6685","237.1485","spektor","0.02","h","164","240","240","164","162.6685","237.1485","39360","39360","38576.5967","tc","null","null","null","null","null","null","[1,2]","476.94507686024815","180.95325272373162","467.0293871302881"
"","canvas-keyboard-response","109","124909","0.0-6.0-5.14","567","","","","","make choice","305","2","","","critical","t","c","d","164","240","240","164","162.6685","237.1485","spektor","0.02","h","164","240","240","164","162.6685","237.1485","39360","39360","38576.5967","tc","null","null","null","null","null","null","[1,2]","","",""
"","canvas-keyboard-response","110","124926","0.0-6.0-6.14","567","","","","","clear_screen","null","null","","","critical","t","c","d","164","240","240","164","162.6685","237.1485","spektor","0.02","h","164","240","240","164","162.6685","237.1485","39360","39360","38576.5967","tc","null","null","null","null","null","null","[1,2]","","",""
"","canvas-keyboard-response","111","125127","0.0-6.0-0.15","567","","","","","pre trial waiting period","null","null","","","catch","l","sh","sw","211","237","197","162","182","187","spektor","null","null","null","null","null","null","null","null","null","null","null","","180","200","260","200","36000","52000","[1,2]","473.2519787354107","196.3494567181489","499.89707146430317"
"","canvas-keyboard-response","112","125146","0.0-6.0-1.15","567","","","","","clear_screen","null","null","","","catch","l","sh","sw","211","237","197","162","182","187","spektor","null","null","null","null","null","null","null","null","null","null","null","","180","200","260","200","36000","52000","[1,2]","473.2519787354107","196.3494567181489","499.89707146430317"
"","canvas-keyboard-response","113","125651","0.0-6.0-2.15","567","","","","","rectangles no change","null","null","","","catch","l","sh","sw","211","237","197","162","182","187","spektor","null","null","null","null","null","null","null","null","null","null","null","","180","200","260","200","36000","52000","[1,2]","473.2519787354107","196.3494567181489","499.89707146430317"
"","canvas-keyboard-response","114","126988","0.0-6.0-3.15","567","","","","","rectangles with change","null","null","","","catch","l","sh","sw","211","237","197","162","182","187","spektor","null","null","null","null","null","null","null","null","null","null","null","","180","200","260","200","36000","52000","[1,2]","473.2519787354107","196.3494567181489","499.89707146430317"
"","canvas-keyboard-response","115","127007","0.0-6.0-4.15","567","","","","","clear_screen","null","null","","","catch","l","sh","sw","211","237","197","162","182","187","spektor","null","null","null","null","null","null","null","null","null","null","null","","180","200","260","200","36000","52000","[1,2]","473.2519787354107","196.3494567181489","499.89707146430317"
"","canvas-keyboard-response","116","127271","0.0-6.0-5.15","567","","","","","make choice","258","1","","","catch","l","sh","sw","211","237","197","162","182","187","spektor","null","null","null","null","null","null","null","null","null","null","null","","180","200","260","200","36000","52000","[1,2]","","",""
"","canvas-keyboard-response","117","127290","0.0-6.0-6.15","567","","","","","clear_screen","null","null","","","catch","l","sh","sw","211","237","197","162","182","187","spektor","null","null","null","null","null","null","null","null","null","null","null","","180","200","260","200","36000","52000","[1,2]","","",""
"","canvas-keyboard-response","118","127491","0.0-6.0-0.16","567","","","","","pre trial waiting period","null","null","","","catch","l","sh","sw","202","250","194","167","145","167","trueblood","null","null","null","null","null","null","null","null","null","null","null","","180","200","260","200","36000","52000","[1,2]","413.5455822896847","501.68431976409926","496.2328415822895"
"","canvas-keyboard-response","119","127511","0.0-6.0-1.16","567","","","","","clear_screen","null","null","","","catch","l","sh","sw","202","250","194","167","145","167","trueblood","null","null","null","null","null","null","null","null","null","null","null","","180","200","260","200","36000","52000","[1,2]","413.5455822896847","501.68431976409926","496.2328415822895"
"","canvas-keyboard-response","120","128020","0.0-6.0-2.16","567","","","","","rectangles no change","null","null","","","catch","l","sh","sw","202","250","194","167","145","167","trueblood","null","null","null","null","null","null","null","null","null","null","null","","180","200","260","200","36000","52000","[1,2]","413.5455822896847","501.68431976409926","496.2328415822895"
"","canvas-keyboard-response","121","129356","0.0-6.0-3.16","567","","","","","rectangles with change","null","null","","","catch","l","sh","sw","202","250","194","167","145","167","trueblood","null","null","null","null","null","null","null","null","null","null","null","","180","200","260","200","36000","52000","[1,2]","413.5455822896847","501.68431976409926","496.2328415822895"
"","canvas-keyboard-response","122","129378","0.0-6.0-4.16","567","","","","","clear_screen","null","null","","","catch","l","sh","sw","202","250","194","167","145","167","trueblood","null","null","null","null","null","null","null","null","null","null","null","","180","200","260","200","36000","52000","[1,2]","413.5455822896847","501.68431976409926","496.2328415822895"
"","canvas-keyboard-response","123","129614","0.0-6.0-5.16","567","","","","","make choice","230","1","","","catch","l","sh","sw","202","250","194","167","145","167","trueblood","null","null","null","null","null","null","null","null","null","null","null","","180","200","260","200","36000","52000","[1,2]","","",""
"","canvas-keyboard-response","124","129636","0.0-6.0-6.16","567","","","","","clear_screen","null","null","","","catch","l","sh","sw","202","250","194","167","145","167","trueblood","null","null","null","null","null","null","null","null","null","null","null","","180","200","260","200","36000","52000","[1,2]","","",""
"","canvas-keyboard-response","125","129836","0.0-6.0-0.17","567","","","","","pre trial waiting period","null","null","","","catch","sh","l","sw","170","196","245","185","182","201","spektor","null","null","null","null","null","null","null","null","null","null","null","","180","200","260","200","36000","52000","[2,3]","508.08197833568283","170.1372051755896","512.0841644527832"
"","canvas-keyboard-response","126","129857","0.0-6.0-1.17","567","","","","","clear_screen","null","null","","","catch","sh","l","sw","170","196","245","185","182","201","spektor","null","null","null","null","null","null","null","null","null","null","null","","180","200","260","200","36000","52000","[2,3]","508.08197833568283","170.1372051755896","512.0841644527832"
"","canvas-keyboard-response","127","130364","0.0-6.0-2.17","567","","","","","rectangles no change","null","null","","","catch","sh","l","sw","170","196","245","185","182","201","spektor","null","null","null","null","null","null","null","null","null","null","null","","180","200","260","200","36000","52000","[2,3]","508.08197833568283","170.1372051755896","512.0841644527832"
"","canvas-keyboard-response","128","131700","0.0-6.0-3.17","567","","","","","rectangles with change","null","null","","","catch","sh","l","sw","170","196","245","185","182","201","spektor","null","null","null","null","null","null","null","null","null","null","null","","180","200","260","200","36000","52000","[2,3]","508.08197833568283","170.1372051755896","512.0841644527832"
"","canvas-keyboard-response","129","131723","0.0-6.0-4.17","567","","","","","clear_screen","null","null","","","catch","sh","l","sw","170","196","245","185","182","201","spektor","null","null","null","null","null","null","null","null","null","null","null","","180","200","260","200","36000","52000","[2,3]","508.08197833568283","170.1372051755896","512.0841644527832"
"","canvas-keyboard-response","130","131950","0.0-6.0-5.17","567","","","","","make choice","222","2","","","catch","sh","l","sw","170","196","245","185","182","201","spektor","null","null","null","null","null","null","null","null","null","null","null","","180","200","260","200","36000","52000","[2,3]","","",""
"","canvas-keyboard-response","131","131972","0.0-6.0-6.17","567","","","","","clear_screen","null","null","","","catch","sh","l","sw","170","196","245","185","182","201","spektor","null","null","null","null","null","null","null","null","null","null","null","","180","200","260","200","36000","52000","[2,3]","","",""
"","canvas-keyboard-response","132","132172","0.0-6.0-0.18","567","","","","","pre trial waiting period","null","null","","","critical","d","t","c","232.8713","160.6713","240","164","164","240","trueblood","0.05","w","240","164","164","240","232.8713","160.6713","39360","39360","37415.7294","td","null","null","null","null","null","null","[2,1]","519.2220751563209","483.51503251691463","443.52894303271785"
"","canvas-keyboard-response","133","132191","0.0-6.0-1.18","567","","","","","clear_screen","null","null","","","critical","d","t","c","232.8713","160.6713","240","164","164","240","trueblood","0.05","w","240","164","164","240","232.8713","160.6713","39360","39360","37415.7294","td","null","null","null","null","null","null","[2,1]","519.2220751563209","483.51503251691463","443.52894303271785"
"","canvas-keyboard-response","134","132698","0.0-6.0-2.18","567","","","","","rectangles no change","null","null","","","critical","d","t","c","232.8713","160.6713","240","164","164","240","trueblood","0.05","w","240","164","164","240","232.8713","160.6713","39360","39360","37415.7294","td","null","null","null","null","null","null","[2,1]","519.2220751563209","483.51503251691463","443.52894303271785"
"","canvas-keyboard-response","135","134037","0.0-6.0-3.18","567","","","","","rectangles with change","null","null","","","critical","d","t","c","232.8713","160.6713","240","164","164","240","trueblood","0.05","w","240","164","164","240","232.8713","160.6713","39360","39360","37415.7294","td","null","null","null","null","null","null","[2,1]","519.2220751563209","483.51503251691463","443.52894303271785"
"","canvas-keyboard-response","136","134060","0.0-6.0-4.18","567","","","","","clear_screen","null","null","","","critical","d","t","c","232.8713","160.6713","240","164","164","240","trueblood","0.05","w","240","164","164","240","232.8713","160.6713","39360","39360","37415.7294","td","null","null","null","null","null","null","[2,1]","519.2220751563209","483.51503251691463","443.52894303271785"
"","canvas-keyboard-response","137","134366","0.0-6.0-5.18","567","","","","","make choice","301","2","","","critical","d","t","c","232.8713","160.6713","240","164","164","240","trueblood","0.05","w","240","164","164","240","232.8713","160.6713","39360","39360","37415.7294","td","null","null","null","null","null","null","[2,1]","","",""
"","canvas-keyboard-response","138","134387","0.0-6.0-6.18","567","","","","","clear_screen","null","null","","","critical","d","t","c","232.8713","160.6713","240","164","164","240","trueblood","0.05","w","240","164","164","240","232.8713","160.6713","39360","39360","37415.7294","td","null","null","null","null","null","null","[2,1]","","",""
"","canvas-keyboard-response","139","134587","0.0-6.0-0.19","567","","","","","pre trial waiting period","null","null","","","catch","sw","sh","l","180","200","214","193","240","218","trueblood","null","null","null","null","null","null","null","null","null","null","null","","180","200","260","200","36000","52000","[2,3]","468.59606959045345","486.9790220647858","436.3296894720772"
"","canvas-keyboard-response","140","134607","0.0-6.0-1.19","567","","","","","clear_screen","null","null","","","catch","sw","sh","l","180","200","214","193","240","218","trueblood","null","null","null","null","null","null","null","null","null","null","null","","180","200","260","200","36000","52000","[2,3]","468.59606959045345","486.9790220647858","436.3296894720772"
"","canvas-keyboard-response","141","135114","0.0-6.0-2.19","567","","","","","rectangles no change","null","null","","","catch","sw","sh","l","180","200","214","193","240","218","trueblood","null","null","null","null","null","null","null","null","null","null","null","","180","200","260","200","36000","52000","[2,3]","468.59606959045345","486.9790220647858","436.3296894720772"
"","canvas-keyboard-response","142","136454","0.0-6.0-3.19","567","","","","","rectangles with change","null","null","","","catch","sw","sh","l","180","200","214","193","240","218","trueblood","null","null","null","null","null","null","null","null","null","null","null","","180","200","260","200","36000","52000","[2,3]","468.59606959045345","486.9790220647858","436.3296894720772"
"","canvas-keyboard-response","143","136476","0.0-6.0-4.19","567","","","","","clear_screen","null","null","","","catch","sw","sh","l","180","200","214","193","240","218","trueblood","null","null","null","null","null","null","null","null","null","null","null","","180","200","260","200","36000","52000","[2,3]","468.59606959045345","486.9790220647858","436.3296894720772"
"","canvas-keyboard-response","144","136710","0.0-6.0-5.19","567","","","","","make choice","227","3","","","catch","sw","sh","l","180","200","214","193","240","218","trueblood","null","null","null","null","null","null","null","null","null","null","null","","180","200","260","200","36000","52000","[2,3]","","",""
"","canvas-keyboard-response","145","136727","0.0-6.0-6.19","567","","","","","clear_screen","null","null","","","catch","sw","sh","l","180","200","214","193","240","218","trueblood","null","null","null","null","null","null","null","null","null","null","null","","180","200","260","200","36000","52000","[2,3]","","",""
"","canvas-keyboard-response","146","136928","0.0-6.0-0.20","567","","","","","pre trial waiting period","null","null","","","critical","d","c","t","227.1683","158.0083","164","240","240","164","spektor","0.09","w","240","164","164","240","227.1683","158.0083","39360","39360","35894.4834","td","null","null","null","null","null","null","[3,1]","527.0639161181646","155.03046755959102","523.2208817900955"
"","canvas-keyboard-response","147","136948","0.0-6.0-1.20","567","","","","","clear_screen","null","null","","","critical","d","c","t","227.1683","158.0083","164","240","240","164","spektor","0.09","w","240","164","164","240","227.1683","158.0083","39360","39360","35894.4834","td","null","null","null","null","null","null","[3,1]","527.0639161181646","155.03046755959102","523.2208817900955"
"","canvas-keyboard-response","148","137456","0.0-6.0-2.20","567","","","","","rectangles no change","null","null","","","critical","d","c","t","227.1683","158.0083","164","240","240","164","spektor","0.09","w","240","164","164","240","227.1683","158.0083","39360","39360","35894.4834","td","null","null","null","null","null","null","[3,1]","527.0639161181646","155.03046755959102","523.2208817900955"
"","canvas-keyboard-response","149","138792","0.0-6.0-3.20","567","","","","","rectangles with change","null","null","","","critical","d","c","t","227.1683","158.0083","164","240","240","164","spektor","0.09","w","240","164","164","240","227.1683","158.0083","39360","39360","35894.4834","td","null","null","null","null","null","null","[3,1]","527.0639161181646","155.03046755959102","523.2208817900955"
"","canvas-keyboard-response","150","138812","0.0-6.0-4.20","567","","","","","clear_screen","null","null","","","critical","d","c","t","227.1683","158.0083","164","240","240","164","spektor","0.09","w","240","164","164","240","227.1683","158.0083","39360","39360","35894.4834","td","null","null","null","null","null","null","[3,1]","527.0639161181646","155.03046755959102","523.2208817900955"
"","canvas-keyboard-response","151","139070","0.0-6.0-5.20","567","","","","","make choice","251","3","","","critical","d","c","t","227.1683","158.0083","164","240","240","164","spektor","0.09","w","240","164","164","240","227.1683","158.0083","39360","39360","35894.4834","td","null","null","null","null","null","null","[3,1]","","",""
"","canvas-keyboard-response","152","139088","0.0-6.0-6.20","567","","","","","clear_screen","null","null","","","critical","d","c","t","227.1683","158.0083","164","240","240","164","spektor","0.09","w","240","164","164","240","227.1683","158.0083","39360","39360","35894.4834","td","null","null","null","null","null","null","[3,1]","","",""
"","canvas-keyboard-response","153","139288","0.0-6.0-0.21","567","","","","","pre trial waiting period","null","null","","","critical","c","t","d","240","164","164","240","164","240","spektor","0","h","164","240","240","164","164","240","39360","39360","39360","tc","null","null","null","null","null","null","[2,1]","512.6180365204195","108.0981808875293","463.8861371125833"
"","canvas-keyboard-response","154","139308","0.0-6.0-1.21","567","","","","","clear_screen","null","null","","","critical","c","t","d","240","164","164","240","164","240","spektor","0","h","164","240","240","164","164","240","39360","39360","39360","tc","null","null","null","null","null","null","[2,1]","512.6180365204195","108.0981808875293","463.8861371125833"
"","canvas-keyboard-response","155","139817","0.0-6.0-2.21","567","","","","","rectangles no change","null","null","","","critical","c","t","d","240","164","164","240","164","240","spektor","0","h","164","240","240","164","164","240","39360","39360","39360","tc","null","null","null","null","null","null","[2,1]","512.6180365204195","108.0981808875293","463.8861371125833"
"","canvas-keyboard-response","156","141151","0.0-6.0-3.21","567","","","","","rectangles with change","null","null","","","critical","c","t","d","240","164","164","240","164","240","spektor","0","h","164","240","240","164","164","240","39360","39360","39360","tc","null","null","null","null","null","null","[2,1]","512.6180365204195","108.0981808875293","463.8861371125833"
"","canvas-keyboard-response","157","141174","0.0-6.0-4.21","567","","","","","clear_screen","null","null","","","critical","c","t","d","240","164","164","240","164","240","spektor","0","h","164","240","240","164","164","240","39360","39360","39360","tc","null","null","null","null","null","null","[2,1]","512.6180365204195","108.0981808875293","463.8861371125833"
"","canvas-keyboard-response","158","142310","0.0-6.0-5.21","567","","","","","make choice","1125","1","","","critical","c","t","d","240","164","164","240","164","240","spektor","0","h","164","240","240","164","164","240","39360","39360","39360","tc","null","null","null","null","null","null","[2,1]","","",""
"","canvas-keyboard-response","159","142330","0.0-6.0-6.21","567","","","","","clear_screen","null","null","","","critical","c","t","d","240","164","164","240","164","240","spektor","0","h","164","240","240","164","164","240","39360","39360","39360","tc","null","null","null","null","null","null","[2,1]","","",""
"","canvas-keyboard-response","160","142531","0.0-6.0-0.22","567","","","","","pre trial waiting period","null","null","","","catch","sw","sh","l","180","200","237","165","256","200","spektor","null","null","null","null","null","null","null","null","null","null","null","","180","200","260","200","36000","52000","[2,3]","497.66206368035574","178.24329135936205","484.45095672387095"
"","canvas-keyboard-response","161","142554","0.0-6.0-1.22","567","","","","","clear_screen","null","null","","","catch","sw","sh","l","180","200","237","165","256","200","spektor","null","null","null","null","null","null","null","null","null","null","null","","180","200","260","200","36000","52000","[2,3]","497.66206368035574","178.24329135936205","484.45095672387095"
"","canvas-keyboard-response","162","143062","0.0-6.0-2.22","567","","","","","rectangles no change","null","null","","","catch","sw","sh","l","180","200","237","165","256","200","spektor","null","null","null","null","null","null","null","null","null","null","null","","180","200","260","200","36000","52000","[2,3]","497.66206368035574","178.24329135936205","484.45095672387095"
"","canvas-keyboard-response","163","144399","0.0-6.0-3.22","567","","","","","rectangles with change","null","null","","","catch","sw","sh","l","180","200","237","165","256","200","spektor","null","null","null","null","null","null","null","null","null","null","null","","180","200","260","200","36000","52000","[2,3]","497.66206368035574","178.24329135936205","484.45095672387095"
"","canvas-keyboard-response","164","144418","0.0-6.0-4.22","567","","","","","clear_screen","null","null","","","catch","sw","sh","l","180","200","237","165","256","200","spektor","null","null","null","null","null","null","null","null","null","null","null","","180","200","260","200","36000","52000","[2,3]","497.66206368035574","178.24329135936205","484.45095672387095"
"","canvas-keyboard-response","165","144671","0.0-6.0-5.22","567","","","","","make choice","248","3","","","catch","sw","sh","l","180","200","237","165","256","200","spektor","null","null","null","null","null","null","null","null","null","null","null","","180","200","260","200","36000","52000","[2,3]","","",""
"","canvas-keyboard-response","166","144690","0.0-6.0-6.22","567","","","","","clear_screen","null","null","","","catch","sw","sh","l","180","200","237","165","256","200","spektor","null","null","null","null","null","null","null","null","null","null","null","","180","200","260","200","36000","52000","[2,3]","","",""
"","canvas-keyboard-response","167","144892","0.0-6.0-0.23","567","","","","","pre trial waiting period","null","null","","","catch","l","sw","sh","293","176","191","203","220","167","trueblood","null","null","null","null","null","null","null","null","null","null","null","","180","200","260","200","36000","52000","[1,3]","487.924574711113","455.1034209345458","500.1203550889312"
"","canvas-keyboard-response","168","144914","0.0-6.0-1.23","567","","","","","clear_screen","null","null","","","catch","l","sw","sh","293","176","191","203","220","167","trueblood","null","null","null","null","null","null","null","null","null","null","null","","180","200","260","200","36000","52000","[1,3]","487.924574711113","455.1034209345458","500.1203550889312"
"","canvas-keyboard-response","169","145419","0.0-6.0-2.23","567","","","","","rectangles no change","null","null","","","catch","l","sw","sh","293","176","191","203","220","167","trueblood","null","null","null","null","null","null","null","null","null","null","null","","180","200","260","200","36000","52000","[1,3]","487.924574711113","455.1034209345458","500.1203550889312"
"","canvas-keyboard-response","170","146757","0.0-6.0-3.23","567","","","","","rectangles with change","null","null","","","catch","l","sw","sh","293","176","191","203","220","167","trueblood","null","null","null","null","null","null","null","null","null","null","null","","180","200","260","200","36000","52000","[1,3]","487.924574711113","455.1034209345458","500.1203550889312"
"","canvas-keyboard-response","171","146777","0.0-6.0-4.23","567","","","","","clear_screen","null","null","","","catch","l","sw","sh","293","176","191","203","220","167","trueblood","null","null","null","null","null","null","null","null","null","null","null","","180","200","260","200","36000","52000","[1,3]","487.924574711113","455.1034209345458","500.1203550889312"
"","canvas-keyboard-response","172","146870","0.0-6.0-5.23","567","","","","","make choice","84","1","","","catch","l","sw","sh","293","176","191","203","220","167","trueblood","null","null","null","null","null","null","null","null","null","null","null","","180","200","260","200","36000","52000","[1,3]","","",""
"","canvas-keyboard-response","173","146889","0.0-6.0-6.23","567","","","","","clear_screen","null","null","","","catch","l","sw","sh","293","176","191","203","220","167","trueblood","null","null","null","null","null","null","null","null","null","null","null","","180","200","260","200","36000","52000","[1,3]","","",""
"","canvas-keyboard-response","174","147090","0.0-6.0-0.24","567","","","","","pre trial waiting period","null","null","","","critical","d","c","t","240","164","164","240","240","164","spektor","0","w","240","164","164","240","240","164","39360","39360","39360","dc","null","null","null","null","null","null","[1,2]","516.5002325697274","116.02099659328886","509.0858740114968"
"","canvas-keyboard-response","175","147111","0.0-6.0-1.24","567","","","","","clear_screen","null","null","","","critical","d","c","t","240","164","164","240","240","164","spektor","0","w","240","164","164","240","240","164","39360","39360","39360","dc","null","null","null","null","null","null","[1,2]","516.5002325697274","116.02099659328886","509.0858740114968"
"","canvas-keyboard-response","176","147620","0.0-6.0-2.24","567","","","","","rectangles no change","null","null","","","critical","d","c","t","240","164","164","240","240","164","spektor","0","w","240","164","164","240","240","164","39360","39360","39360","dc","null","null","null","null","null","null","[1,2]","516.5002325697274","116.02099659328886","509.0858740114968"
"","canvas-keyboard-response","177","148955","0.0-6.0-3.24","567","","","","","rectangles with change","null","null","","","critical","d","c","t","240","164","164","240","240","164","spektor","0","w","240","164","164","240","240","164","39360","39360","39360","dc","null","null","null","null","null","null","[1,2]","516.5002325697274","116.02099659328886","509.0858740114968"
"","canvas-keyboard-response","178","148976","0.0-6.0-4.24","567","","","","","clear_screen","null","null","","","critical","d","c","t","240","164","164","240","240","164","spektor","0","w","240","164","164","240","240","164","39360","39360","39360","dc","null","null","null","null","null","null","[1,2]","516.5002325697274","116.02099659328886","509.0858740114968"
"","canvas-keyboard-response","179","149207","0.0-6.0-5.24","567","","","","","make choice","224","2","","","critical","d","c","t","240","164","164","240","240","164","spektor","0","w","240","164","164","240","240","164","39360","39360","39360","dc","null","null","null","null","null","null","[1,2]","","",""
"","canvas-keyboard-response","180","149222","0.0-6.0-6.24","567","","","","","clear_screen","null","null","","","critical","d","c","t","240","164","164","240","240","164","spektor","0","w","240","164","164","240","240","164","39360","39360","39360","dc","null","null","null","null","null","null","[1,2]","","",""
"","canvas-keyboard-response","181","149423","0.0-6.0-0.25","567","","","","","pre trial waiting period","null","null","","","catch","sh","sw","l","188","149","166","230","282","220","spektor","null","null","null","null","null","null","null","null","null","null","null","","180","200","260","200","36000","52000","[1,3]","515.5408293321248","150.57189913079853","509.8260362616583"
"","canvas-keyboard-response","182","149447","0.0-6.0-1.25","567","","","","","clear_screen","null","null","","","catch","sh","sw","l","188","149","166","230","282","220","spektor","null","null","null","null","null","null","null","null","null","null","null","","180","200","260","200","36000","52000","[1,3]","515.5408293321248","150.57189913079853","509.8260362616583"
"","canvas-keyboard-response","183","149954","0.0-6.0-2.25","567","","","","","rectangles no change","null","null","","","catch","sh","sw","l","188","149","166","230","282","220","spektor","null","null","null","null","null","null","null","null","null","null","null","","180","200","260","200","36000","52000","[1,3]","515.5408293321248","150.57189913079853","509.8260362616583"
"","canvas-keyboard-response","184","151291","0.0-6.0-3.25","567","","","","","rectangles with change","null","null","","","catch","sh","sw","l","188","149","166","230","282","220","spektor","null","null","null","null","null","null","null","null","null","null","null","","180","200","260","200","36000","52000","[1,3]","515.5408293321248","150.57189913079853","509.8260362616583"
"","canvas-keyboard-response","185","151310","0.0-6.0-4.25","567","","","","","clear_screen","null","null","","","catch","sh","sw","l","188","149","166","230","282","220","spektor","null","null","null","null","null","null","null","null","null","null","null","","180","200","260","200","36000","52000","[1,3]","515.5408293321248","150.57189913079853","509.8260362616583"
"","canvas-keyboard-response","186","151535","0.0-6.0-5.25","567","","","","","make choice","218","3","","","catch","sh","sw","l","188","149","166","230","282","220","spektor","null","null","null","null","null","null","null","null","null","null","null","","180","200","260","200","36000","52000","[1,3]","","",""
"","canvas-keyboard-response","187","151554","0.0-6.0-6.25","567","","","","","clear_screen","null","null","","","catch","sh","sw","l","188","149","166","230","282","220","spektor","null","null","null","null","null","null","null","null","null","null","null","","180","200","260","200","36000","52000","[1,3]","","",""
"","canvas-keyboard-response","188","151755","0.0-6.0-0.26","567","","","","","pre trial waiting period","null","null","","","catch","sh","l","sw","219","172","288","168","197","176","trueblood","null","null","null","null","null","null","null","null","null","null","null","","180","200","260","200","36000","52000","[2,3]","497.28648668885825","497.3879967515861","505.5141388929091"
"","canvas-keyboard-response","189","151775","0.0-6.0-1.26","567","","","","","clear_screen","null","null","","","catch","sh","l","sw","219","172","288","168","197","176","trueblood","null","null","null","null","null","null","null","null","null","null","null","","180","200","260","200","36000","52000","[2,3]","497.28648668885825","497.3879967515861","505.5141388929091"
"","canvas-keyboard-response","190","152288","0.0-6.0-2.26","567","","","","","rectangles no change","null","null","","","catch","sh","l","sw","219","172","288","168","197","176","trueblood","null","null","null","null","null","null","null","null","null","null","null","","180","200","260","200","36000","52000","[2,3]","497.28648668885825","497.3879967515861","505.5141388929091"
"","canvas-keyboard-response","191","153626","0.0-6.0-3.26","567","","","","","rectangles with change","null","null","","","catch","sh","l","sw","219","172","288","168","197","176","trueblood","null","null","null","null","null","null","null","null","null","null","null","","180","200","260","200","36000","52000","[2,3]","497.28648668885825","497.3879967515861","505.5141388929091"
"","canvas-keyboard-response","192","153640","0.0-6.0-4.26","567","","","","","clear_screen","null","null","","","catch","sh","l","sw","219","172","288","168","197","176","trueblood","null","null","null","null","null","null","null","null","null","null","null","","180","200","260","200","36000","52000","[2,3]","497.28648668885825","497.3879967515861","505.5141388929091"
"","canvas-keyboard-response","193","153823","0.0-6.0-5.26","567","","","","","make choice","175","2","","","catch","sh","l","sw","219","172","288","168","197","176","trueblood","null","null","null","null","null","null","null","null","null","null","null","","180","200","260","200","36000","52000","[2,3]","","",""
"","canvas-keyboard-response","194","153842","0.0-6.0-6.26","567","","","","","clear_screen","null","null","","","catch","sh","l","sw","219","172","288","168","197","176","trueblood","null","null","null","null","null","null","null","null","null","null","null","","180","200","260","200","36000","52000","[2,3]","","",""
"","canvas-keyboard-response","195","154043","0.0-6.0-0.27","567","","","","","pre trial waiting period","null","null","","","critical","t","d","c","164","240","160.6713","232.8713","240","164","spektor","0.05","h","164","240","240","164","160.6713","232.8713","39360","39360","37415.7294","td","null","null","null","null","null","null","[1,2]","478.06856728793883","127.73085984643106","535.916880527026"
"","canvas-keyboard-response","196","154066","0.0-6.0-1.27","567","","","","","clear_screen","null","null","","","critical","t","d","c","164","240","160.6713","232.8713","240","164","spektor","0.05","h","164","240","240","164","160.6713","232.8713","39360","39360","37415.7294","td","null","null","null","null","null","null","[1,2]","478.06856728793883","127.73085984643106","535.916880527026"
"","canvas-keyboard-response","197","154574","0.0-6.0-2.27","567","","","","","rectangles no change","null","null","","","critical","t","d","c","164","240","160.6713","232.8713","240","164","spektor","0.05","h","164","240","240","164","160.6713","232.8713","39360","39360","37415.7294","td","null","null","null","null","null","null","[1,2]","478.06856728793883","127.73085984643106","535.916880527026"
"","canvas-keyboard-response","198","155911","0.0-6.0-3.27","567","","","","","rectangles with change","null","null","","","critical","t","d","c","164","240","160.6713","232.8713","240","164","spektor","0.05","h","164","240","240","164","160.6713","232.8713","39360","39360","37415.7294","td","null","null","null","null","null","null","[1,2]","478.06856728793883","127.73085984643106","535.916880527026"
"","canvas-keyboard-response","199","155930","0.0-6.0-4.27","567","","","","","clear_screen","null","null","","","critical","t","d","c","164","240","160.6713","232.8713","240","164","spektor","0.05","h","164","240","240","164","160.6713","232.8713","39360","39360","37415.7294","td","null","null","null","null","null","null","[1,2]","478.06856728793883","127.73085984643106","535.916880527026"
"","canvas-keyboard-response","200","156182","0.0-6.0-5.27","567","","","","","make choice","246","1","","","critical","t","d","c","164","240","160.6713","232.8713","240","164","spektor","0.05","h","164","240","240","164","160.6713","232.8713","39360","39360","37415.7294","td","null","null","null","null","null","null","[1,2]","","",""
"","canvas-keyboard-response","201","156202","0.0-6.0-6.27","567","","","","","clear_screen","null","null","","","critical","t","d","c","164","240","160.6713","232.8713","240","164","spektor","0.05","h","164","240","240","164","160.6713","232.8713","39360","39360","37415.7294","td","null","null","null","null","null","null","[1,2]","","",""
"","canvas-keyboard-response","202","156403","0.0-6.0-0.28","567","","","","","pre trial waiting period","null","null","","","critical","t","d","c","164","240","158.0083","227.1683","240","164","spektor","0.09","h","164","240","240","164","158.0083","227.1683","39360","39360","35894.4834","tc","null","null","null","null","null","null","[1,3]","475.63091908320575","151.08457772005895","541.2500103901833"
"","canvas-keyboard-response","203","156420","0.0-6.0-1.28","567","","","","","clear_screen","null","null","","","critical","t","d","c","164","240","158.0083","227.1683","240","164","spektor","0.09","h","164","240","240","164","158.0083","227.1683","39360","39360","35894.4834","tc","null","null","null","null","null","null","[1,3]","475.63091908320575","151.08457772005895","541.2500103901833"
"","canvas-keyboard-response","204","156927","0.0-6.0-2.28","567","","","","","rectangles no change","null","null","","","critical","t","d","c","164","240","158.0083","227.1683","240","164","spektor","0.09","h","164","240","240","164","158.0083","227.1683","39360","39360","35894.4834","tc","null","null","null","null","null","null","[1,3]","475.63091908320575","151.08457772005895","541.2500103901833"
"","canvas-keyboard-response","205","158266","0.0-6.0-3.28","567","","","","","rectangles with change","null","null","","","critical","t","d","c","164","240","158.0083","227.1683","240","164","spektor","0.09","h","164","240","240","164","158.0083","227.1683","39360","39360","35894.4834","tc","null","null","null","null","null","null","[1,3]","475.63091908320575","151.08457772005895","541.2500103901833"
"","canvas-keyboard-response","206","158281","0.0-6.0-4.28","567","","","","","clear_screen","null","null","","","critical","t","d","c","164","240","158.0083","227.1683","240","164","spektor","0.09","h","164","240","240","164","158.0083","227.1683","39360","39360","35894.4834","tc","null","null","null","null","null","null","[1,3]","475.63091908320575","151.08457772005895","541.2500103901833"
"","canvas-keyboard-response","207","158494","0.0-6.0-5.28","567","","","","","make choice","207","1","","","critical","t","d","c","164","240","158.0083","227.1683","240","164","spektor","0.09","h","164","240","240","164","158.0083","227.1683","39360","39360","35894.4834","tc","null","null","null","null","null","null","[1,3]","","",""
"","canvas-keyboard-response","208","158512","0.0-6.0-6.28","567","","","","","clear_screen","null","null","","","critical","t","d","c","164","240","158.0083","227.1683","240","164","spektor","0.09","h","164","240","240","164","158.0083","227.1683","39360","39360","35894.4834","tc","null","null","null","null","null","null","[1,3]","","",""
"","canvas-keyboard-response","209","158713","0.0-6.0-0.29","567","","","","","pre trial waiting period","null","null","","","catch","sh","l","sw","195","164","232","246","161","229","spektor","null","null","null","null","null","null","null","null","null","null","null","","180","200","260","200","36000","52000","[1,2]","506.8185363483216","102.84652698811517","481.19856565435333"
"","canvas-keyboard-response","210","158732","0.0-6.0-1.29","567","","","","","clear_screen","null","null","","","catch","sh","l","sw","195","164","232","246","161","229","spektor","null","null","null","null","null","null","null","null","null","null","null","","180","200","260","200","36000","52000","[1,2]","506.8185363483216","102.84652698811517","481.19856565435333"
"","canvas-keyboard-response","211","159241","0.0-6.0-2.29","567","","","","","rectangles no change","null","null","","","catch","sh","l","sw","195","164","232","246","161","229","spektor","null","null","null","null","null","null","null","null","null","null","null","","180","200","260","200","36000","52000","[1,2]","506.8185363483216","102.84652698811517","481.19856565435333"
"","canvas-keyboard-response","212","160578","0.0-6.0-3.29","567","","","","","rectangles with change","null","null","","","catch","sh","l","sw","195","164","232","246","161","229","spektor","null","null","null","null","null","null","null","null","null","null","null","","180","200","260","200","36000","52000","[1,2]","506.8185363483216","102.84652698811517","481.19856565435333"
"","canvas-keyboard-response","213","160599","0.0-6.0-4.29","567","","","","","clear_screen","null","null","","","catch","sh","l","sw","195","164","232","246","161","229","spektor","null","null","null","null","null","null","null","null","null","null","null","","180","200","260","200","36000","52000","[1,2]","506.8185363483216","102.84652698811517","481.19856565435333"
"","canvas-keyboard-response","214","160742","0.0-6.0-5.29","567","","","","","make choice","136","2","","","catch","sh","l","sw","195","164","232","246","161","229","spektor","null","null","null","null","null","null","null","null","null","null","null","","180","200","260","200","36000","52000","[1,2]","","",""
"","canvas-keyboard-response","215","160759","0.0-6.0-6.29","567","","","","","clear_screen","null","null","","","catch","sh","l","sw","195","164","232","246","161","229","spektor","null","null","null","null","null","null","null","null","null","null","null","","180","200","260","200","36000","52000","[1,2]","","",""
"","canvas-keyboard-response","216","160959","0.0-6.0-0.30","567","","","","","pre trial waiting period","null","null","","","catch","l","sh","sw","262","232","169","183","179","234","trueblood","null","null","null","null","null","null","null","null","null","null","null","","180","200","260","200","36000","52000","[1,3]","438.51406589615624","500.8154941285168","440.79685901429366"
"","canvas-keyboard-response","217","160982","0.0-6.0-1.30","567","","","","","clear_screen","null","null","","","catch","l","sh","sw","262","232","169","183","179","234","trueblood","null","null","null","null","null","null","null","null","null","null","null","","180","200","260","200","36000","52000","[1,3]","438.51406589615624","500.8154941285168","440.79685901429366"
"","canvas-keyboard-response","218","161491","0.0-6.0-2.30","567","","","","","rectangles no change","null","null","","","catch","l","sh","sw","262","232","169","183","179","234","trueblood","null","null","null","null","null","null","null","null","null","null","null","","180","200","260","200","36000","52000","[1,3]","438.51406589615624","500.8154941285168","440.79685901429366"
"","canvas-keyboard-response","219","162830","0.0-6.0-3.30","567","","","","","rectangles with change","null","null","","","catch","l","sh","sw","262","232","169","183","179","234","trueblood","null","null","null","null","null","null","null","null","null","null","null","","180","200","260","200","36000","52000","[1,3]","438.51406589615624","500.8154941285168","440.79685901429366"
"","canvas-keyboard-response","220","162852","0.0-6.0-4.30","567","","","","","clear_screen","null","null","","","catch","l","sh","sw","262","232","169","183","179","234","trueblood","null","null","null","null","null","null","null","null","null","null","null","","180","200","260","200","36000","52000","[1,3]","438.51406589615624","500.8154941285168","440.79685901429366"
"","canvas-keyboard-response","221","163317","0.0-6.0-5.30","567","","","","","make choice","460","1","","","catch","l","sh","sw","262","232","169","183","179","234","trueblood","null","null","null","null","null","null","null","null","null","null","null","","180","200","260","200","36000","52000","[1,3]","","",""
"","canvas-keyboard-response","222","163337","0.0-6.0-6.30","567","","","","","clear_screen","null","null","","","catch","l","sh","sw","262","232","169","183","179","234","trueblood","null","null","null","null","null","null","null","null","null","null","null","","180","200","260","200","36000","52000","[1,3]","","",""
"","canvas-keyboard-response","223","163539","0.0-6.0-0.31","567","","","","","pre trial waiting period","null","null","","","critical","d","c","t","164","240","240","164","164","240","trueblood","0","h","164","240","240","164","164","240","39360","39360","39360","td","null","null","null","null","null","null","[3,1]","462.9259779061429","515.345373856608","457.92590567259623"
"","canvas-keyboard-response","224","163558","0.0-6.0-1.31","567","","","","","clear_screen","null","null","","","critical","d","c","t","164","240","240","164","164","240","trueblood","0","h","164","240","240","164","164","240","39360","39360","39360","td","null","null","null","null","null","null","[3,1]","462.9259779061429","515.345373856608","457.92590567259623"
"","canvas-keyboard-response","225","164064","0.0-6.0-2.31","567","","","","","rectangles no change","null","null","","","critical","d","c","t","164","240","240","164","164","240","trueblood","0","h","164","240","240","164","164","240","39360","39360","39360","td","null","null","null","null","null","null","[3,1]","462.9259779061429","515.345373856608","457.92590567259623"
"","canvas-keyboard-response","226","165404","0.0-6.0-3.31","567","","","","","rectangles with change","null","null","","","critical","d","c","t","164","240","240","164","164","240","trueblood","0","h","164","240","240","164","164","240","39360","39360","39360","td","null","null","null","null","null","null","[3,1]","462.9259779061429","515.345373856608","457.92590567259623"
"","canvas-keyboard-response","227","165426","0.0-6.0-4.31","567","","","","","clear_screen","null","null","","","critical","d","c","t","164","240","240","164","164","240","trueblood","0","h","164","240","240","164","164","240","39360","39360","39360","td","null","null","null","null","null","null","[3,1]","462.9259779061429","515.345373856608","457.92590567259623"
"","canvas-keyboard-response","228","165790","0.0-6.0-5.31","567","","","","","make choice","359","3","","","critical","d","c","t","164","240","240","164","164","240","trueblood","0","h","164","240","240","164","164","240","39360","39360","39360","td","null","null","null","null","null","null","[3,1]","","",""
"","canvas-keyboard-response","229","165808","0.0-6.0-6.31","567","","","","","clear_screen","null","null","","","critical","d","c","t","164","240","240","164","164","240","trueblood","0","h","164","240","240","164","164","240","39360","39360","39360","td","null","null","null","null","null","null","[3,1]","","",""
"","canvas-keyboard-response","230","166009","0.0-6.0-0.32","567","","","","","pre trial waiting period","null","null","","","critical","d","c","t","154.6796","220.0396","240","164","164","240","trueblood","0.14","h","164","240","240","164","154.6796","220.0396","39360","39360","34035.6388","td","null","null","null","null","null","null","[3,1]","473.5029143802498","476.4356365817814","442.5669931310601"
"","canvas-keyboard-response","231","166030","0.0-6.0-1.32","567","","","","","clear_screen","null","null","","","critical","d","c","t","154.6796","220.0396","240","164","164","240","trueblood","0.14","h","164","240","240","164","154.6796","220.0396","39360","39360","34035.6388","td","null","null","null","null","null","null","[3,1]","473.5029143802498","476.4356365817814","442.5669931310601"
"","canvas-keyboard-response","232","166538","0.0-6.0-2.32","567","","","","","rectangles no change","null","null","","","critical","d","c","t","154.6796","220.0396","240","164","164","240","trueblood","0.14","h","164","240","240","164","154.6796","220.0396","39360","39360","34035.6388","td","null","null","null","null","null","null","[3,1]","473.5029143802498","476.4356365817814","442.5669931310601"
"","canvas-keyboard-response","233","167876","0.0-6.0-3.32","567","","","","","rectangles with change","null","null","","","critical","d","c","t","154.6796","220.0396","240","164","164","240","trueblood","0.14","h","164","240","240","164","154.6796","220.0396","39360","39360","34035.6388","td","null","null","null","null","null","null","[3,1]","473.5029143802498","476.4356365817814","442.5669931310601"
"","canvas-keyboard-response","234","167899","0.0-6.0-4.32","567","","","","","clear_screen","null","null","","","critical","d","c","t","154.6796","220.0396","240","164","164","240","trueblood","0.14","h","164","240","240","164","154.6796","220.0396","39360","39360","34035.6388","td","null","null","null","null","null","null","[3,1]","473.5029143802498","476.4356365817814","442.5669931310601"
"","canvas-keyboard-response","235","168143","0.0-6.0-5.32","567","","","","","make choice","237","3","","","critical","d","c","t","154.6796","220.0396","240","164","164","240","trueblood","0.14","h","164","240","240","164","154.6796","220.0396","39360","39360","34035.6388","td","null","null","null","null","null","null","[3,1]","","",""
"","canvas-keyboard-response","236","168161","0.0-6.0-6.32","567","","","","","clear_screen","null","null","","","critical","d","c","t","154.6796","220.0396","240","164","164","240","trueblood","0.14","h","164","240","240","164","154.6796","220.0396","39360","39360","34035.6388","td","null","null","null","null","null","null","[3,1]","","",""
"","canvas-keyboard-response","237","168362","0.0-6.0-0.33","567","","","","","pre trial waiting period","null","null","","","catch","sw","l","sh","180","200","214","276","213","151","trueblood","null","null","null","null","null","null","null","null","null","null","null","","180","200","260","200","36000","52000","[2,3]","454.2365884196744","444.70303374175217","501.5396891567509"
"","canvas-keyboard-response","238","168382","0.0-6.0-1.33","567","","","","","clear_screen","null","null","","","catch","sw","l","sh","180","200","214","276","213","151","trueblood","null","null","null","null","null","null","null","null","null","null","null","","180","200","260","200","36000","52000","[2,3]","454.2365884196744","444.70303374175217","501.5396891567509"
"","canvas-keyboard-response","239","168891","0.0-6.0-2.33","567","","","","","rectangles no change","null","null","","","catch","sw","l","sh","180","200","214","276","213","151","trueblood","null","null","null","null","null","null","null","null","null","null","null","","180","200","260","200","36000","52000","[2,3]","454.2365884196744","444.70303374175217","501.5396891567509"
"","canvas-keyboard-response","240","170227","0.0-6.0-3.33","567","","","","","rectangles with change","null","null","","","catch","sw","l","sh","180","200","214","276","213","151","trueblood","null","null","null","null","null","null","null","null","null","null","null","","180","200","260","200","36000","52000","[2,3]","454.2365884196744","444.70303374175217","501.5396891567509"
"","canvas-keyboard-response","241","170247","0.0-6.0-4.33","567","","","","","clear_screen","null","null","","","catch","sw","l","sh","180","200","214","276","213","151","trueblood","null","null","null","null","null","null","null","null","null","null","null","","180","200","260","200","36000","52000","[2,3]","454.2365884196744","444.70303374175217","501.5396891567509"
"","canvas-keyboard-response","242","170558","0.0-6.0-5.33","567","","","","","make choice","304","2","","","catch","sw","l","sh","180","200","214","276","213","151","trueblood","null","null","null","null","null","null","null","null","null","null","null","","180","200","260","200","36000","52000","[2,3]","","",""
"","canvas-keyboard-response","243","170578","0.0-6.0-6.33","567","","","","","clear_screen","null","null","","","catch","sw","l","sh","180","200","214","276","213","151","trueblood","null","null","null","null","null","null","null","null","null","null","null","","180","200","260","200","36000","52000","[2,3]","","",""
"","canvas-keyboard-response","244","170779","0.0-6.0-0.34","567","","","","","pre trial waiting period","null","null","","","critical","t","d","c","164","240","160.6713","232.8713","240","164","trueblood","0.05","h","164","240","240","164","160.6713","232.8713","39360","39360","37415.7294","td","null","null","null","null","null","null","[1,2]","435.7111723280518","457.77117530732806","473.53744881617945"
"","canvas-keyboard-response","245","170799","0.0-6.0-1.34","567","","","","","clear_screen","null","null","","","critical","t","d","c","164","240","160.6713","232.8713","240","164","trueblood","0.05","h","164","240","240","164","160.6713","232.8713","39360","39360","37415.7294","td","null","null","null","null","null","null","[1,2]","435.7111723280518","457.77117530732806","473.53744881617945"
"","canvas-keyboard-response","246","171307","0.0-6.0-2.34","567","","","","","rectangles no change","null","null","","","critical","t","d","c","164","240","160.6713","232.8713","240","164","trueblood","0.05","h","164","240","240","164","160.6713","232.8713","39360","39360","37415.7294","td","null","null","null","null","null","null","[1,2]","435.7111723280518","457.77117530732806","473.53744881617945"
"","canvas-keyboard-response","247","172645","0.0-6.0-3.34","567","","","","","rectangles with change","null","null","","","critical","t","d","c","164","240","160.6713","232.8713","240","164","trueblood","0.05","h","164","240","240","164","160.6713","232.8713","39360","39360","37415.7294","td","null","null","null","null","null","null","[1,2]","435.7111723280518","457.77117530732806","473.53744881617945"
"","canvas-keyboard-response","248","172668","0.0-6.0-4.34","567","","","","","clear_screen","null","null","","","critical","t","d","c","164","240","160.6713","232.8713","240","164","trueblood","0.05","h","164","240","240","164","160.6713","232.8713","39360","39360","37415.7294","td","null","null","null","null","null","null","[1,2]","435.7111723280518","457.77117530732806","473.53744881617945"
"","canvas-keyboard-response","249","172959","0.0-6.0-5.34","567","","","","","make choice","281","1","","","critical","t","d","c","164","240","160.6713","232.8713","240","164","trueblood","0.05","h","164","240","240","164","160.6713","232.8713","39360","39360","37415.7294","td","null","null","null","null","null","null","[1,2]","","",""
"","canvas-keyboard-response","250","172978","0.0-6.0-6.34","567","","","","","clear_screen","null","null","","","critical","t","d","c","164","240","160.6713","232.8713","240","164","trueblood","0.05","h","164","240","240","164","160.6713","232.8713","39360","39360","37415.7294","td","null","null","null","null","null","null","[1,2]","","",""
"","canvas-keyboard-response","251","173180","0.0-6.0-0.35","567","","","","","pre trial waiting period","null","null","","","critical","t","d","c","240","164","240","164","164","240","trueblood","0","w","240","164","164","240","240","164","39360","39360","39360","td","null","null","null","null","null","null","[1,2]","513.1202873539575","503.0120015694788","460.83965398058257"
"","canvas-keyboard-response","252","173203","0.0-6.0-1.35","567","","","","","clear_screen","null","null","","","critical","t","d","c","240","164","240","164","164","240","trueblood","0","w","240","164","164","240","240","164","39360","39360","39360","td","null","null","null","null","null","null","[1,2]","513.1202873539575","503.0120015694788","460.83965398058257"
"","canvas-keyboard-response","253","173712","0.0-6.0-2.35","567","","","","","rectangles no change","null","null","","","critical","t","d","c","240","164","240","164","164","240","trueblood","0","w","240","164","164","240","240","164","39360","39360","39360","td","null","null","null","null","null","null","[1,2]","513.1202873539575","503.0120015694788","460.83965398058257"
"","canvas-keyboard-response","254","175046","0.0-6.0-3.35","567","","","","","rectangles with change","null","null","","","critical","t","d","c","240","164","240","164","164","240","trueblood","0","w","240","164","164","240","240","164","39360","39360","39360","td","null","null","null","null","null","null","[1,2]","513.1202873539575","503.0120015694788","460.83965398058257"
"","canvas-keyboard-response","255","175067","0.0-6.0-4.35","567","","","","","clear_screen","null","null","","","critical","t","d","c","240","164","240","164","164","240","trueblood","0","w","240","164","164","240","240","164","39360","39360","39360","td","null","null","null","null","null","null","[1,2]","513.1202873539575","503.0120015694788","460.83965398058257"
"","canvas-keyboard-response","256","175479","0.0-6.0-5.35","567","","","","","make choice","403","1","","","critical","t","d","c","240","164","240","164","164","240","trueblood","0","w","240","164","164","240","240","164","39360","39360","39360","td","null","null","null","null","null","null","[1,2]","","",""
"","canvas-keyboard-response","257","175499","0.0-6.0-6.35","567","","","","","clear_screen","null","null","","","critical","t","d","c","240","164","240","164","164","240","trueblood","0","w","240","164","164","240","240","164","39360","39360","39360","td","null","null","null","null","null","null","[1,2]","","",""
"","canvas-keyboard-response","258","175700","0.0-6.0-0.36","567","","","","","pre trial waiting period","null","null","","","critical","t","c","d","164","240","240","164","158.0083","227.1683","trueblood","0.09","h","164","240","240","164","158.0083","227.1683","39360","39360","35894.4834","tc","null","null","null","null","null","null","[1,2]","454.11274546356555","490.3292115983921","439.3637926437488"
"","canvas-keyboard-response","259","175722","0.0-6.0-1.36","567","","","","","clear_screen","null","null","","","critical","t","c","d","164","240","240","164","158.0083","227.1683","trueblood","0.09","h","164","240","240","164","158.0083","227.1683","39360","39360","35894.4834","tc","null","null","null","null","null","null","[1,2]","454.11274546356555","490.3292115983921","439.3637926437488"
"","canvas-keyboard-response","260","176230","0.0-6.0-2.36","567","","","","","rectangles no change","null","null","","","critical","t","c","d","164","240","240","164","158.0083","227.1683","trueblood","0.09","h","164","240","240","164","158.0083","227.1683","39360","39360","35894.4834","tc","null","null","null","null","null","null","[1,2]","454.11274546356555","490.3292115983921","439.3637926437488"
"","canvas-keyboard-response","261","177570","0.0-6.0-3.36","567","","","","","rectangles with change","null","null","","","critical","t","c","d","164","240","240","164","158.0083","227.1683","trueblood","0.09","h","164","240","240","164","158.0083","227.1683","39360","39360","35894.4834","tc","null","null","null","null","null","null","[1,2]","454.11274546356555","490.3292115983921","439.3637926437488"
"","canvas-keyboard-response","262","177591","0.0-6.0-4.36","567","","","","","clear_screen","null","null","","","critical","t","c","d","164","240","240","164","158.0083","227.1683","trueblood","0.09","h","164","240","240","164","158.0083","227.1683","39360","39360","35894.4834","tc","null","null","null","null","null","null","[1,2]","454.11274546356555","490.3292115983921","439.3637926437488"
"","canvas-keyboard-response","263","177783","0.0-6.0-5.36","567","","","","","make choice","185","2","","","critical","t","c","d","164","240","240","164","158.0083","227.1683","trueblood","0.09","h","164","240","240","164","158.0083","227.1683","39360","39360","35894.4834","tc","null","null","null","null","null","null","[1,2]","","",""
"","canvas-keyboard-response","264","177804","0.0-6.0-6.36","567","","","","","clear_screen","null","null","","","critical","t","c","d","164","240","240","164","158.0083","227.1683","trueblood","0.09","h","164","240","240","164","158.0083","227.1683","39360","39360","35894.4834","tc","null","null","null","null","null","null","[1,2]","","",""
"","canvas-keyboard-response","265","178004","0.0-6.0-0.37","567","","","","","pre trial waiting period","null","null","","","critical","d","t","c","162.6685","237.1485","164","240","240","164","trueblood","0.02","h","164","240","240","164","162.6685","237.1485","39360","39360","38576.5967","dc","null","null","null","null","null","null","[1,3]","445.65015752551034","460.2139626376935","487.2316744079267"
"","canvas-keyboard-response","266","178025","0.0-6.0-1.37","567","","","","","clear_screen","null","null","","","critical","d","t","c","162.6685","237.1485","164","240","240","164","trueblood","0.02","h","164","240","240","164","162.6685","237.1485","39360","39360","38576.5967","dc","null","null","null","null","null","null","[1,3]","445.65015752551034","460.2139626376935","487.2316744079267"
"","canvas-keyboard-response","267","178532","0.0-6.0-2.37","567","","","","","rectangles no change","null","null","","","critical","d","t","c","162.6685","237.1485","164","240","240","164","trueblood","0.02","h","164","240","240","164","162.6685","237.1485","39360","39360","38576.5967","dc","null","null","null","null","null","null","[1,3]","445.65015752551034","460.2139626376935","487.2316744079267"
"","canvas-keyboard-response","268","179871","0.0-6.0-3.37","567","","","","","rectangles with change","null","null","","","critical","d","t","c","162.6685","237.1485","164","240","240","164","trueblood","0.02","h","164","240","240","164","162.6685","237.1485","39360","39360","38576.5967","dc","null","null","null","null","null","null","[1,3]","445.65015752551034","460.2139626376935","487.2316744079267"
