"success","trial_type","trial_index","time_elapsed","internal_node_id","sub_n","timeout","failed_images","failed_audio","failed_video","screen_id","rt","response","stimulus","view_history","trial","r1","r2","r3","w1","h1","w2","h2","w3","h3","display","tdd","tdo","tw","th","cw","ch","dw","dh","ta","ca","da","probe","csls","csss","clls","clss","sa","la","probe_rects","r1yloc","r2yloc","r3yloc"
"true","fullscreen","0","1983","0.0-0.0","518","","","","","","","","","","","","","","","","","","","","","","","","","","","","","","","","","","","","","","","","","",""
"true","preload","1","2027","0.0-1.0","518","false","[]","[]","[]","img preload","","","","","","","","","","","","","","","","","","","","","","","","","","","","","","","","","","","","",""
"","survey-html-form","2","10804","0.0-2.0","518","","","","","enter-sub-number","8770","{""response"":""518""}","","","","","","","","","","","","","","","","","","","","","","","","","","","","","","","","","","",""
"","image-button-response","3","42254","0.0-3.0","518","","","","","","31383","0","consent.png","","","","","","","","","","","","","","","","","","","","","","","","","","","","","","","","","",""
"","html-button-response","4","46583","0.0-4.0","518","","","","","intro mssg","4321","0","<div style= ""font-size:25px;"" <p> <strong> Welcome! </strong><br> <p style=""color:#8B0000; font-size:25px;""><strong> Please do NOT exit full screen until you are done with the experiment. </strong> </p><p style=""font-size:25px;color:#8B0000;""> <strong> Your data will be lost <br> if you try to go back or refresh the page after the experiment starts. Feel free to click ""previous"" during the instructions, however.</strong> </p><br><p> <strong> Thanks in advance for your contribution to our research! </strong></p>","","","","","","","","","","","","","","","","","","","","","","","","","","","","","","","","","",""
"","instructions","5","75935","0.0-5.0","518","","","","","instructions","29348","","","[{""page_index"":0,""viewing_time"":4099},{""page_index"":1,""viewing_time"":4184},{""page_index"":2,""viewing_time"":1865},{""page_index"":3,""viewing_time"":9551},{""page_index"":4,""viewing_time"":3608},{""page_index"":5,""viewing_time"":1865},{""page_index"":6,""viewing_time"":2768},{""page_index"":7,""viewing_time"":1408}]","","","","","","","","","","","","","","","","","","","","","","","","","","","","","","","","",""
"","canvas-keyboard-response","6","76140","0.0-6.0-0.0","518","","","","","pre trial waiting period","null","null","","","critical","d","c","t","154.6796","220.0396","240","164","164","240","spektor","0.14","h","164","240","240","164","154.6796","220.0396","39360","39360","34035.6388","dc","null","null","null","null","null","null","[1,2]","481.0267246539013","161.4424051187764","483.49470297989996"
"","canvas-keyboard-response","7","76166","0.0-6.0-1.0","518","","","","","clear_screen","null","null","","","critical","d","c","t","154.6796","220.0396","240","164","164","240","spektor","0.14","h","164","240","240","164","154.6796","220.0396","39360","39360","34035.6388","dc","null","null","null","null","null","null","[1,2]","481.0267246539013","161.4424051187764","483.49470297989996"
"","canvas-keyboard-response","8","76694","0.0-6.0-2.0","518","","","","","rectangles no change","null","null","","","critical","d","c","t","154.6796","220.0396","240","164","164","240","spektor","0.14","h","164","240","240","164","154.6796","220.0396","39360","39360","34035.6388","dc","null","null","null","null","null","null","[1,2]","481.0267246539013","161.4424051187764","483.49470297989996"
"","canvas-keyboard-response","9","78030","0.0-6.0-3.0","518","","","","","rectangles with change","null","null","","","critical","d","c","t","154.6796","220.0396","240","164","164","240","spektor","0.14","h","164","240","240","164","154.6796","220.0396","39360","39360","34035.6388","dc","null","null","null","null","null","null","[1,2]","481.0267246539013","161.4424051187764","483.49470297989996"
"","canvas-keyboard-response","10","78049","0.0-6.0-4.0","518","","","","","clear_screen","null","null","","","critical","d","c","t","154.6796","220.0396","240","164","164","240","spektor","0.14","h","164","240","240","164","154.6796","220.0396","39360","39360","34035.6388","dc","null","null","null","null","null","null","[1,2]","481.0267246539013","161.4424051187764","483.49470297989996"
"","canvas-keyboard-response","11","80109","0.0-6.0-5.0","518","","","","","make choice","2051","2","","","critical","d","c","t","154.6796","220.0396","240","164","164","240","spektor","0.14","h","164","240","240","164","154.6796","220.0396","39360","39360","34035.6388","dc","null","null","null","null","null","null","[1,2]","","",""
"","canvas-keyboard-response","12","80132","0.0-6.0-6.0","518","","","","","clear_screen","null","null","","","critical","d","c","t","154.6796","220.0396","240","164","164","240","spektor","0.14","h","164","240","240","164","154.6796","220.0396","39360","39360","34035.6388","dc","null","null","null","null","null","null","[1,2]","","",""
"","canvas-keyboard-response","13","80334","0.0-6.0-0.1","518","","","","","pre trial waiting period","null","null","","","critical","d","t","c","232.8713","160.6713","240","164","164","240","spektor","0.05","w","240","164","164","240","232.8713","160.6713","39360","39360","37415.7294","td","null","null","null","null","null","null","[2,1]","527.4885706591002","181.6565461628669","476.8354821108419"
"","canvas-keyboard-response","14","80356","0.0-6.0-1.1","518","","","","","clear_screen","null","null","","","critical","d","t","c","232.8713","160.6713","240","164","164","240","spektor","0.05","w","240","164","164","240","232.8713","160.6713","39360","39360","37415.7294","td","null","null","null","null","null","null","[2,1]","527.4885706591002","181.6565461628669","476.8354821108419"
"","canvas-keyboard-response","15","80864","0.0-6.0-2.1","518","","","","","rectangles no change","null","null","","","critical","d","t","c","232.8713","160.6713","240","164","164","240","spektor","0.05","w","240","164","164","240","232.8713","160.6713","39360","39360","37415.7294","td","null","null","null","null","null","null","[2,1]","527.4885706591002","181.6565461628669","476.8354821108419"
"","canvas-keyboard-response","16","82204","0.0-6.0-3.1","518","","","","","rectangles with change","null","null","","","critical","d","t","c","232.8713","160.6713","240","164","164","240","spektor","0.05","w","240","164","164","240","232.8713","160.6713","39360","39360","37415.7294","td","null","null","null","null","null","null","[2,1]","527.4885706591002","181.6565461628669","476.8354821108419"
"","canvas-keyboard-response","17","82224","0.0-6.0-4.1","518","","","","","clear_screen","null","null","","","critical","d","t","c","232.8713","160.6713","240","164","164","240","spektor","0.05","w","240","164","164","240","232.8713","160.6713","39360","39360","37415.7294","td","null","null","null","null","null","null","[2,1]","527.4885706591002","181.6565461628669","476.8354821108419"
"","canvas-keyboard-response","18","83302","0.0-6.0-5.1","518","","","","","make choice","1066","2","","","critical","d","t","c","232.8713","160.6713","240","164","164","240","spektor","0.05","w","240","164","164","240","232.8713","160.6713","39360","39360","37415.7294","td","null","null","null","null","null","null","[2,1]","","",""
"","canvas-keyboard-response","19","83323","0.0-6.0-6.1","518","","","","","clear_screen","null","null","","","critical","d","t","c","232.8713","160.6713","240","164","164","240","spektor","0.05","w","240","164","164","240","232.8713","160.6713","39360","39360","37415.7294","td","null","null","null","null","null","null","[2,1]","","",""
"","canvas-keyboard-response","20","83525","0.0-6.0-0.2","518","","","","","pre trial waiting period","null","null","","","critical","d","c","t","160.6713","232.8713","240","164","164","240","trueblood","0.05","h","164","240","240","164","160.6713","232.8713","39360","39360","37415.7294","tc","null","null","null","null","null","null","[3,2]","455.1943772657138","506.51178580517677","462.3317695267224"
"","canvas-keyboard-response","21","83545","0.0-6.0-1.2","518","","","","","clear_screen","null","null","","","critical","d","c","t","160.6713","232.8713","240","164","164","240","trueblood","0.05","h","164","240","240","164","160.6713","232.8713","39360","39360","37415.7294","tc","null","null","null","null","null","null","[3,2]","455.1943772657138","506.51178580517677","462.3317695267224"
"","canvas-keyboard-response","22","84053","0.0-6.0-2.2","518","","","","","rectangles no change","null","null","","","critical","d","c","t","160.6713","232.8713","240","164","164","240","trueblood","0.05","h","164","240","240","164","160.6713","232.8713","39360","39360","37415.7294","tc","null","null","null","null","null","null","[3,2]","455.1943772657138","506.51178580517677","462.3317695267224"
"","canvas-keyboard-response","23","85387","0.0-6.0-3.2","518","","","","","rectangles with change","null","null","","","critical","d","c","t","160.6713","232.8713","240","164","164","240","trueblood","0.05","h","164","240","240","164","160.6713","232.8713","39360","39360","37415.7294","tc","null","null","null","null","null","null","[3,2]","455.1943772657138","506.51178580517677","462.3317695267224"
"","canvas-keyboard-response","24","85411","0.0-6.0-4.2","518","","","","","clear_screen","null","null","","","critical","d","c","t","160.6713","232.8713","240","164","164","240","trueblood","0.05","h","164","240","240","164","160.6713","232.8713","39360","39360","37415.7294","tc","null","null","null","null","null","null","[3,2]","455.1943772657138","506.51178580517677","462.3317695267224"
"","canvas-keyboard-response","25","86677","0.0-6.0-5.2","518","","","","","make choice","1260","2","","","critical","d","c","t","160.6713","232.8713","240","164","164","240","trueblood","0.05","h","164","240","240","164","160.6713","232.8713","39360","39360","37415.7294","tc","null","null","null","null","null","null","[3,2]","","",""
"","canvas-keyboard-response","26","86696","0.0-6.0-6.2","518","","","","","clear_screen","null","null","","","critical","d","c","t","160.6713","232.8713","240","164","164","240","trueblood","0.05","h","164","240","240","164","160.6713","232.8713","39360","39360","37415.7294","tc","null","null","null","null","null","null","[3,2]","","",""
"","canvas-keyboard-response","27","86898","0.0-6.0-0.3","518","","","","","pre trial waiting period","null","null","","","critical","d","t","c","232.8713","160.6713","240","164","164","240","spektor","0.05","w","240","164","164","240","232.8713","160.6713","39360","39360","37415.7294","tc","null","null","null","null","null","null","[2,3]","509.17272255375144","185.50521838291075","459.4746192183928"
"","canvas-keyboard-response","28","86917","0.0-6.0-1.3","518","","","","","clear_screen","null","null","","","critical","d","t","c","232.8713","160.6713","240","164","164","240","spektor","0.05","w","240","164","164","240","232.8713","160.6713","39360","39360","37415.7294","tc","null","null","null","null","null","null","[2,3]","509.17272255375144","185.50521838291075","459.4746192183928"
"","canvas-keyboard-response","29","87424","0.0-6.0-2.3","518","","","","","rectangles no change","null","null","","","critical","d","t","c","232.8713","160.6713","240","164","164","240","spektor","0.05","w","240","164","164","240","232.8713","160.6713","39360","39360","37415.7294","tc","null","null","null","null","null","null","[2,3]","509.17272255375144","185.50521838291075","459.4746192183928"
"","canvas-keyboard-response","30","88760","0.0-6.0-3.3","518","","","","","rectangles with change","null","null","","","critical","d","t","c","232.8713","160.6713","240","164","164","240","spektor","0.05","w","240","164","164","240","232.8713","160.6713","39360","39360","37415.7294","tc","null","null","null","null","null","null","[2,3]","509.17272255375144","185.50521838291075","459.4746192183928"
"","canvas-keyboard-response","31","88779","0.0-6.0-4.3","518","","","","","clear_screen","null","null","","","critical","d","t","c","232.8713","160.6713","240","164","164","240","spektor","0.05","w","240","164","164","240","232.8713","160.6713","39360","39360","37415.7294","tc","null","null","null","null","null","null","[2,3]","509.17272255375144","185.50521838291075","459.4746192183928"
"","canvas-keyboard-response","32","89253","0.0-6.0-5.3","518","","","","","make choice","468","3","","","critical","d","t","c","232.8713","160.6713","240","164","164","240","spektor","0.05","w","240","164","164","240","232.8713","160.6713","39360","39360","37415.7294","tc","null","null","null","null","null","null","[2,3]","","",""
"","canvas-keyboard-response","33","89270","0.0-6.0-6.3","518","","","","","clear_screen","null","null","","","critical","d","t","c","232.8713","160.6713","240","164","164","240","spektor","0.05","w","240","164","164","240","232.8713","160.6713","39360","39360","37415.7294","tc","null","null","null","null","null","null","[2,3]","","",""
"","canvas-keyboard-response","34","89471","0.0-6.0-0.4","518","","","","","pre trial waiting period","null","null","","","critical","c","t","d","240","164","164","240","158.0083","227.1683","trueblood","0.09","h","164","240","240","164","158.0083","227.1683","39360","39360","35894.4834","dc","null","null","null","null","null","null","[3,1]","488.64437260603427","464.02293292696334","454.1439014899568"
"","canvas-keyboard-response","35","89487","0.0-6.0-1.4","518","","","","","clear_screen","null","null","","","critical","c","t","d","240","164","164","240","158.0083","227.1683","trueblood","0.09","h","164","240","240","164","158.0083","227.1683","39360","39360","35894.4834","dc","null","null","null","null","null","null","[3,1]","488.64437260603427","464.02293292696334","454.1439014899568"
"","canvas-keyboard-response","36","89993","0.0-6.0-2.4","518","","","","","rectangles no change","null","null","","","critical","c","t","d","240","164","164","240","158.0083","227.1683","trueblood","0.09","h","164","240","240","164","158.0083","227.1683","39360","39360","35894.4834","dc","null","null","null","null","null","null","[3,1]","488.64437260603427","464.02293292696334","454.1439014899568"
"","canvas-keyboard-response","37","91333","0.0-6.0-3.4","518","","","","","rectangles with change","null","null","","","critical","c","t","d","240","164","164","240","158.0083","227.1683","trueblood","0.09","h","164","240","240","164","158.0083","227.1683","39360","39360","35894.4834","dc","null","null","null","null","null","null","[3,1]","488.64437260603427","464.02293292696334","454.1439014899568"
"","canvas-keyboard-response","38","91353","0.0-6.0-4.4","518","","","","","clear_screen","null","null","","","critical","c","t","d","240","164","164","240","158.0083","227.1683","trueblood","0.09","h","164","240","240","164","158.0083","227.1683","39360","39360","35894.4834","dc","null","null","null","null","null","null","[3,1]","488.64437260603427","464.02293292696334","454.1439014899568"
"","canvas-keyboard-response","39","92076","0.0-6.0-5.4","518","","","","","make choice","717","1","","","critical","c","t","d","240","164","164","240","158.0083","227.1683","trueblood","0.09","h","164","240","240","164","158.0083","227.1683","39360","39360","35894.4834","dc","null","null","null","null","null","null","[3,1]","","",""
"","canvas-keyboard-response","40","92093","0.0-6.0-6.4","518","","","","","clear_screen","null","null","","","critical","c","t","d","240","164","164","240","158.0083","227.1683","trueblood","0.09","h","164","240","240","164","158.0083","227.1683","39360","39360","35894.4834","dc","null","null","null","null","null","null","[3,1]","","",""
"","canvas-keyboard-response","41","92295","0.0-6.0-0.5","518","","","","","pre trial waiting period","null","null","","","catch","sh","sw","l","225","150","196","215","232","224","trueblood","null","null","null","null","null","null","null","null","null","null","null","","180","200","260","200","36000","52000","[2,3]","504.2130694277785","435.516117544023","448.844340400058"
"","canvas-keyboard-response","42","92317","0.0-6.0-1.5","518","","","","","clear_screen","null","null","","","catch","sh","sw","l","225","150","196","215","232","224","trueblood","null","null","null","null","null","null","null","null","null","null","null","","180","200","260","200","36000","52000","[2,3]","504.2130694277785","435.516117544023","448.844340400058"
"","canvas-keyboard-response","43","92827","0.0-6.0-2.5","518","","","","","rectangles no change","null","null","","","catch","sh","sw","l","225","150","196","215","232","224","trueblood","null","null","null","null","null","null","null","null","null","null","null","","180","200","260","200","36000","52000","[2,3]","504.2130694277785","435.516117544023","448.844340400058"
"","canvas-keyboard-response","44","94162","0.0-6.0-3.5","518","","","","","rectangles with change","null","null","","","catch","sh","sw","l","225","150","196","215","232","224","trueblood","null","null","null","null","null","null","null","null","null","null","null","","180","200","260","200","36000","52000","[2,3]","504.2130694277785","435.516117544023","448.844340400058"
"","canvas-keyboard-response","45","94181","0.0-6.0-4.5","518","","","","","clear_screen","null","null","","","catch","sh","sw","l","225","150","196","215","232","224","trueblood","null","null","null","null","null","null","null","null","null","null","null","","180","200","260","200","36000","52000","[2,3]","504.2130694277785","435.516117544023","448.844340400058"
"","canvas-keyboard-response","46","94469","0.0-6.0-5.5","518","","","","","make choice","283","3","","","catch","sh","sw","l","225","150","196","215","232","224","trueblood","null","null","null","null","null","null","null","null","null","null","null","","180","200","260","200","36000","52000","[2,3]","","",""
"","canvas-keyboard-response","47","94486","0.0-6.0-6.5","518","","","","","clear_screen","null","null","","","catch","sh","sw","l","225","150","196","215","232","224","trueblood","null","null","null","null","null","null","null","null","null","null","null","","180","200","260","200","36000","52000","[2,3]","","",""
"","canvas-keyboard-response","48","94688","0.0-6.0-0.6","518","","","","","pre trial waiting period","null","null","","","critical","d","c","t","160.6713","232.8713","240","164","164","240","trueblood","0.05","h","164","240","240","164","160.6713","232.8713","39360","39360","37415.7294","dc","null","null","null","null","null","null","[1,2]","462.2741197132582","498.63421924973807","429.8151209335959"
"","canvas-keyboard-response","49","94707","0.0-6.0-1.6","518","","","","","clear_screen","null","null","","","critical","d","c","t","160.6713","232.8713","240","164","164","240","trueblood","0.05","h","164","240","240","164","160.6713","232.8713","39360","39360","37415.7294","dc","null","null","null","null","null","null","[1,2]","462.2741197132582","498.63421924973807","429.8151209335959"
"","canvas-keyboard-response","50","95215","0.0-6.0-2.6","518","","","","","rectangles no change","null","null","","","critical","d","c","t","160.6713","232.8713","240","164","164","240","trueblood","0.05","h","164","240","240","164","160.6713","232.8713","39360","39360","37415.7294","dc","null","null","null","null","null","null","[1,2]","462.2741197132582","498.63421924973807","429.8151209335959"
"","canvas-keyboard-response","51","96554","0.0-6.0-3.6","518","","","","","rectangles with change","null","null","","","critical","d","c","t","160.6713","232.8713","240","164","164","240","trueblood","0.05","h","164","240","240","164","160.6713","232.8713","39360","39360","37415.7294","dc","null","null","null","null","null","null","[1,2]","462.2741197132582","498.63421924973807","429.8151209335959"
"","canvas-keyboard-response","52","96572","0.0-6.0-4.6","518","","","","","clear_screen","null","null","","","critical","d","c","t","160.6713","232.8713","240","164","164","240","trueblood","0.05","h","164","240","240","164","160.6713","232.8713","39360","39360","37415.7294","dc","null","null","null","null","null","null","[1,2]","462.2741197132582","498.63421924973807","429.8151209335959"
"","canvas-keyboard-response","53","97589","0.0-6.0-5.6","518","","","","","make choice","1014","2","","","critical","d","c","t","160.6713","232.8713","240","164","164","240","trueblood","0.05","h","164","240","240","164","160.6713","232.8713","39360","39360","37415.7294","dc","null","null","null","null","null","null","[1,2]","","",""
"","canvas-keyboard-response","54","97607","0.0-6.0-6.6","518","","","","","clear_screen","null","null","","","critical","d","c","t","160.6713","232.8713","240","164","164","240","trueblood","0.05","h","164","240","240","164","160.6713","232.8713","39360","39360","37415.7294","dc","null","null","null","null","null","null","[1,2]","","",""
"","canvas-keyboard-response","55","97809","0.0-6.0-0.7","518","","","","","pre trial waiting period","null","null","","","critical","c","d","t","164","240","232.8713","160.6713","240","164","spektor","0.05","w","240","164","164","240","232.8713","160.6713","39360","39360","37415.7294","dc","null","null","null","null","null","null","[2,1]","490.4244361742364","194.6674708221237","533.0497341427622"
"","canvas-keyboard-response","56","97831","0.0-6.0-1.7","518","","","","","clear_screen","null","null","","","critical","c","d","t","164","240","232.8713","160.6713","240","164","spektor","0.05","w","240","164","164","240","232.8713","160.6713","39360","39360","37415.7294","dc","null","null","null","null","null","null","[2,1]","490.4244361742364","194.6674708221237","533.0497341427622"
"","canvas-keyboard-response","57","98338","0.0-6.0-2.7","518","","","","","rectangles no change","null","null","","","critical","c","d","t","164","240","232.8713","160.6713","240","164","spektor","0.05","w","240","164","164","240","232.8713","160.6713","39360","39360","37415.7294","dc","null","null","null","null","null","null","[2,1]","490.4244361742364","194.6674708221237","533.0497341427622"
"","canvas-keyboard-response","58","99674","0.0-6.0-3.7","518","","","","","rectangles with change","null","null","","","critical","c","d","t","164","240","232.8713","160.6713","240","164","spektor","0.05","w","240","164","164","240","232.8713","160.6713","39360","39360","37415.7294","dc","null","null","null","null","null","null","[2,1]","490.4244361742364","194.6674708221237","533.0497341427622"
"","canvas-keyboard-response","59","99691","0.0-6.0-4.7","518","","","","","clear_screen","null","null","","","critical","c","d","t","164","240","232.8713","160.6713","240","164","spektor","0.05","w","240","164","164","240","232.8713","160.6713","39360","39360","37415.7294","dc","null","null","null","null","null","null","[2,1]","490.4244361742364","194.6674708221237","533.0497341427622"
"","canvas-keyboard-response","60","100116","0.0-6.0-5.7","518","","","","","make choice","419","1","","","critical","c","d","t","164","240","232.8713","160.6713","240","164","spektor","0.05","w","240","164","164","240","232.8713","160.6713","39360","39360","37415.7294","dc","null","null","null","null","null","null","[2,1]","","",""
"","canvas-keyboard-response","61","100133","0.0-6.0-6.7","518","","","","","clear_screen","null","null","","","critical","c","d","t","164","240","232.8713","160.6713","240","164","spektor","0.05","w","240","164","164","240","232.8713","160.6713","39360","39360","37415.7294","dc","null","null","null","null","null","null","[2,1]","","",""
"","canvas-keyboard-response","62","100334","0.0-6.0-0.8","518","","","","","pre trial waiting period","null","null","","","critical","t","d","c","164","240","162.6685","237.1485","240","164","trueblood","0.02","h","164","240","240","164","162.6685","237.1485","39360","39360","38576.5967","td","null","null","null","null","null","null","[1,2]","432.21422559136585","449.0880883941698","518.0339346512221"
"","canvas-keyboard-response","63","100352","0.0-6.0-1.8","518","","","","","clear_screen","null","null","","","critical","t","d","c","164","240","162.6685","237.1485","240","164","trueblood","0.02","h","164","240","240","164","162.6685","237.1485","39360","39360","38576.5967","td","null","null","null","null","null","null","[1,2]","432.21422559136585","449.0880883941698","518.0339346512221"
"","canvas-keyboard-response","64","100860","0.0-6.0-2.8","518","","","","","rectangles no change","null","null","","","critical","t","d","c","164","240","162.6685","237.1485","240","164","trueblood","0.02","h","164","240","240","164","162.6685","237.1485","39360","39360","38576.5967","td","null","null","null","null","null","null","[1,2]","432.21422559136585","449.0880883941698","518.0339346512221"
"","canvas-keyboard-response","65","102195","0.0-6.0-3.8","518","","","","","rectangles with change","null","null","","","critical","t","d","c","164","240","162.6685","237.1485","240","164","trueblood","0.02","h","164","240","240","164","162.6685","237.1485","39360","39360","38576.5967","td","null","null","null","null","null","null","[1,2]","432.21422559136585","449.0880883941698","518.0339346512221"
"","canvas-keyboard-response","66","102213","0.0-6.0-4.8","518","","","","","clear_screen","null","null","","","critical","t","d","c","164","240","162.6685","237.1485","240","164","trueblood","0.02","h","164","240","240","164","162.6685","237.1485","39360","39360","38576.5967","td","null","null","null","null","null","null","[1,2]","432.21422559136585","449.0880883941698","518.0339346512221"
"","canvas-keyboard-response","67","103085","0.0-6.0-5.8","518","","","","","make choice","863","2","","","critical","t","d","c","164","240","162.6685","237.1485","240","164","trueblood","0.02","h","164","240","240","164","162.6685","237.1485","39360","39360","38576.5967","td","null","null","null","null","null","null","[1,2]","","",""
"","canvas-keyboard-response","68","103105","0.0-6.0-6.8","518","","","","","clear_screen","null","null","","","critical","t","d","c","164","240","162.6685","237.1485","240","164","trueblood","0.02","h","164","240","240","164","162.6685","237.1485","39360","39360","38576.5967","td","null","null","null","null","null","null","[1,2]","","",""
"","canvas-keyboard-response","69","103305","0.0-6.0-0.9","518","","","","","pre trial waiting period","null","null","","","catch","l","sw","sh","221","234","170","214","217","205","spektor","null","null","null","null","null","null","null","null","null","null","null","","180","200","260","200","36000","52000","[1,3]","488.66146631300643","145.93246313217853","486.23629306894446"
"","canvas-keyboard-response","70","103328","0.0-6.0-1.9","518","","","","","clear_screen","null","null","","","catch","l","sw","sh","221","234","170","214","217","205","spektor","null","null","null","null","null","null","null","null","null","null","null","","180","200","260","200","36000","52000","[1,3]","488.66146631300643","145.93246313217853","486.23629306894446"
"","canvas-keyboard-response","71","103836","0.0-6.0-2.9","518","","","","","rectangles no change","null","null","","","catch","l","sw","sh","221","234","170","214","217","205","spektor","null","null","null","null","null","null","null","null","null","null","null","","180","200","260","200","36000","52000","[1,3]","488.66146631300643","145.93246313217853","486.23629306894446"
"","canvas-keyboard-response","72","105175","0.0-6.0-3.9","518","","","","","rectangles with change","null","null","","","catch","l","sw","sh","221","234","170","214","217","205","spektor","null","null","null","null","null","null","null","null","null","null","null","","180","200","260","200","36000","52000","[1,3]","488.66146631300643","145.93246313217853","486.23629306894446"
"","canvas-keyboard-response","73","105197","0.0-6.0-4.9","518","","","","","clear_screen","null","null","","","catch","l","sw","sh","221","234","170","214","217","205","spektor","null","null","null","null","null","null","null","null","null","null","null","","180","200","260","200","36000","52000","[1,3]","488.66146631300643","145.93246313217853","486.23629306894446"
"","canvas-keyboard-response","74","105486","0.0-6.0-5.9","518","","","","","make choice","284","1","","","catch","l","sw","sh","221","234","170","214","217","205","spektor","null","null","null","null","null","null","null","null","null","null","null","","180","200","260","200","36000","52000","[1,3]","","",""
"","canvas-keyboard-response","75","105507","0.0-6.0-6.9","518","","","","","clear_screen","null","null","","","catch","l","sw","sh","221","234","170","214","217","205","spektor","null","null","null","null","null","null","null","null","null","null","null","","180","200","260","200","36000","52000","[1,3]","","",""
"","canvas-keyboard-response","76","105708","0.0-6.0-0.10","518","","","","","pre trial waiting period","null","null","","","catch","sh","sw","l","167","186","171","174","171","275","spektor","null","null","null","null","null","null","null","null","null","null","null","","180","200","260","200","36000","52000","[1,3]","490.60821495869146","176.62541265600322","456.11283251921947"
"","canvas-keyboard-response","77","105731","0.0-6.0-1.10","518","","","","","clear_screen","null","null","","","catch","sh","sw","l","167","186","171","174","171","275","spektor","null","null","null","null","null","null","null","null","null","null","null","","180","200","260","200","36000","52000","[1,3]","490.60821495869146","176.62541265600322","456.11283251921947"
"","canvas-keyboard-response","78","106239","0.0-6.0-2.10","518","","","","","rectangles no change","null","null","","","catch","sh","sw","l","167","186","171","174","171","275","spektor","null","null","null","null","null","null","null","null","null","null","null","","180","200","260","200","36000","52000","[1,3]","490.60821495869146","176.62541265600322","456.11283251921947"
"","canvas-keyboard-response","79","107577","0.0-6.0-3.10","518","","","","","rectangles with change","null","null","","","catch","sh","sw","l","167","186","171","174","171","275","spektor","null","null","null","null","null","null","null","null","null","null","null","","180","200","260","200","36000","52000","[1,3]","490.60821495869146","176.62541265600322","456.11283251921947"
"","canvas-keyboard-response","80","107599","0.0-6.0-4.10","518","","","","","clear_screen","null","null","","","catch","sh","sw","l","167","186","171","174","171","275","spektor","null","null","null","null","null","null","null","null","null","null","null","","180","200","260","200","36000","52000","[1,3]","490.60821495869146","176.62541265600322","456.11283251921947"
"","canvas-keyboard-response","81","107934","0.0-6.0-5.10","518","","","","","make choice","329","3","","","catch","sh","sw","l","167","186","171","174","171","275","spektor","null","null","null","null","null","null","null","null","null","null","null","","180","200","260","200","36000","52000","[1,3]","","",""
"","canvas-keyboard-response","82","107953","0.0-6.0-6.10","518","","","","","clear_screen","null","null","","","catch","sh","sw","l","167","186","171","174","171","275","spektor","null","null","null","null","null","null","null","null","null","null","null","","180","200","260","200","36000","52000","[1,3]","","",""
"","canvas-keyboard-response","83","108153","0.0-6.0-0.11","518","","","","","pre trial waiting period","null","null","","","critical","d","t","c","154.6796","220.0396","164","240","240","164","trueblood","0.14","h","164","240","240","164","154.6796","220.0396","39360","39360","34035.6388","dc","null","null","null","null","null","null","[1,3]","432.50368668687855","459.2668162529845","507.79531814599557"
"","canvas-keyboard-response","84","108173","0.0-6.0-1.11","518","","","","","clear_screen","null","null","","","critical","d","t","c","154.6796","220.0396","164","240","240","164","trueblood","0.14","h","164","240","240","164","154.6796","220.0396","39360","39360","34035.6388","dc","null","null","null","null","null","null","[1,3]","432.50368668687855","459.2668162529845","507.79531814599557"
"","canvas-keyboard-response","85","108678","0.0-6.0-2.11","518","","","","","rectangles no change","null","null","","","critical","d","t","c","154.6796","220.0396","164","240","240","164","trueblood","0.14","h","164","240","240","164","154.6796","220.0396","39360","39360","34035.6388","dc","null","null","null","null","null","null","[1,3]","432.50368668687855","459.2668162529845","507.79531814599557"
"","canvas-keyboard-response","86","110015","0.0-6.0-3.11","518","","","","","rectangles with change","null","null","","","critical","d","t","c","154.6796","220.0396","164","240","240","164","trueblood","0.14","h","164","240","240","164","154.6796","220.0396","39360","39360","34035.6388","dc","null","null","null","null","null","null","[1,3]","432.50368668687855","459.2668162529845","507.79531814599557"
"","canvas-keyboard-response","87","110037","0.0-6.0-4.11","518","","","","","clear_screen","null","null","","","critical","d","t","c","154.6796","220.0396","164","240","240","164","trueblood","0.14","h","164","240","240","164","154.6796","220.0396","39360","39360","34035.6388","dc","null","null","null","null","null","null","[1,3]","432.50368668687855","459.2668162529845","507.79531814599557"
"","canvas-keyboard-response","88","110405","0.0-6.0-5.11","518","","","","","make choice","365","3","","","critical","d","t","c","154.6796","220.0396","164","240","240","164","trueblood","0.14","h","164","240","240","164","154.6796","220.0396","39360","39360","34035.6388","dc","null","null","null","null","null","null","[1,3]","","",""
"","canvas-keyboard-response","89","110423","0.0-6.0-6.11","518","","","","","clear_screen","null","null","","","critical","d","t","c","154.6796","220.0396","164","240","240","164","trueblood","0.14","h","164","240","240","164","154.6796","220.0396","39360","39360","34035.6388","dc","null","null","null","null","null","null","[1,3]","","",""
"","canvas-keyboard-response","90","110625","0.0-6.0-0.12","518","","","","","pre trial waiting period","null","null","","","critical","t","d","c","240","164","232.8713","160.6713","164","240","trueblood","0.05","w","240","164","164","240","232.8713","160.6713","39360","39360","37415.7294","td","null","null","null","null","null","null","[1,2]","508.2546888761522","489.34520895754457","445.5256369169954"
"","canvas-keyboard-response","91","110641","0.0-6.0-1.12","518","","","","","clear_screen","null","null","","","critical","t","d","c","240","164","232.8713","160.6713","164","240","trueblood","0.05","w","240","164","164","240","232.8713","160.6713","39360","39360","37415.7294","td","null","null","null","null","null","null","[1,2]","508.2546888761522","489.34520895754457","445.5256369169954"
"","canvas-keyboard-response","92","111151","0.0-6.0-2.12","518","","","","","rectangles no change","null","null","","","critical","t","d","c","240","164","232.8713","160.6713","164","240","trueblood","0.05","w","240","164","164","240","232.8713","160.6713","39360","39360","37415.7294","td","null","null","null","null","null","null","[1,2]","508.2546888761522","489.34520895754457","445.5256369169954"
"","canvas-keyboard-response","93","112484","0.0-6.0-3.12","518","","","","","rectangles with change","null","null","","","critical","t","d","c","240","164","232.8713","160.6713","164","240","trueblood","0.05","w","240","164","164","240","232.8713","160.6713","39360","39360","37415.7294","td","null","null","null","null","null","null","[1,2]","508.2546888761522","489.34520895754457","445.5256369169954"
"","canvas-keyboard-response","94","112502","0.0-6.0-4.12","518","","","","","clear_screen","null","null","","","critical","t","d","c","240","164","232.8713","160.6713","164","240","trueblood","0.05","w","240","164","164","240","232.8713","160.6713","39360","39360","37415.7294","td","null","null","null","null","null","null","[1,2]","508.2546888761522","489.34520895754457","445.5256369169954"
"","canvas-keyboard-response","95","112757","0.0-6.0-5.12","518","","","","","make choice","250","1","","","critical","t","d","c","240","164","232.8713","160.6713","164","240","trueblood","0.05","w","240","164","164","240","232.8713","160.6713","39360","39360","37415.7294","td","null","null","null","null","null","null","[1,2]","","",""
"","canvas-keyboard-response","96","112779","0.0-6.0-6.12","518","","","","","clear_screen","null","null","","","critical","t","d","c","240","164","232.8713","160.6713","164","240","trueblood","0.05","w","240","164","164","240","232.8713","160.6713","39360","39360","37415.7294","td","null","null","null","null","null","null","[1,2]","","",""
"","canvas-keyboard-response","97","112980","0.0-6.0-0.13","518","","","","","pre trial waiting period","null","null","","","catch","sh","l","sw","186","160","203","282","162","201","spektor","null","null","null","null","null","null","null","null","null","null","null","","180","200","260","200","36000","52000","[1,2]","531.9137897188964","86.37327848908421","512.8232603654272"
"","canvas-keyboard-response","98","113000","0.0-6.0-1.13","518","","","","","clear_screen","null","null","","","catch","sh","l","sw","186","160","203","282","162","201","spektor","null","null","null","null","null","null","null","null","null","null","null","","180","200","260","200","36000","52000","[1,2]","531.9137897188964","86.37327848908421","512.8232603654272"
"","canvas-keyboard-response","99","113508","0.0-6.0-2.13","518","","","","","rectangles no change","null","null","","","catch","sh","l","sw","186","160","203","282","162","201","spektor","null","null","null","null","null","null","null","null","null","null","null","","180","200","260","200","36000","52000","[1,2]","531.9137897188964","86.37327848908421","512.8232603654272"
"","canvas-keyboard-response","100","114846","0.0-6.0-3.13","518","","","","","rectangles with change","null","null","","","catch","sh","l","sw","186","160","203","282","162","201","spektor","null","null","null","null","null","null","null","null","null","null","null","","180","200","260","200","36000","52000","[1,2]","531.9137897188964","86.37327848908421","512.8232603654272"
"","canvas-keyboard-response","101","114867","0.0-6.0-4.13","518","","","","","clear_screen","null","null","","","catch","sh","l","sw","186","160","203","282","162","201","spektor","null","null","null","null","null","null","null","null","null","null","null","","180","200","260","200","36000","52000","[1,2]","531.9137897188964","86.37327848908421","512.8232603654272"
"","canvas-keyboard-response","102","115237","0.0-6.0-5.13","518","","","","","make choice","364","2","","","catch","sh","l","sw","186","160","203","282","162","201","spektor","null","null","null","null","null","null","null","null","null","null","null","","180","200","260","200","36000","52000","[1,2]","","",""
"","canvas-keyboard-response","103","115254","0.0-6.0-6.13","518","","","","","clear_screen","null","null","","","catch","sh","l","sw","186","160","203","282","162","201","spektor","null","null","null","null","null","null","null","null","null","null","null","","180","200","260","200","36000","52000","[1,2]","","",""
"","canvas-keyboard-response","104","115455","0.0-6.0-0.14","518","","","","","pre trial waiting period","null","null","","","critical","t","c","d","240","164","164","240","237.1485","162.6685","spektor","0.02","w","240","164","164","240","237.1485","162.6685","39360","39360","38576.5967","td","null","null","null","null","null","null","[1,3]","529.5590056309961","111.07812225710646","516.4792906732629"
"","canvas-keyboard-response","105","115477","0.0-6.0-1.14","518","","","","","clear_screen","null","null","","","critical","t","c","d","240","164","164","240","237.1485","162.6685","spektor","0.02","w","240","164","164","240","237.1485","162.6685","39360","39360","38576.5967","td","null","null","null","null","null","null","[1,3]","529.5590056309961","111.07812225710646","516.4792906732629"
"","canvas-keyboard-response","106","115983","0.0-6.0-2.14","518","","","","","rectangles no change","null","null","","","critical","t","c","d","240","164","164","240","237.1485","162.6685","spektor","0.02","w","240","164","164","240","237.1485","162.6685","39360","39360","38576.5967","td","null","null","null","null","null","null","[1,3]","529.5590056309961","111.07812225710646","516.4792906732629"
"","canvas-keyboard-response","107","117318","0.0-6.0-3.14","518","","","","","rectangles with change","null","null","","","critical","t","c","d","240","164","164","240","237.1485","162.6685","spektor","0.02","w","240","164","164","240","237.1485","162.6685","39360","39360","38576.5967","td","null","null","null","null","null","null","[1,3]","529.5590056309961","111.07812225710646","516.4792906732629"
"","canvas-keyboard-response","108","117341","0.0-6.0-4.14","518","","","","","clear_screen","null","null","","","critical","t","c","d","240","164","164","240","237.1485","162.6685","spektor","0.02","w","240","164","164","240","237.1485","162.6685","39360","39360","38576.5967","td","null","null","null","null","null","null","[1,3]","529.5590056309961","111.07812225710646","516.4792906732629"
"","canvas-keyboard-response","109","117957","0.0-6.0-5.14","518","","","","","make choice","613","1","","","critical","t","c","d","240","164","164","240","237.1485","162.6685","spektor","0.02","w","240","164","164","240","237.1485","162.6685","39360","39360","38576.5967","td","null","null","null","null","null","null","[1,3]","","",""
"","canvas-keyboard-response","110","117974","0.0-6.0-6.14","518","","","","","clear_screen","null","null","","","critical","t","c","d","240","164","164","240","237.1485","162.6685","spektor","0.02","w","240","164","164","240","237.1485","162.6685","39360","39360","38576.5967","td","null","null","null","null","null","null","[1,3]","","",""
"","canvas-keyboard-response","111","118176","0.0-6.0-0.15","518","","","","","pre trial waiting period","null","null","","","critical","d","c","t","240","164","164","240","240","164","spektor","0","w","240","164","164","240","240","164","39360","39360","39360","td","null","null","null","null","null","null","[3,1]","493.09608496577704","133.426732509119","496.2323505777705"
"","canvas-keyboard-response","112","118193","0.0-6.0-1.15","518","","","","","clear_screen","null","null","","","critical","d","c","t","240","164","164","240","240","164","spektor","0","w","240","164","164","240","240","164","39360","39360","39360","td","null","null","null","null","null","null","[3,1]","493.09608496577704","133.426732509119","496.2323505777705"
"","canvas-keyboard-response","113","118700","0.0-6.0-2.15","518","","","","","rectangles no change","null","null","","","critical","d","c","t","240","164","164","240","240","164","spektor","0","w","240","164","164","240","240","164","39360","39360","39360","td","null","null","null","null","null","null","[3,1]","493.09608496577704","133.426732509119","496.2323505777705"
"","canvas-keyboard-response","114","120033","0.0-6.0-3.15","518","","","","","rectangles with change","null","null","","","critical","d","c","t","240","164","164","240","240","164","spektor","0","w","240","164","164","240","240","164","39360","39360","39360","td","null","null","null","null","null","null","[3,1]","493.09608496577704","133.426732509119","496.2323505777705"
"","canvas-keyboard-response","115","120055","0.0-6.0-4.15","518","","","","","clear_screen","null","null","","","critical","d","c","t","240","164","164","240","240","164","spektor","0","w","240","164","164","240","240","164","39360","39360","39360","td","null","null","null","null","null","null","[3,1]","493.09608496577704","133.426732509119","496.2323505777705"
"","canvas-keyboard-response","116","121837","0.0-6.0-5.15","518","","","","","make choice","1776","3","","","critical","d","c","t","240","164","164","240","240","164","spektor","0","w","240","164","164","240","240","164","39360","39360","39360","td","null","null","null","null","null","null","[3,1]","","",""
"","canvas-keyboard-response","117","121858","0.0-6.0-6.15","518","","","","","clear_screen","null","null","","","critical","d","c","t","240","164","164","240","240","164","spektor","0","w","240","164","164","240","240","164","39360","39360","39360","td","null","null","null","null","null","null","[3,1]","","",""
"","canvas-keyboard-response","118","122059","0.0-6.0-0.16","518","","","","","pre trial waiting period","null","null","","","critical","c","d","t","164","240","220.0396","154.6796","240","164","trueblood","0.14","w","240","164","164","240","220.0396","154.6796","39360","39360","34035.6388","tc","null","null","null","null","null","null","[3,1]","450.2223849871292","493.4284479446013","469.0216714974835"
"","canvas-keyboard-response","119","122082","0.0-6.0-1.16","518","","","","","clear_screen","null","null","","","critical","c","d","t","164","240","220.0396","154.6796","240","164","trueblood","0.14","w","240","164","164","240","220.0396","154.6796","39360","39360","34035.6388","tc","null","null","null","null","null","null","[3,1]","450.2223849871292","493.4284479446013","469.0216714974835"
"","canvas-keyboard-response","120","122589","0.0-6.0-2.16","518","","","","","rectangles no change","null","null","","","critical","c","d","t","164","240","220.0396","154.6796","240","164","trueblood","0.14","w","240","164","164","240","220.0396","154.6796","39360","39360","34035.6388","tc","null","null","null","null","null","null","[3,1]","450.2223849871292","493.4284479446013","469.0216714974835"
"","canvas-keyboard-response","121","123924","0.0-6.0-3.16","518","","","","","rectangles with change","null","null","","","critical","c","d","t","164","240","220.0396","154.6796","240","164","trueblood","0.14","w","240","164","164","240","220.0396","154.6796","39360","39360","34035.6388","tc","null","null","null","null","null","null","[3,1]","450.2223849871292","493.4284479446013","469.0216714974835"
"","canvas-keyboard-response","122","123945","0.0-6.0-4.16","518","","","","","clear_screen","null","null","","","critical","c","d","t","164","240","220.0396","154.6796","240","164","trueblood","0.14","w","240","164","164","240","220.0396","154.6796","39360","39360","34035.6388","tc","null","null","null","null","null","null","[3,1]","450.2223849871292","493.4284479446013","469.0216714974835"
"","canvas-keyboard-response","123","124950","0.0-6.0-5.16","518","","","","","make choice","999","1","","","critical","c","d","t","164","240","220.0396","154.6796","240","164","trueblood","0.14","w","240","164","164","240","220.0396","154.6796","39360","39360","34035.6388","tc","null","null","null","null","null","null","[3,1]","","",""
"","canvas-keyboard-response","124","124970","0.0-6.0-6.16","518","","","","","clear_screen","null","null","","","critical","c","d","t","164","240","220.0396","154.6796","240","164","trueblood","0.14","w","240","164","164","240","220.0396","154.6796","39360","39360","34035.6388","tc","null","null","null","null","null","null","[3,1]","","",""
"","canvas-keyboard-response","125","125171","0.0-6.0-0.17","518","","","","","pre trial waiting period","null","null","","","catch","sw","sh","l","180","200","196","145","222","179","trueblood","null","null","null","null","null","null","null","null","null","null","null","","180","200","260","200","36000","52000","[2,3]","464.76826420770647","492.4175231409285","459.39420392370295"
"","canvas-keyboard-response","126","125193","0.0-6.0-1.17","518","","","","","clear_screen","null","null","","","catch","sw","sh","l","180","200","196","145","222","179","trueblood","null","null","null","null","null","null","null","null","null","null","null","","180","200","260","200","36000","52000","[2,3]","464.76826420770647","492.4175231409285","459.39420392370295"
"","canvas-keyboard-response","127","125699","0.0-6.0-2.17","518","","","","","rectangles no change","null","null","","","catch","sw","sh","l","180","200","196","145","222","179","trueblood","null","null","null","null","null","null","null","null","null","null","null","","180","200","260","200","36000","52000","[2,3]","464.76826420770647","492.4175231409285","459.39420392370295"
"","canvas-keyboard-response","128","127034","0.0-6.0-3.17","518","","","","","rectangles with change","null","null","","","catch","sw","sh","l","180","200","196","145","222","179","trueblood","null","null","null","null","null","null","null","null","null","null","null","","180","200","260","200","36000","52000","[2,3]","464.76826420770647","492.4175231409285","459.39420392370295"
"","canvas-keyboard-response","129","127053","0.0-6.0-4.17","518","","","","","clear_screen","null","null","","","catch","sw","sh","l","180","200","196","145","222","179","trueblood","null","null","null","null","null","null","null","null","null","null","null","","180","200","260","200","36000","52000","[2,3]","464.76826420770647","492.4175231409285","459.39420392370295"
"","canvas-keyboard-response","130","127381","0.0-6.0-5.17","518","","","","","make choice","322","3","","","catch","sw","sh","l","180","200","196","145","222","179","trueblood","null","null","null","null","null","null","null","null","null","null","null","","180","200","260","200","36000","52000","[2,3]","","",""
"","canvas-keyboard-response","131","127400","0.0-6.0-6.17","518","","","","","clear_screen","null","null","","","catch","sw","sh","l","180","200","196","145","222","179","trueblood","null","null","null","null","null","null","null","null","null","null","null","","180","200","260","200","36000","52000","[2,3]","","",""
"","canvas-keyboard-response","132","127601","0.0-6.0-0.18","518","","","","","pre trial waiting period","null","null","","","critical","d","t","c","227.1683","158.0083","240","164","164","240","spektor","0.09","w","240","164","164","240","227.1683","158.0083","39360","39360","35894.4834","dc","null","null","null","null","null","null","[1,3]","515.1252902208381","208.9217828377035","467.816191321727"
"","canvas-keyboard-response","133","127621","0.0-6.0-1.18","518","","","","","clear_screen","null","null","","","critical","d","t","c","227.1683","158.0083","240","164","164","240","spektor","0.09","w","240","164","164","240","227.1683","158.0083","39360","39360","35894.4834","dc","null","null","null","null","null","null","[1,3]","515.1252902208381","208.9217828377035","467.816191321727"
"","canvas-keyboard-response","134","128130","0.0-6.0-2.18","518","","","","","rectangles no change","null","null","","","critical","d","t","c","227.1683","158.0083","240","164","164","240","spektor","0.09","w","240","164","164","240","227.1683","158.0083","39360","39360","35894.4834","dc","null","null","null","null","null","null","[1,3]","515.1252902208381","208.9217828377035","467.816191321727"
"","canvas-keyboard-response","135","129465","0.0-6.0-3.18","518","","","","","rectangles with change","null","null","","","critical","d","t","c","227.1683","158.0083","240","164","164","240","spektor","0.09","w","240","164","164","240","227.1683","158.0083","39360","39360","35894.4834","dc","null","null","null","null","null","null","[1,3]","515.1252902208381","208.9217828377035","467.816191321727"
"","canvas-keyboard-response","136","129484","0.0-6.0-4.18","518","","","","","clear_screen","null","null","","","critical","d","t","c","227.1683","158.0083","240","164","164","240","spektor","0.09","w","240","164","164","240","227.1683","158.0083","39360","39360","35894.4834","dc","null","null","null","null","null","null","[1,3]","515.1252902208381","208.9217828377035","467.816191321727"
"","canvas-keyboard-response","137","129781","0.0-6.0-5.18","518","","","","","make choice","291","3","","","critical","d","t","c","227.1683","158.0083","240","164","164","240","spektor","0.09","w","240","164","164","240","227.1683","158.0083","39360","39360","35894.4834","dc","null","null","null","null","null","null","[1,3]","","",""
"","canvas-keyboard-response","138","129799","0.0-6.0-6.18","518","","","","","clear_screen","null","null","","","critical","d","t","c","227.1683","158.0083","240","164","164","240","spektor","0.09","w","240","164","164","240","227.1683","158.0083","39360","39360","35894.4834","dc","null","null","null","null","null","null","[1,3]","","",""
"","canvas-keyboard-response","139","130000","0.0-6.0-0.19","518","","","","","pre trial waiting period","null","null","","","critical","d","c","t","227.1683","158.0083","164","240","240","164","trueblood","0.09","w","240","164","164","240","227.1683","158.0083","39360","39360","35894.4834","dc","null","null","null","null","null","null","[1,2]","501.8696861292514","450.146767253349","485.90819144349547"
"","canvas-keyboard-response","140","130023","0.0-6.0-1.19","518","","","","","clear_screen","null","null","","","critical","d","c","t","227.1683","158.0083","164","240","240","164","trueblood","0.09","w","240","164","164","240","227.1683","158.0083","39360","39360","35894.4834","dc","null","null","null","null","null","null","[1,2]","501.8696861292514","450.146767253349","485.90819144349547"
"","canvas-keyboard-response","141","130533","0.0-6.0-2.19","518","","","","","rectangles no change","null","null","","","critical","d","c","t","227.1683","158.0083","164","240","240","164","trueblood","0.09","w","240","164","164","240","227.1683","158.0083","39360","39360","35894.4834","dc","null","null","null","null","null","null","[1,2]","501.8696861292514","450.146767253349","485.90819144349547"
"","canvas-keyboard-response","142","131869","0.0-6.0-3.19","518","","","","","rectangles with change","null","null","","","critical","d","c","t","227.1683","158.0083","164","240","240","164","trueblood","0.09","w","240","164","164","240","227.1683","158.0083","39360","39360","35894.4834","dc","null","null","null","null","null","null","[1,2]","501.8696861292514","450.146767253349","485.90819144349547"
"","canvas-keyboard-response","143","131886","0.0-6.0-4.19","518","","","","","clear_screen","null","null","","","critical","d","c","t","227.1683","158.0083","164","240","240","164","trueblood","0.09","w","240","164","164","240","227.1683","158.0083","39360","39360","35894.4834","dc","null","null","null","null","null","null","[1,2]","501.8696861292514","450.146767253349","485.90819144349547"
"","canvas-keyboard-response","144","132726","0.0-6.0-5.19","518","","","","","make choice","832","1","","","critical","d","c","t","227.1683","158.0083","164","240","240","164","trueblood","0.09","w","240","164","164","240","227.1683","158.0083","39360","39360","35894.4834","dc","null","null","null","null","null","null","[1,2]","","",""
"","canvas-keyboard-response","145","132743","0.0-6.0-6.19","518","","","","","clear_screen","null","null","","","critical","d","c","t","227.1683","158.0083","164","240","240","164","trueblood","0.09","w","240","164","164","240","227.1683","158.0083","39360","39360","35894.4834","dc","null","null","null","null","null","null","[1,2]","","",""
"","canvas-keyboard-response","146","132944","0.0-6.0-0.20","518","","","","","pre trial waiting period","null","null","","","critical","t","c","d","164","240","240","164","162.6685","237.1485","spektor","0.02","h","164","240","240","164","162.6685","237.1485","39360","39360","38576.5967","dc","null","null","null","null","null","null","[3,2]","482.6713220899325","149.68858243486545","498.0776056638518"
"","canvas-keyboard-response","147","132963","0.0-6.0-1.20","518","","","","","clear_screen","null","null","","","critical","t","c","d","164","240","240","164","162.6685","237.1485","spektor","0.02","h","164","240","240","164","162.6685","237.1485","39360","39360","38576.5967","dc","null","null","null","null","null","null","[3,2]","482.6713220899325","149.68858243486545","498.0776056638518"
"","canvas-keyboard-response","148","133470","0.0-6.0-2.20","518","","","","","rectangles no change","null","null","","","critical","t","c","d","164","240","240","164","162.6685","237.1485","spektor","0.02","h","164","240","240","164","162.6685","237.1485","39360","39360","38576.5967","dc","null","null","null","null","null","null","[3,2]","482.6713220899325","149.68858243486545","498.0776056638518"
"","canvas-keyboard-response","149","134805","0.0-6.0-3.20","518","","","","","rectangles with change","null","null","","","critical","t","c","d","164","240","240","164","162.6685","237.1485","spektor","0.02","h","164","240","240","164","162.6685","237.1485","39360","39360","38576.5967","dc","null","null","null","null","null","null","[3,2]","482.6713220899325","149.68858243486545","498.0776056638518"
"","canvas-keyboard-response","150","134819","0.0-6.0-4.20","518","","","","","clear_screen","null","null","","","critical","t","c","d","164","240","240","164","162.6685","237.1485","spektor","0.02","h","164","240","240","164","162.6685","237.1485","39360","39360","38576.5967","dc","null","null","null","null","null","null","[3,2]","482.6713220899325","149.68858243486545","498.0776056638518"
"","canvas-keyboard-response","151","135077","0.0-6.0-5.20","518","","","","","make choice","251","2","","","critical","t","c","d","164","240","240","164","162.6685","237.1485","spektor","0.02","h","164","240","240","164","162.6685","237.1485","39360","39360","38576.5967","dc","null","null","null","null","null","null","[3,2]","","",""
"","canvas-keyboard-response","152","135098","0.0-6.0-6.20","518","","","","","clear_screen","null","null","","","critical","t","c","d","164","240","240","164","162.6685","237.1485","spektor","0.02","h","164","240","240","164","162.6685","237.1485","39360","39360","38576.5967","dc","null","null","null","null","null","null","[3,2]","","",""
"","canvas-keyboard-response","153","135299","0.0-6.0-0.21","518","","","","","pre trial waiting period","null","null","","","critical","c","t","d","240","164","164","240","162.6685","237.1485","spektor","0.02","h","164","240","240","164","162.6685","237.1485","39360","39360","38576.5967","tc","null","null","null","null","null","null","[2,1]","494.7537190919046","140.5653726682441","493.9144314581952"
"","canvas-keyboard-response","154","135318","0.0-6.0-1.21","518","","","","","clear_screen","null","null","","","critical","c","t","d","240","164","164","240","162.6685","237.1485","spektor","0.02","h","164","240","240","164","162.6685","237.1485","39360","39360","38576.5967","tc","null","null","null","null","null","null","[2,1]","494.7537190919046","140.5653726682441","493.9144314581952"
"","canvas-keyboard-response","155","135828","0.0-6.0-2.21","518","","","","","rectangles no change","null","null","","","critical","c","t","d","240","164","164","240","162.6685","237.1485","spektor","0.02","h","164","240","240","164","162.6685","237.1485","39360","39360","38576.5967","tc","null","null","null","null","null","null","[2,1]","494.7537190919046","140.5653726682441","493.9144314581952"
"","canvas-keyboard-response","156","137162","0.0-6.0-3.21","518","","","","","rectangles with change","null","null","","","critical","c","t","d","240","164","164","240","162.6685","237.1485","spektor","0.02","h","164","240","240","164","162.6685","237.1485","39360","39360","38576.5967","tc","null","null","null","null","null","null","[2,1]","494.7537190919046","140.5653726682441","493.9144314581952"
"","canvas-keyboard-response","157","137177","0.0-6.0-4.21","518","","","","","clear_screen","null","null","","","critical","c","t","d","240","164","164","240","162.6685","237.1485","spektor","0.02","h","164","240","240","164","162.6685","237.1485","39360","39360","38576.5967","tc","null","null","null","null","null","null","[2,1]","494.7537190919046","140.5653726682441","493.9144314581952"
"","canvas-keyboard-response","158","137454","0.0-6.0-5.21","518","","","","","make choice","272","1","","","critical","c","t","d","240","164","164","240","162.6685","237.1485","spektor","0.02","h","164","240","240","164","162.6685","237.1485","39360","39360","38576.5967","tc","null","null","null","null","null","null","[2,1]","","",""
"","canvas-keyboard-response","159","137474","0.0-6.0-6.21","518","","","","","clear_screen","null","null","","","critical","c","t","d","240","164","164","240","162.6685","237.1485","spektor","0.02","h","164","240","240","164","162.6685","237.1485","39360","39360","38576.5967","tc","null","null","null","null","null","null","[2,1]","","",""
"","canvas-keyboard-response","160","137676","0.0-6.0-0.22","518","","","","","pre trial waiting period","null","null","","","critical","d","t","c","164","240","164","240","240","164","trueblood","0","h","164","240","240","164","164","240","39360","39360","39360","td","null","null","null","null","null","null","[2,1]","425.50456784469134","465.88951002574964","470.4066200859548"
"","canvas-keyboard-response","161","137693","0.0-6.0-1.22","518","","","","","clear_screen","null","null","","","critical","d","t","c","164","240","164","240","240","164","trueblood","0","h","164","240","240","164","164","240","39360","39360","39360","td","null","null","null","null","null","null","[2,1]","425.50456784469134","465.88951002574964","470.4066200859548"
"","canvas-keyboard-response","162","138201","0.0-6.0-2.22","518","","","","","rectangles no change","null","null","","","critical","d","t","c","164","240","164","240","240","164","trueblood","0","h","164","240","240","164","164","240","39360","39360","39360","td","null","null","null","null","null","null","[2,1]","425.50456784469134","465.88951002574964","470.4066200859548"
"","canvas-keyboard-response","163","139536","0.0-6.0-3.22","518","","","","","rectangles with change","null","null","","","critical","d","t","c","164","240","164","240","240","164","trueblood","0","h","164","240","240","164","164","240","39360","39360","39360","td","null","null","null","null","null","null","[2,1]","425.50456784469134","465.88951002574964","470.4066200859548"
"","canvas-keyboard-response","164","139555","0.0-6.0-4.22","518","","","","","clear_screen","null","null","","","critical","d","t","c","164","240","164","240","240","164","trueblood","0","h","164","240","240","164","164","240","39360","39360","39360","td","null","null","null","null","null","null","[2,1]","425.50456784469134","465.88951002574964","470.4066200859548"
"","canvas-keyboard-response","165","139828","0.0-6.0-5.22","518","","","","","make choice","265","2","","","critical","d","t","c","164","240","164","240","240","164","trueblood","0","h","164","240","240","164","164","240","39360","39360","39360","td","null","null","null","null","null","null","[2,1]","","",""
"","canvas-keyboard-response","166","139842","0.0-6.0-6.22","518","","","","","clear_screen","null","null","","","critical","d","t","c","164","240","164","240","240","164","trueblood","0","h","164","240","240","164","164","240","39360","39360","39360","td","null","null","null","null","null","null","[2,1]","","",""
"","canvas-keyboard-response","167","140042","0.0-6.0-0.23","518","","","","","pre trial waiting period","null","null","","","critical","d","c","t","160.6713","232.8713","240","164","164","240","trueblood","0.05","h","164","240","240","164","160.6713","232.8713","39360","39360","37415.7294","td","null","null","null","null","null","null","[3,1]","462.1340298919045","495.1159769981891","422.46174235483045"
"","canvas-keyboard-response","168","140062","0.0-6.0-1.23","518","","","","","clear_screen","null","null","","","critical","d","c","t","160.6713","232.8713","240","164","164","240","trueblood","0.05","h","164","240","240","164","160.6713","232.8713","39360","39360","37415.7294","td","null","null","null","null","null","null","[3,1]","462.1340298919045","495.1159769981891","422.46174235483045"
"","canvas-keyboard-response","169","140569","0.0-6.0-2.23","518","","","","","rectangles no change","null","null","","","critical","d","c","t","160.6713","232.8713","240","164","164","240","trueblood","0.05","h","164","240","240","164","160.6713","232.8713","39360","39360","37415.7294","td","null","null","null","null","null","null","[3,1]","462.1340298919045","495.1159769981891","422.46174235483045"
"","canvas-keyboard-response","170","141907","0.0-6.0-3.23","518","","","","","rectangles with change","null","null","","","critical","d","c","t","160.6713","232.8713","240","164","164","240","trueblood","0.05","h","164","240","240","164","160.6713","232.8713","39360","39360","37415.7294","td","null","null","null","null","null","null","[3,1]","462.1340298919045","495.1159769981891","422.46174235483045"
"","canvas-keyboard-response","171","141927","0.0-6.0-4.23","518","","","","","clear_screen","null","null","","","critical","d","c","t","160.6713","232.8713","240","164","164","240","trueblood","0.05","h","164","240","240","164","160.6713","232.8713","39360","39360","37415.7294","td","null","null","null","null","null","null","[3,1]","462.1340298919045","495.1159769981891","422.46174235483045"
"","canvas-keyboard-response","172","142606","0.0-6.0-5.23","518","","","","","make choice","673","3","","","critical","d","c","t","160.6713","232.8713","240","164","164","240","trueblood","0.05","h","164","240","240","164","160.6713","232.8713","39360","39360","37415.7294","td","null","null","null","null","null","null","[3,1]","","",""
"","canvas-keyboard-response","173","142626","0.0-6.0-6.23","518","","","","","clear_screen","null","null","","","critical","d","c","t","160.6713","232.8713","240","164","164","240","trueblood","0.05","h","164","240","240","164","160.6713","232.8713","39360","39360","37415.7294","td","null","null","null","null","null","null","[3,1]","","",""
"","canvas-keyboard-response","174","142829","0.0-6.0-0.24","518","","","","","pre trial waiting period","null","null","","","critical","c","t","d","240","164","164","240","154.6796","220.0396","spektor","0.14","h","164","240","240","164","154.6796","220.0396","39360","39360","34035.6388","td","null","null","null","null","null","null","[2,3]","497.8670654713597","111.45130728294083","467.8716991465329"
"","canvas-keyboard-response","175","142849","0.0-6.0-1.24","518","","","","","clear_screen","null","null","","","critical","c","t","d","240","164","164","240","154.6796","220.0396","spektor","0.14","h","164","240","240","164","154.6796","220.0396","39360","39360","34035.6388","td","null","null","null","null","null","null","[2,3]","497.8670654713597","111.45130728294083","467.8716991465329"
"","canvas-keyboard-response","176","143355","0.0-6.0-2.24","518","","","","","rectangles no change","null","null","","","critical","c","t","d","240","164","164","240","154.6796","220.0396","spektor","0.14","h","164","240","240","164","154.6796","220.0396","39360","39360","34035.6388","td","null","null","null","null","null","null","[2,3]","497.8670654713597","111.45130728294083","467.8716991465329"
"","canvas-keyboard-response","177","144693","0.0-6.0-3.24","518","","","","","rectangles with change","null","null","","","critical","c","t","d","240","164","164","240","154.6796","220.0396","spektor","0.14","h","164","240","240","164","154.6796","220.0396","39360","39360","34035.6388","td","null","null","null","null","null","null","[2,3]","497.8670654713597","111.45130728294083","467.8716991465329"
"","canvas-keyboard-response","178","144712","0.0-6.0-4.24","518","","","","","clear_screen","null","null","","","critical","c","t","d","240","164","164","240","154.6796","220.0396","spektor","0.14","h","164","240","240","164","154.6796","220.0396","39360","39360","34035.6388","td","null","null","null","null","null","null","[2,3]","497.8670654713597","111.45130728294083","467.8716991465329"
"","canvas-keyboard-response","179","145726","0.0-6.0-5.24","518","","","","","make choice","1008","2","","","critical","c","t","d","240","164","164","240","154.6796","220.0396","spektor","0.14","h","164","240","240","164","154.6796","220.0396","39360","39360","34035.6388","td","null","null","null","null","null","null","[2,3]","","",""
"","canvas-keyboard-response","180","145744","0.0-6.0-6.24","518","","","","","clear_screen","null","null","","","critical","c","t","d","240","164","164","240","154.6796","220.0396","spektor","0.14","h","164","240","240","164","154.6796","220.0396","39360","39360","34035.6388","td","null","null","null","null","null","null","[2,3]","","",""
"","canvas-keyboard-response","181","145945","0.0-6.0-0.25","518","","","","","pre trial waiting period","null","null","","","critical","c","d","t","240","164","160.6713","232.8713","164","240","spektor","0.05","h","164","240","240","164","160.6713","232.8713","39360","39360","37415.7294","tc","null","null","null","null","null","null","[3,1]","525.9364822684552","120.22531399045548","477.2427748278824"
"","canvas-keyboard-response","182","145966","0.0-6.0-1.25","518","","","","","clear_screen","null","null","","","critical","c","d","t","240","164","160.6713","232.8713","164","240","spektor","0.05","h","164","240","240","164","160.6713","232.8713","39360","39360","37415.7294","tc","null","null","null","null","null","null","[3,1]","525.9364822684552","120.22531399045548","477.2427748278824"
"","canvas-keyboard-response","183","146472","0.0-6.0-2.25","518","","","","","rectangles no change","null","null","","","critical","c","d","t","240","164","160.6713","232.8713","164","240","spektor","0.05","h","164","240","240","164","160.6713","232.8713","39360","39360","37415.7294","tc","null","null","null","null","null","null","[3,1]","525.9364822684552","120.22531399045548","477.2427748278824"
"","canvas-keyboard-response","184","147809","0.0-6.0-3.25","518","","","","","rectangles with change","null","null","","","critical","c","d","t","240","164","160.6713","232.8713","164","240","spektor","0.05","h","164","240","240","164","160.6713","232.8713","39360","39360","37415.7294","tc","null","null","null","null","null","null","[3,1]","525.9364822684552","120.22531399045548","477.2427748278824"
"","canvas-keyboard-response","185","147828","0.0-6.0-4.25","518","","","","","clear_screen","null","null","","","critical","c","d","t","240","164","160.6713","232.8713","164","240","spektor","0.05","h","164","240","240","164","160.6713","232.8713","39360","39360","37415.7294","tc","null","null","null","null","null","null","[3,1]","525.9364822684552","120.22531399045548","477.2427748278824"
"","canvas-keyboard-response","186","148101","0.0-6.0-5.25","518","","","","","make choice","263","3","","","critical","c","d","t","240","164","160.6713","232.8713","164","240","spektor","0.05","h","164","240","240","164","160.6713","232.8713","39360","39360","37415.7294","tc","null","null","null","null","null","null","[3,1]","","",""
"","canvas-keyboard-response","187","148122","0.0-6.0-6.25","518","","","","","clear_screen","null","null","","","critical","c","d","t","240","164","160.6713","232.8713","164","240","spektor","0.05","h","164","240","240","164","160.6713","232.8713","39360","39360","37415.7294","tc","null","null","null","null","null","null","[3,1]","","",""
"","canvas-keyboard-response","188","148321","0.0-6.0-0.26","518","","","","","pre trial waiting period","null","null","","","catch","sw","sh","l","180","200","197","215","195","281","spektor","null","null","null","null","null","null","null","null","null","null","null","","180","200","260","200","36000","52000","[2,3]","522.5806100706494","137.44697366747624","475.5452251077636"
"","canvas-keyboard-response","189","148340","0.0-6.0-1.26","518","","","","","clear_screen","null","null","","","catch","sw","sh","l","180","200","197","215","195","281","spektor","null","null","null","null","null","null","null","null","null","null","null","","180","200","260","200","36000","52000","[2,3]","522.5806100706494","137.44697366747624","475.5452251077636"
"","canvas-keyboard-response","190","148850","0.0-6.0-2.26","518","","","","","rectangles no change","null","null","","","catch","sw","sh","l","180","200","197","215","195","281","spektor","null","null","null","null","null","null","null","null","null","null","null","","180","200","260","200","36000","52000","[2,3]","522.5806100706494","137.44697366747624","475.5452251077636"
"","canvas-keyboard-response","191","150190","0.0-6.0-3.26","518","","","","","rectangles with change","null","null","","","catch","sw","sh","l","180","200","197","215","195","281","spektor","null","null","null","null","null","null","null","null","null","null","null","","180","200","260","200","36000","52000","[2,3]","522.5806100706494","137.44697366747624","475.5452251077636"
"","canvas-keyboard-response","192","150210","0.0-6.0-4.26","518","","","","","clear_screen","null","null","","","catch","sw","sh","l","180","200","197","215","195","281","spektor","null","null","null","null","null","null","null","null","null","null","null","","180","200","260","200","36000","52000","[2,3]","522.5806100706494","137.44697366747624","475.5452251077636"
"","canvas-keyboard-response","193","150422","0.0-6.0-5.26","518","","","","","make choice","203","3","","","catch","sw","sh","l","180","200","197","215","195","281","spektor","null","null","null","null","null","null","null","null","null","null","null","","180","200","260","200","36000","52000","[2,3]","","",""
"","canvas-keyboard-response","194","150440","0.0-6.0-6.26","518","","","","","clear_screen","null","null","","","catch","sw","sh","l","180","200","197","215","195","281","spektor","null","null","null","null","null","null","null","null","null","null","null","","180","200","260","200","36000","52000","[2,3]","","",""
"","canvas-keyboard-response","195","150642","0.0-6.0-0.27","518","","","","","pre trial waiting period","null","null","","","critical","d","c","t","164","240","240","164","164","240","spektor","0","h","164","240","240","164","164","240","39360","39360","39360","tc","null","null","null","null","null","null","[3,2]","470.78703810665695","188.29229141427285","501.0053337970555"
"","canvas-keyboard-response","196","150664","0.0-6.0-1.27","518","","","","","clear_screen","null","null","","","critical","d","c","t","164","240","240","164","164","240","spektor","0","h","164","240","240","164","164","240","39360","39360","39360","tc","null","null","null","null","null","null","[3,2]","470.78703810665695","188.29229141427285","501.0053337970555"
"","canvas-keyboard-response","197","151173","0.0-6.0-2.27","518","","","","","rectangles no change","null","null","","","critical","d","c","t","164","240","240","164","164","240","spektor","0","h","164","240","240","164","164","240","39360","39360","39360","tc","null","null","null","null","null","null","[3,2]","470.78703810665695","188.29229141427285","501.0053337970555"
"","canvas-keyboard-response","198","152511","0.0-6.0-3.27","518","","","","","rectangles with change","null","null","","","critical","d","c","t","164","240","240","164","164","240","spektor","0","h","164","240","240","164","164","240","39360","39360","39360","tc","null","null","null","null","null","null","[3,2]","470.78703810665695","188.29229141427285","501.0053337970555"
"","canvas-keyboard-response","199","152533","0.0-6.0-4.27","518","","","","","clear_screen","null","null","","","critical","d","c","t","164","240","240","164","164","240","spektor","0","h","164","240","240","164","164","240","39360","39360","39360","tc","null","null","null","null","null","null","[3,2]","470.78703810665695","188.29229141427285","501.0053337970555"
"","canvas-keyboard-response","200","153341","0.0-6.0-5.27","518","","","","","make choice","804","3","","","critical","d","c","t","164","240","240","164","164","240","spektor","0","h","164","240","240","164","164","240","39360","39360","39360","tc","null","null","null","null","null","null","[3,2]","","",""
"","canvas-keyboard-response","201","153359","0.0-6.0-6.27","518","","","","","clear_screen","null","null","","","critical","d","c","t","164","240","240","164","164","240","spektor","0","h","164","240","240","164","164","240","39360","39360","39360","tc","null","null","null","null","null","null","[3,2]","","",""
"","canvas-keyboard-response","202","153560","0.0-6.0-0.28","518","","","","","pre trial waiting period","null","null","","","critical","c","t","d","240","164","164","240","160.6713","232.8713","spektor","0.05","h","164","240","240","164","160.6713","232.8713","39360","39360","37415.7294","td","null","null","null","null","null","null","[2,3]","513.5921611723843","135.4436772941492","473.60827423382676"
"","canvas-keyboard-response","203","153583","0.0-6.0-1.28","518","","","","","clear_screen","null","null","","","critical","c","t","d","240","164","164","240","160.6713","232.8713","spektor","0.05","h","164","240","240","164","160.6713","232.8713","39360","39360","37415.7294","td","null","null","null","null","null","null","[2,3]","513.5921611723843","135.4436772941492","473.60827423382676"
"","canvas-keyboard-response","204","154089","0.0-6.0-2.28","518","","","","","rectangles no change","null","null","","","critical","c","t","d","240","164","164","240","160.6713","232.8713","spektor","0.05","h","164","240","240","164","160.6713","232.8713","39360","39360","37415.7294","td","null","null","null","null","null","null","[2,3]","513.5921611723843","135.4436772941492","473.60827423382676"
"","canvas-keyboard-response","205","155425","0.0-6.0-3.28","518","","","","","rectangles with change","null","null","","","critical","c","t","d","240","164","164","240","160.6713","232.8713","spektor","0.05","h","164","240","240","164","160.6713","232.8713","39360","39360","37415.7294","td","null","null","null","null","null","null","[2,3]","513.5921611723843","135.4436772941492","473.60827423382676"
"","canvas-keyboard-response","206","155447","0.0-6.0-4.28","518","","","","","clear_screen","null","null","","","critical","c","t","d","240","164","164","240","160.6713","232.8713","spektor","0.05","h","164","240","240","164","160.6713","232.8713","39360","39360","37415.7294","td","null","null","null","null","null","null","[2,3]","513.5921611723843","135.4436772941492","473.60827423382676"
"","canvas-keyboard-response","207","155677","0.0-6.0-5.28","518","","","","","make choice","225","3","","","critical","c","t","d","240","164","164","240","160.6713","232.8713","spektor","0.05","h","164","240","240","164","160.6713","232.8713","39360","39360","37415.7294","td","null","null","null","null","null","null","[2,3]","","",""
"","canvas-keyboard-response","208","155699","0.0-6.0-6.28","518","","","","","clear_screen","null","null","","","critical","c","t","d","240","164","164","240","160.6713","232.8713","spektor","0.05","h","164","240","240","164","160.6713","232.8713","39360","39360","37415.7294","td","null","null","null","null","null","null","[2,3]","","",""
"","canvas-keyboard-response","209","155900","0.0-6.0-0.29","518","","","","","pre trial waiting period","null","null","","","critical","c","d","t","164","240","227.1683","158.0083","240","164","spektor","0.09","w","240","164","164","240","227.1683","158.0083","39360","39360","35894.4834","td","null","null","null","null","null","null","[3,2]","490.36944499453864","184.8324832491698","516.4528068438146"
"","canvas-keyboard-response","210","155918","0.0-6.0-1.29","518","","","","","clear_screen","null","null","","","critical","c","d","t","164","240","227.1683","158.0083","240","164","spektor","0.09","w","240","164","164","240","227.1683","158.0083","39360","39360","35894.4834","td","null","null","null","null","null","null","[3,2]","490.36944499453864","184.8324832491698","516.4528068438146"
"","canvas-keyboard-response","211","156435","0.0-6.0-2.29","518","","","","","rectangles no change","null","null","","","critical","c","d","t","164","240","227.1683","158.0083","240","164","spektor","0.09","w","240","164","164","240","227.1683","158.0083","39360","39360","35894.4834","td","null","null","null","null","null","null","[3,2]","490.36944499453864","184.8324832491698","516.4528068438146"
"","canvas-keyboard-response","212","157771","0.0-6.0-3.29","518","","","","","rectangles with change","null","null","","","critical","c","d","t","164","240","227.1683","158.0083","240","164","spektor","0.09","w","240","164","164","240","227.1683","158.0083","39360","39360","35894.4834","td","null","null","null","null","null","null","[3,2]","490.36944499453864","184.8324832491698","516.4528068438146"
"","canvas-keyboard-response","213","157792","0.0-6.0-4.29","518","","","","","clear_screen","null","null","","","critical","c","d","t","164","240","227.1683","158.0083","240","164","spektor","0.09","w","240","164","164","240","227.1683","158.0083","39360","39360","35894.4834","td","null","null","null","null","null","null","[3,2]","490.36944499453864","184.8324832491698","516.4528068438146"
"","canvas-keyboard-response","214","158197","0.0-6.0-5.29","518","","","","","make choice","400","3","","","critical","c","d","t","164","240","227.1683","158.0083","240","164","spektor","0.09","w","240","164","164","240","227.1683","158.0083","39360","39360","35894.4834","td","null","null","null","null","null","null","[3,2]","","",""
"","canvas-keyboard-response","215","158215","0.0-6.0-6.29","518","","","","","clear_screen","null","null","","","critical","c","d","t","164","240","227.1683","158.0083","240","164","spektor","0.09","w","240","164","164","240","227.1683","158.0083","39360","39360","35894.4834","td","null","null","null","null","null","null","[3,2]","","",""
"","canvas-keyboard-response","216","158417","0.0-6.0-0.30","518","","","","","pre trial waiting period","null","null","","","critical","t","d","c","164","240","164","240","240","164","trueblood","0","h","164","240","240","164","164","240","39360","39360","39360","tc","null","null","null","null","null","null","[1,3]","459.76472161840667","428.0850147972841","470.5111537886059"
"","canvas-keyboard-response","217","158436","0.0-6.0-1.30","518","","","","","clear_screen","null","null","","","critical","t","d","c","164","240","164","240","240","164","trueblood","0","h","164","240","240","164","164","240","39360","39360","39360","tc","null","null","null","null","null","null","[1,3]","459.76472161840667","428.0850147972841","470.5111537886059"
"","canvas-keyboard-response","218","158944","0.0-6.0-2.30","518","","","","","rectangles no change","null","null","","","critical","t","d","c","164","240","164","240","240","164","trueblood","0","h","164","240","240","164","164","240","39360","39360","39360","tc","null","null","null","null","null","null","[1,3]","459.76472161840667","428.0850147972841","470.5111537886059"
"","canvas-keyboard-response","219","160278","0.0-6.0-3.30","518","","","","","rectangles with change","null","null","","","critical","t","d","c","164","240","164","240","240","164","trueblood","0","h","164","240","240","164","164","240","39360","39360","39360","tc","null","null","null","null","null","null","[1,3]","459.76472161840667","428.0850147972841","470.5111537886059"
"","canvas-keyboard-response","220","160296","0.0-6.0-4.30","518","","","","","clear_screen","null","null","","","critical","t","d","c","164","240","164","240","240","164","trueblood","0","h","164","240","240","164","164","240","39360","39360","39360","tc","null","null","null","null","null","null","[1,3]","459.76472161840667","428.0850147972841","470.5111537886059"
"","canvas-keyboard-response","221","161013","0.0-6.0-5.30","518","","","","","make choice","712","1","","","critical","t","d","c","164","240","164","240","240","164","trueblood","0","h","164","240","240","164","164","240","39360","39360","39360","tc","null","null","null","null","null","null","[1,3]","","",""
"","canvas-keyboard-response","222","161034","0.0-6.0-6.30","518","","","","","clear_screen","null","null","","","critical","t","d","c","164","240","164","240","240","164","trueblood","0","h","164","240","240","164","164","240","39360","39360","39360","tc","null","null","null","null","null","null","[1,3]","","",""
"","canvas-keyboard-response","223","161235","0.0-6.0-0.31","518","","","","","pre trial waiting period","null","null","","","catch","l","sh","sw","288","171","179","204","204","190","spektor","null","null","null","null","null","null","null","null","null","null","null","","180","200","260","200","36000","52000","[1,2]","511.3195925070591","160.76012222567044","517.5384933116285"
"","canvas-keyboard-response","224","161258","0.0-6.0-1.31","518","","","","","clear_screen","null","null","","","catch","l","sh","sw","288","171","179","204","204","190","spektor","null","null","null","null","null","null","null","null","null","null","null","","180","200","260","200","36000","52000","[1,2]","511.3195925070591","160.76012222567044","517.5384933116285"
"","canvas-keyboard-response","225","161762","0.0-6.0-2.31","518","","","","","rectangles no change","null","null","","","catch","l","sh","sw","288","171","179","204","204","190","spektor","null","null","null","null","null","null","null","null","null","null","null","","180","200","260","200","36000","52000","[1,2]","511.3195925070591","160.76012222567044","517.5384933116285"
"","canvas-keyboard-response","226","163098","0.0-6.0-3.31","518","","","","","rectangles with change","null","null","","","catch","l","sh","sw","288","171","179","204","204","190","spektor","null","null","null","null","null","null","null","null","null","null","null","","180","200","260","200","36000","52000","[1,2]","511.3195925070591","160.76012222567044","517.5384933116285"
"","canvas-keyboard-response","227","163119","0.0-6.0-4.31","518","","","","","clear_screen","null","null","","","catch","l","sh","sw","288","171","179","204","204","190","spektor","null","null","null","null","null","null","null","null","null","null","null","","180","200","260","200","36000","52000","[1,2]","511.3195925070591","160.76012222567044","517.5384933116285"
"","canvas-keyboard-response","228","163420","0.0-6.0-5.31","518","","","","","make choice","296","1","","","catch","l","sh","sw","288","171","179","204","204","190","spektor","null","null","null","null","null","null","null","null","null","null","null","","180","200","260","200","36000","52000","[1,2]","","",""
"","canvas-keyboard-response","229","163438","0.0-6.0-6.31","518","","","","","clear_screen","null","null","","","catch","l","sh","sw","288","171","179","204","204","190","spektor","null","null","null","null","null","null","null","null","null","null","null","","180","200","260","200","36000","52000","[1,2]","","",""
"","canvas-keyboard-response","230","163639","0.0-6.0-0.32","518","","","","","pre trial waiting period","null","null","","","catch","l","sw","sh","182","264","217","181","198","201","trueblood","null","null","null","null","null","null","null","null","null","null","null","","180","200","260","200","36000","52000","[1,2]","404.9848329984267","488.90127885394367","482.7742563538393"
"","canvas-keyboard-response","231","163659","0.0-6.0-1.32","518","","","","","clear_screen","null","null","","","catch","l","sw","sh","182","264","217","181","198","201","trueblood","null","null","null","null","null","null","null","null","null","null","null","","180","200","260","200","36000","52000","[1,2]","404.9848329984267","488.90127885394367","482.7742563538393"
"","canvas-keyboard-response","232","164166","0.0-6.0-2.32","518","","","","","rectangles no change","null","null","","","catch","l","sw","sh","182","264","217","181","198","201","trueblood","null","null","null","null","null","null","null","null","null","null","null","","180","200","260","200","36000","52000","[1,2]","404.9848329984267","488.90127885394367","482.7742563538393"
"","canvas-keyboard-response","233","165504","0.0-6.0-3.32","518","","","","","rectangles with change","null","null","","","catch","l","sw","sh","182","264","217","181","198","201","trueblood","null","null","null","null","null","null","null","null","null","null","null","","180","200","260","200","36000","52000","[1,2]","404.9848329984267","488.90127885394367","482.7742563538393"
"","canvas-keyboard-response","234","165522","0.0-6.0-4.32","518","","","","","clear_screen","null","null","","","catch","l","sw","sh","182","264","217","181","198","201","trueblood","null","null","null","null","null","null","null","null","null","null","null","","180","200","260","200","36000","52000","[1,2]","404.9848329984267","488.90127885394367","482.7742563538393"
"","canvas-keyboard-response","235","165828","0.0-6.0-5.32","518","","","","","make choice","296","1","","","catch","l","sw","sh","182","264","217","181","198","201","trueblood","null","null","null","null","null","null","null","null","null","null","null","","180","200","260","200","36000","52000","[1,2]","","",""
"","canvas-keyboard-response","236","165841","0.0-6.0-6.32","518","","","","","clear_screen","null","null","","","catch","l","sw","sh","182","264","217","181","198","201","trueblood","null","null","null","null","null","null","null","null","null","null","null","","180","200","260","200","36000","52000","[1,2]","","",""
"","canvas-keyboard-response","237","166042","0.0-6.0-0.33","518","","","","","pre trial waiting period","null","null","","","critical","c","d","t","164","240","220.0396","154.6796","240","164","trueblood","0.14","w","240","164","164","240","220.0396","154.6796","39360","39360","34035.6388","dc","null","null","null","null","null","null","[2,1]","424.08651714099545","487.8333943386105","478.40621891295706"
"","canvas-keyboard-response","238","166062","0.0-6.0-1.33","518","","","","","clear_screen","null","null","","","critical","c","d","t","164","240","220.0396","154.6796","240","164","trueblood","0.14","w","240","164","164","240","220.0396","154.6796","39360","39360","34035.6388","dc","null","null","null","null","null","null","[2,1]","424.08651714099545","487.8333943386105","478.40621891295706"
"","canvas-keyboard-response","239","166568","0.0-6.0-2.33","518","","","","","rectangles no change","null","null","","","critical","c","d","t","164","240","220.0396","154.6796","240","164","trueblood","0.14","w","240","164","164","240","220.0396","154.6796","39360","39360","34035.6388","dc","null","null","null","null","null","null","[2,1]","424.08651714099545","487.8333943386105","478.40621891295706"
"","canvas-keyboard-response","240","167907","0.0-6.0-3.33","518","","","","","rectangles with change","null","null","","","critical","c","d","t","164","240","220.0396","154.6796","240","164","trueblood","0.14","w","240","164","164","240","220.0396","154.6796","39360","39360","34035.6388","dc","null","null","null","null","null","null","[2,1]","424.08651714099545","487.8333943386105","478.40621891295706"
"","canvas-keyboard-response","241","167926","0.0-6.0-4.33","518","","","","","clear_screen","null","null","","","critical","c","d","t","164","240","220.0396","154.6796","240","164","trueblood","0.14","w","240","164","164","240","220.0396","154.6796","39360","39360","34035.6388","dc","null","null","null","null","null","null","[2,1]","424.08651714099545","487.8333943386105","478.40621891295706"
"","canvas-keyboard-response","242","168231","0.0-6.0-5.33","518","","","","","make choice","301","1","","","critical","c","d","t","164","240","220.0396","154.6796","240","164","trueblood","0.14","w","240","164","164","240","220.0396","154.6796","39360","39360","34035.6388","dc","null","null","null","null","null","null","[2,1]","","",""
"","canvas-keyboard-response","243","168248","0.0-6.0-6.33","518","","","","","clear_screen","null","null","","","critical","c","d","t","164","240","220.0396","154.6796","240","164","trueblood","0.14","w","240","164","164","240","220.0396","154.6796","39360","39360","34035.6388","dc","null","null","null","null","null","null","[2,1]","","",""
"","canvas-keyboard-response","244","168449","0.0-6.0-0.34","518","","","","","pre trial waiting period","null","null","","","catch","sw","sh","l","180","200","234","176","266","205","spektor","null","null","null","null","null","null","null","null","null","null","null","","180","200","260","200","36000","52000","[2,3]","498.40160889076566","155.62772423722782","504.85874810269905"
"","canvas-keyboard-response","245","168469","0.0-6.0-1.34","518","","","","","clear_screen","null","null","","","catch","sw","sh","l","180","200","234","176","266","205","spektor","null","null","null","null","null","null","null","null","null","null","null","","180","200","260","200","36000","52000","[2,3]","498.40160889076566","155.62772423722782","504.85874810269905"
"","canvas-keyboard-response","246","168977","0.0-6.0-2.34","518","","","","","rectangles no change","null","null","","","catch","sw","sh","l","180","200","234","176","266","205","spektor","null","null","null","null","null","null","null","null","null","null","null","","180","200","260","200","36000","52000","[2,3]","498.40160889076566","155.62772423722782","504.85874810269905"
"","canvas-keyboard-response","247","170316","0.0-6.0-3.34","518","","","","","rectangles with change","null","null","","","catch","sw","sh","l","180","200","234","176","266","205","spektor","null","null","null","null","null","null","null","null","null","null","null","","180","200","260","200","36000","52000","[2,3]","498.40160889076566","155.62772423722782","504.85874810269905"
"","canvas-keyboard-response","248","170334","0.0-6.0-4.34","518","","","","","clear_screen","null","null","","","catch","sw","sh","l","180","200","234","176","266","205","spektor","null","null","null","null","null","null","null","null","null","null","null","","180","200","260","200","36000","52000","[2,3]","498.40160889076566","155.62772423722782","504.85874810269905"
"","canvas-keyboard-response","249","171149","0.0-6.0-5.34","518","","","","","make choice","810","3","","","catch","sw","sh","l","180","200","234","176","266","205","spektor","null","null","null","null","null","null","null","null","null","null","null","","180","200","260","200","36000","52000","[2,3]","","",""
"","canvas-keyboard-response","250","171171","0.0-6.0-6.34","518","","","","","clear_screen","null","null","","","catch","sw","sh","l","180","200","234","176","266","205","spektor","null","null","null","null","null","null","null","null","null","null","null","","180","200","260","200","36000","52000","[2,3]","","",""
"","canvas-keyboard-response","251","171372","0.0-6.0-0.35","518","","","","","pre trial waiting period","null","null","","","critical","d","c","t","240","164","164","240","240","164","trueblood","0","w","240","164","164","240","240","164","39360","39360","39360","td","null","null","null","null","null","null","[3,1]","483.80532514995457","439.7780532753884","484.6133637946838"
"","canvas-keyboard-response","252","171393","0.0-6.0-1.35","518","","","","","clear_screen","null","null","","","critical","d","c","t","240","164","164","240","240","164","trueblood","0","w","240","164","164","240","240","164","39360","39360","39360","td","null","null","null","null","null","null","[3,1]","483.80532514995457","439.7780532753884","484.6133637946838"
"","canvas-keyboard-response","253","171898","0.0-6.0-2.35","518","","","","","rectangles no change","null","null","","","critical","d","c","t","240","164","164","240","240","164","trueblood","0","w","240","164","164","240","240","164","39360","39360","39360","td","null","null","null","null","null","null","[3,1]","483.80532514995457","439.7780532753884","484.6133637946838"
"","canvas-keyboard-response","254","173235","0.0-6.0-3.35","518","","","","","rectangles with change","null","null","","","critical","d","c","t","240","164","164","240","240","164","trueblood","0","w","240","164","164","240","240","164","39360","39360","39360","td","null","null","null","null","null","null","[3,1]","483.80532514995457","439.7780532753884","484.6133637946838"
"","canvas-keyboard-response","255","173255","0.0-6.0-4.35","518","","","","","clear_screen","null","null","","","critical","d","c","t","240","164","164","240","240","164","trueblood","0","w","240","164","164","240","240","164","39360","39360","39360","td","null","null","null","null","null","null","[3,1]","483.80532514995457","439.7780532753884","484.6133637946838"
"","canvas-keyboard-response","256","173541","0.0-6.0-5.35","518","","","","","make choice","282","1","","","critical","d","c","t","240","164","164","240","240","164","trueblood","0","w","240","164","164","240","240","164","39360","39360","39360","td","null","null","null","null","null","null","[3,1]","","",""
"","canvas-keyboard-response","257","173559","0.0-6.0-6.35","518","","","","","clear_screen","null","null","","","critical","d","c","t","240","164","164","240","240","164","trueblood","0","w","240","164","164","240","240","164","39360","39360","39360","td","null","null","null","null","null","null","[3,1]","","",""
"","canvas-keyboard-response","258","173760","0.0-6.0-0.36","518","","","","","pre trial waiting period","null","null","","","critical","d","c","t","220.0396","154.6796","164","240","240","164","spektor","0.14","w","240","164","164","240","220.0396","154.6796","39360","39360","34035.6388","tc","null","null","null","null","null","null","[3,2]","513.2690394277339","120.12371930152239","501.88215056642156"
"","canvas-keyboard-response","259","173780","0.0-6.0-1.36","518","","","","","clear_screen","null","null","","","critical","d","c","t","220.0396","154.6796","164","240","240","164","spektor","0.14","w","240","164","164","240","220.0396","154.6796","39360","39360","34035.6388","tc","null","null","null","null","null","null","[3,2]","513.2690394277339","120.12371930152239","501.88215056642156"
"","canvas-keyboard-response","260","174292","0.0-6.0-2.36","518","","","","","rectangles no change","null","null","","","critical","d","c","t","220.0396","154.6796","164","240","240","164","spektor","0.14","w","240","164","164","240","220.0396","154.6796","39360","39360","34035.6388","tc","null","null","null","null","null","null","[3,2]","513.2690394277339","120.12371930152239","501.88215056642156"
"","canvas-keyboard-response","261","175627","0.0-6.0-3.36","518","","","","","rectangles with change","null","null","","","critical","d","c","t","220.0396","154.6796","164","240","240","164","spektor","0.14","w","240","164","164","240","220.0396","154.6796","39360","39360","34035.6388","tc","null","null","null","null","null","null","[3,2]","513.2690394277339","120.12371930152239","501.88215056642156"
"","canvas-keyboard-response","262","175648","0.0-6.0-4.36","518","","","","","clear_screen","null","null","","","critical","d","c","t","220.0396","154.6796","164","240","240","164","spektor","0.14","w","240","164","164","240","220.0396","154.6796","39360","39360","34035.6388","tc","null","null","null","null","null","null","[3,2]","513.2690394277339","120.12371930152239","501.88215056642156"
"","canvas-keyboard-response","263","175941","0.0-6.0-5.36","518","","","","","make choice","287","2","","","critical","d","c","t","220.0396","154.6796","164","240","240","164","spektor","0.14","w","240","164","164","240","220.0396","154.6796","39360","39360","34035.6388","tc","null","null","null","null","null","null","[3,2]","","",""
"","canvas-keyboard-response","264","175960","0.0-6.0-6.36","518","","","","","clear_screen","null","null","","","critical","d","c","t","220.0396","154.6796","164","240","240","164","spektor","0.14","w","240","164","164","240","220.0396","154.6796","39360","39360","34035.6388","tc","null","null","null","null","null","null","[3,2]","","",""
"","canvas-keyboard-response","265","176161","0.0-6.0-0.37","518","","","","","pre trial waiting period","null","null","","","catch","sh","sw","l","232","210","154","225","242","194","spektor","null","null","null","null","null","null","null","null","null","null","null","","180","200","260","200","36000","52000","[2,3]","510.89645041979304","148.05367573491685","505.5518712305605"
