"success","trial_type","trial_index","time_elapsed","internal_node_id","sub_n","timeout","failed_images","failed_audio","failed_video","screen_id","rt","response","stimulus","view_history","trial","r1","r2","r3","w1","h1","w2","h2","w3","h3","display","tdd","tdo","tw","th","cw","ch","dw","dh","ta","ca","da","probe","csls","csss","clls","clss","sa","la","probe_rects","r1yloc","r2yloc","r3yloc"
"true","fullscreen","0","2282","0.0-0.0","521","","","","","","","","","","","","","","","","","","","","","","","","","","","","","","","","","","","","","","","","","",""
"true","preload","1","2343","0.0-1.0","521","false","[]","[]","[]","img preload","","","","","","","","","","","","","","","","","","","","","","","","","","","","","","","","","","","","",""
"","survey-html-form","2","262113","0.0-2.0","521","","","","","enter-sub-number","259758","{""response"":""521""}","","","","","","","","","","","","","","","","","","","","","","","","","","","","","","","","","","",""
"","image-button-response","3","278443","0.0-3.0","521","","","","","","16264","0","consent.png","","","","","","","","","","","","","","","","","","","","","","","","","","","","","","","","","",""
"","html-button-response","4","285188","0.0-4.0","521","","","","","intro mssg","6738","0","<div style= ""font-size:25px;"" <p> <strong> Welcome! </strong><br> <p style=""color:#8B0000; font-size:25px;""><strong> Please do NOT exit full screen until you are done with the experiment. </strong> </p><p style=""font-size:25px;color:#8B0000;""> <strong> Your data will be lost <br> if you try to go back or refresh the page after the experiment starts. Feel free to click ""previous"" during the instructions, however.</strong> </p><br><p> <strong> Thanks in advance for your contribution to our research! </strong></p>","","","","","","","","","","","","","","","","","","","","","","","","","","","","","","","","","",""
"","instructions","5","317402","0.0-5.0","521","","","","","instructions","32211","","","[{""page_index"":0,""viewing_time"":4940},{""page_index"":1,""viewing_time"":4281},{""page_index"":2,""viewing_time"":4272},{""page_index"":3,""viewing_time"":9535},{""page_index"":4,""viewing_time"":4128},{""page_index"":5,""viewing_time"":1840},{""page_index"":6,""viewing_time"":2088},{""page_index"":7,""viewing_time"":1127}]","","","","","","","","","","","","","","","","","","","","","","","","","","","","","","","","",""
"","canvas-keyboard-response","6","317605","0.0-6.0-0.0","521","","","","","pre trial waiting period","null","null","","","critical","t","c","d","164","240","240","164","162.6685","237.1485","trueblood","0.02","h","164","240","240","164","162.6685","237.1485","39360","39360","38576.5967","td","null","null","null","null","null","null","[1,3]","464.6914512085291","510.80472606569896","444.45771326946283"
"","canvas-keyboard-response","7","317627","0.0-6.0-1.0","521","","","","","clear_screen","null","null","","","critical","t","c","d","164","240","240","164","162.6685","237.1485","trueblood","0.02","h","164","240","240","164","162.6685","237.1485","39360","39360","38576.5967","td","null","null","null","null","null","null","[1,3]","464.6914512085291","510.80472606569896","444.45771326946283"
"","canvas-keyboard-response","8","318136","0.0-6.0-2.0","521","","","","","rectangles no change","null","null","","","critical","t","c","d","164","240","240","164","162.6685","237.1485","trueblood","0.02","h","164","240","240","164","162.6685","237.1485","39360","39360","38576.5967","td","null","null","null","null","null","null","[1,3]","464.6914512085291","510.80472606569896","444.45771326946283"
"","canvas-keyboard-response","9","319474","0.0-6.0-3.0","521","","","","","rectangles with change","null","null","","","critical","t","c","d","164","240","240","164","162.6685","237.1485","trueblood","0.02","h","164","240","240","164","162.6685","237.1485","39360","39360","38576.5967","td","null","null","null","null","null","null","[1,3]","464.6914512085291","510.80472606569896","444.45771326946283"
"","canvas-keyboard-response","10","319492","0.0-6.0-4.0","521","","","","","clear_screen","null","null","","","critical","t","c","d","164","240","240","164","162.6685","237.1485","trueblood","0.02","h","164","240","240","164","162.6685","237.1485","39360","39360","38576.5967","td","null","null","null","null","null","null","[1,3]","464.6914512085291","510.80472606569896","444.45771326946283"
"","canvas-keyboard-response","11","322492","0.0-6.0-5.0","521","","","","","make choice","2991","3","","","critical","t","c","d","164","240","240","164","162.6685","237.1485","trueblood","0.02","h","164","240","240","164","162.6685","237.1485","39360","39360","38576.5967","td","null","null","null","null","null","null","[1,3]","","",""
"","canvas-keyboard-response","12","322511","0.0-6.0-6.0","521","","","","","clear_screen","null","null","","","critical","t","c","d","164","240","240","164","162.6685","237.1485","trueblood","0.02","h","164","240","240","164","162.6685","237.1485","39360","39360","38576.5967","td","null","null","null","null","null","null","[1,3]","","",""
"","canvas-keyboard-response","13","322712","0.0-6.0-0.1","521","","","","","pre trial waiting period","null","null","","","catch","sw","l","sh","180","200","290","218","221","177","trueblood","null","null","null","null","null","null","null","null","null","null","null","","180","200","260","200","36000","52000","[1,2]","456.6592816109157","446.8479140133633","471.3844986956801"
"","canvas-keyboard-response","14","322734","0.0-6.0-1.1","521","","","","","clear_screen","null","null","","","catch","sw","l","sh","180","200","290","218","221","177","trueblood","null","null","null","null","null","null","null","null","null","null","null","","180","200","260","200","36000","52000","[1,2]","456.6592816109157","446.8479140133633","471.3844986956801"
"","canvas-keyboard-response","15","323243","0.0-6.0-2.1","521","","","","","rectangles no change","null","null","","","catch","sw","l","sh","180","200","290","218","221","177","trueblood","null","null","null","null","null","null","null","null","null","null","null","","180","200","260","200","36000","52000","[1,2]","456.6592816109157","446.8479140133633","471.3844986956801"
"","canvas-keyboard-response","16","324578","0.0-6.0-3.1","521","","","","","rectangles with change","null","null","","","catch","sw","l","sh","180","200","290","218","221","177","trueblood","null","null","null","null","null","null","null","null","null","null","null","","180","200","260","200","36000","52000","[1,2]","456.6592816109157","446.8479140133633","471.3844986956801"
"","canvas-keyboard-response","17","324602","0.0-6.0-4.1","521","","","","","clear_screen","null","null","","","catch","sw","l","sh","180","200","290","218","221","177","trueblood","null","null","null","null","null","null","null","null","null","null","null","","180","200","260","200","36000","52000","[1,2]","456.6592816109157","446.8479140133633","471.3844986956801"
"","canvas-keyboard-response","18","327267","0.0-6.0-5.1","521","","","","","make choice","2656","2","","","catch","sw","l","sh","180","200","290","218","221","177","trueblood","null","null","null","null","null","null","null","null","null","null","null","","180","200","260","200","36000","52000","[1,2]","","",""
"","canvas-keyboard-response","19","327285","0.0-6.0-6.1","521","","","","","clear_screen","null","null","","","catch","sw","l","sh","180","200","290","218","221","177","trueblood","null","null","null","null","null","null","null","null","null","null","null","","180","200","260","200","36000","52000","[1,2]","","",""
"","canvas-keyboard-response","20","327487","0.0-6.0-0.2","521","","","","","pre trial waiting period","null","null","","","catch","sw","l","sh","180","200","187","294","169","149","spektor","null","null","null","null","null","null","null","null","null","null","null","","180","200","260","200","36000","52000","[2,3]","507.11834449578333","99.03772532784801","521.6316649869395"
"","canvas-keyboard-response","21","327510","0.0-6.0-1.2","521","","","","","clear_screen","null","null","","","catch","sw","l","sh","180","200","187","294","169","149","spektor","null","null","null","null","null","null","null","null","null","null","null","","180","200","260","200","36000","52000","[2,3]","507.11834449578333","99.03772532784801","521.6316649869395"
"","canvas-keyboard-response","22","328019","0.0-6.0-2.2","521","","","","","rectangles no change","null","null","","","catch","sw","l","sh","180","200","187","294","169","149","spektor","null","null","null","null","null","null","null","null","null","null","null","","180","200","260","200","36000","52000","[2,3]","507.11834449578333","99.03772532784801","521.6316649869395"
"","canvas-keyboard-response","23","329354","0.0-6.0-3.2","521","","","","","rectangles with change","null","null","","","catch","sw","l","sh","180","200","187","294","169","149","spektor","null","null","null","null","null","null","null","null","null","null","null","","180","200","260","200","36000","52000","[2,3]","507.11834449578333","99.03772532784801","521.6316649869395"
"","canvas-keyboard-response","24","329375","0.0-6.0-4.2","521","","","","","clear_screen","null","null","","","catch","sw","l","sh","180","200","187","294","169","149","spektor","null","null","null","null","null","null","null","null","null","null","null","","180","200","260","200","36000","52000","[2,3]","507.11834449578333","99.03772532784801","521.6316649869395"
"","canvas-keyboard-response","25","331195","0.0-6.0-5.2","521","","","","","make choice","1817","2","","","catch","sw","l","sh","180","200","187","294","169","149","spektor","null","null","null","null","null","null","null","null","null","null","null","","180","200","260","200","36000","52000","[2,3]","","",""
"","canvas-keyboard-response","26","331214","0.0-6.0-6.2","521","","","","","clear_screen","null","null","","","catch","sw","l","sh","180","200","187","294","169","149","spektor","null","null","null","null","null","null","null","null","null","null","null","","180","200","260","200","36000","52000","[2,3]","","",""
"","canvas-keyboard-response","27","331415","0.0-6.0-0.3","521","","","","","pre trial waiting period","null","null","","","critical","c","t","d","164","240","240","164","240","164","spektor","0","w","240","164","164","240","240","164","39360","39360","39360","dc","null","null","null","null","null","null","[3,1]","498.82278836296257","212.3344446290753","527.7574042977163"
"","canvas-keyboard-response","28","331435","0.0-6.0-1.3","521","","","","","clear_screen","null","null","","","critical","c","t","d","164","240","240","164","240","164","spektor","0","w","240","164","164","240","240","164","39360","39360","39360","dc","null","null","null","null","null","null","[3,1]","498.82278836296257","212.3344446290753","527.7574042977163"
"","canvas-keyboard-response","29","331945","0.0-6.0-2.3","521","","","","","rectangles no change","null","null","","","critical","c","t","d","164","240","240","164","240","164","spektor","0","w","240","164","164","240","240","164","39360","39360","39360","dc","null","null","null","null","null","null","[3,1]","498.82278836296257","212.3344446290753","527.7574042977163"
"","canvas-keyboard-response","30","333280","0.0-6.0-3.3","521","","","","","rectangles with change","null","null","","","critical","c","t","d","164","240","240","164","240","164","spektor","0","w","240","164","164","240","240","164","39360","39360","39360","dc","null","null","null","null","null","null","[3,1]","498.82278836296257","212.3344446290753","527.7574042977163"
"","canvas-keyboard-response","31","333300","0.0-6.0-4.3","521","","","","","clear_screen","null","null","","","critical","c","t","d","164","240","240","164","240","164","spektor","0","w","240","164","164","240","240","164","39360","39360","39360","dc","null","null","null","null","null","null","[3,1]","498.82278836296257","212.3344446290753","527.7574042977163"
"","canvas-keyboard-response","32","334420","0.0-6.0-5.3","521","","","","","make choice","1114","3","","","critical","c","t","d","164","240","240","164","240","164","spektor","0","w","240","164","164","240","240","164","39360","39360","39360","dc","null","null","null","null","null","null","[3,1]","","",""
"","canvas-keyboard-response","33","334439","0.0-6.0-6.3","521","","","","","clear_screen","null","null","","","critical","c","t","d","164","240","240","164","240","164","spektor","0","w","240","164","164","240","240","164","39360","39360","39360","dc","null","null","null","null","null","null","[3,1]","","",""
"","canvas-keyboard-response","34","334640","0.0-6.0-0.4","521","","","","","pre trial waiting period","null","null","","","critical","t","d","c","240","164","232.8713","160.6713","164","240","trueblood","0.05","w","240","164","164","240","232.8713","160.6713","39360","39360","37415.7294","dc","null","null","null","null","null","null","[2,3]","498.6997679482328","484.1016542969684","451.9647555519122"
"","canvas-keyboard-response","35","334660","0.0-6.0-1.4","521","","","","","clear_screen","null","null","","","critical","t","d","c","240","164","232.8713","160.6713","164","240","trueblood","0.05","w","240","164","164","240","232.8713","160.6713","39360","39360","37415.7294","dc","null","null","null","null","null","null","[2,3]","498.6997679482328","484.1016542969684","451.9647555519122"
"","canvas-keyboard-response","36","335166","0.0-6.0-2.4","521","","","","","rectangles no change","null","null","","","critical","t","d","c","240","164","232.8713","160.6713","164","240","trueblood","0.05","w","240","164","164","240","232.8713","160.6713","39360","39360","37415.7294","dc","null","null","null","null","null","null","[2,3]","498.6997679482328","484.1016542969684","451.9647555519122"
"","canvas-keyboard-response","37","336496","0.0-6.0-3.4","521","","","","","rectangles with change","null","null","","","critical","t","d","c","240","164","232.8713","160.6713","164","240","trueblood","0.05","w","240","164","164","240","232.8713","160.6713","39360","39360","37415.7294","dc","null","null","null","null","null","null","[2,3]","498.6997679482328","484.1016542969684","451.9647555519122"
"","canvas-keyboard-response","38","336516","0.0-6.0-4.4","521","","","","","clear_screen","null","null","","","critical","t","d","c","240","164","232.8713","160.6713","164","240","trueblood","0.05","w","240","164","164","240","232.8713","160.6713","39360","39360","37415.7294","dc","null","null","null","null","null","null","[2,3]","498.6997679482328","484.1016542969684","451.9647555519122"
"","canvas-keyboard-response","39","338067","0.0-6.0-5.4","521","","","","","make choice","1548","2","","","critical","t","d","c","240","164","232.8713","160.6713","164","240","trueblood","0.05","w","240","164","164","240","232.8713","160.6713","39360","39360","37415.7294","dc","null","null","null","null","null","null","[2,3]","","",""
"","canvas-keyboard-response","40","338085","0.0-6.0-6.4","521","","","","","clear_screen","null","null","","","critical","t","d","c","240","164","232.8713","160.6713","164","240","trueblood","0.05","w","240","164","164","240","232.8713","160.6713","39360","39360","37415.7294","dc","null","null","null","null","null","null","[2,3]","","",""
"","canvas-keyboard-response","41","338287","0.0-6.0-0.5","521","","","","","pre trial waiting period","null","null","","","critical","c","t","d","164","240","240","164","220.0396","154.6796","spektor","0.14","w","240","164","164","240","220.0396","154.6796","39360","39360","34035.6388","dc","null","null","null","null","null","null","[3,1]","499.9708889127597","215.93157782845165","531.5328302057083"
"","canvas-keyboard-response","42","338308","0.0-6.0-1.5","521","","","","","clear_screen","null","null","","","critical","c","t","d","164","240","240","164","220.0396","154.6796","spektor","0.14","w","240","164","164","240","220.0396","154.6796","39360","39360","34035.6388","dc","null","null","null","null","null","null","[3,1]","499.9708889127597","215.93157782845165","531.5328302057083"
"","canvas-keyboard-response","43","338816","0.0-6.0-2.5","521","","","","","rectangles no change","null","null","","","critical","c","t","d","164","240","240","164","220.0396","154.6796","spektor","0.14","w","240","164","164","240","220.0396","154.6796","39360","39360","34035.6388","dc","null","null","null","null","null","null","[3,1]","499.9708889127597","215.93157782845165","531.5328302057083"
"","canvas-keyboard-response","44","340151","0.0-6.0-3.5","521","","","","","rectangles with change","null","null","","","critical","c","t","d","164","240","240","164","220.0396","154.6796","spektor","0.14","w","240","164","164","240","220.0396","154.6796","39360","39360","34035.6388","dc","null","null","null","null","null","null","[3,1]","499.9708889127597","215.93157782845165","531.5328302057083"
"","canvas-keyboard-response","45","340173","0.0-6.0-4.5","521","","","","","clear_screen","null","null","","","critical","c","t","d","164","240","240","164","220.0396","154.6796","spektor","0.14","w","240","164","164","240","220.0396","154.6796","39360","39360","34035.6388","dc","null","null","null","null","null","null","[3,1]","499.9708889127597","215.93157782845165","531.5328302057083"
"","canvas-keyboard-response","46","342131","0.0-6.0-5.5","521","","","","","make choice","1951","3","","","critical","c","t","d","164","240","240","164","220.0396","154.6796","spektor","0.14","w","240","164","164","240","220.0396","154.6796","39360","39360","34035.6388","dc","null","null","null","null","null","null","[3,1]","","",""
"","canvas-keyboard-response","47","342149","0.0-6.0-6.5","521","","","","","clear_screen","null","null","","","critical","c","t","d","164","240","240","164","220.0396","154.6796","spektor","0.14","w","240","164","164","240","220.0396","154.6796","39360","39360","34035.6388","dc","null","null","null","null","null","null","[3,1]","","",""
"","canvas-keyboard-response","48","342350","0.0-6.0-0.6","521","","","","","pre trial waiting period","null","null","","","critical","c","d","t","164","240","227.1683","158.0083","240","164","trueblood","0.09","w","240","164","164","240","227.1683","158.0083","39360","39360","35894.4834","dc","null","null","null","null","null","null","[2,1]","435.2150760591707","480.3715399720861","479.45379335153086"
"","canvas-keyboard-response","49","342370","0.0-6.0-1.6","521","","","","","clear_screen","null","null","","","critical","c","d","t","164","240","227.1683","158.0083","240","164","trueblood","0.09","w","240","164","164","240","227.1683","158.0083","39360","39360","35894.4834","dc","null","null","null","null","null","null","[2,1]","435.2150760591707","480.3715399720861","479.45379335153086"
"","canvas-keyboard-response","50","342879","0.0-6.0-2.6","521","","","","","rectangles no change","null","null","","","critical","c","d","t","164","240","227.1683","158.0083","240","164","trueblood","0.09","w","240","164","164","240","227.1683","158.0083","39360","39360","35894.4834","dc","null","null","null","null","null","null","[2,1]","435.2150760591707","480.3715399720861","479.45379335153086"
"","canvas-keyboard-response","51","344215","0.0-6.0-3.6","521","","","","","rectangles with change","null","null","","","critical","c","d","t","164","240","227.1683","158.0083","240","164","trueblood","0.09","w","240","164","164","240","227.1683","158.0083","39360","39360","35894.4834","dc","null","null","null","null","null","null","[2,1]","435.2150760591707","480.3715399720861","479.45379335153086"
"","canvas-keyboard-response","52","344229","0.0-6.0-4.6","521","","","","","clear_screen","null","null","","","critical","c","d","t","164","240","227.1683","158.0083","240","164","trueblood","0.09","w","240","164","164","240","227.1683","158.0083","39360","39360","35894.4834","dc","null","null","null","null","null","null","[2,1]","435.2150760591707","480.3715399720861","479.45379335153086"
"","canvas-keyboard-response","53","344915","0.0-6.0-5.6","521","","","","","make choice","679","2","","","critical","c","d","t","164","240","227.1683","158.0083","240","164","trueblood","0.09","w","240","164","164","240","227.1683","158.0083","39360","39360","35894.4834","dc","null","null","null","null","null","null","[2,1]","","",""
"","canvas-keyboard-response","54","344935","0.0-6.0-6.6","521","","","","","clear_screen","null","null","","","critical","c","d","t","164","240","227.1683","158.0083","240","164","trueblood","0.09","w","240","164","164","240","227.1683","158.0083","39360","39360","35894.4834","dc","null","null","null","null","null","null","[2,1]","","",""
"","canvas-keyboard-response","55","345136","0.0-6.0-0.7","521","","","","","pre trial waiting period","null","null","","","critical","c","t","d","240","164","164","240","160.6713","232.8713","spektor","0.05","h","164","240","240","164","160.6713","232.8713","39360","39360","37415.7294","tc","null","null","null","null","null","null","[2,1]","500.3702845989037","96.6602728260913","508.4355575046353"
"","canvas-keyboard-response","56","345160","0.0-6.0-1.7","521","","","","","clear_screen","null","null","","","critical","c","t","d","240","164","164","240","160.6713","232.8713","spektor","0.05","h","164","240","240","164","160.6713","232.8713","39360","39360","37415.7294","tc","null","null","null","null","null","null","[2,1]","500.3702845989037","96.6602728260913","508.4355575046353"
"","canvas-keyboard-response","57","345668","0.0-6.0-2.7","521","","","","","rectangles no change","null","null","","","critical","c","t","d","240","164","164","240","160.6713","232.8713","spektor","0.05","h","164","240","240","164","160.6713","232.8713","39360","39360","37415.7294","tc","null","null","null","null","null","null","[2,1]","500.3702845989037","96.6602728260913","508.4355575046353"
"","canvas-keyboard-response","58","347003","0.0-6.0-3.7","521","","","","","rectangles with change","null","null","","","critical","c","t","d","240","164","164","240","160.6713","232.8713","spektor","0.05","h","164","240","240","164","160.6713","232.8713","39360","39360","37415.7294","tc","null","null","null","null","null","null","[2,1]","500.3702845989037","96.6602728260913","508.4355575046353"
"","canvas-keyboard-response","59","347020","0.0-6.0-4.7","521","","","","","clear_screen","null","null","","","critical","c","t","d","240","164","164","240","160.6713","232.8713","spektor","0.05","h","164","240","240","164","160.6713","232.8713","39360","39360","37415.7294","tc","null","null","null","null","null","null","[2,1]","500.3702845989037","96.6602728260913","508.4355575046353"
"","canvas-keyboard-response","60","347387","0.0-6.0-5.7","521","","","","","make choice","359","1","","","critical","c","t","d","240","164","164","240","160.6713","232.8713","spektor","0.05","h","164","240","240","164","160.6713","232.8713","39360","39360","37415.7294","tc","null","null","null","null","null","null","[2,1]","","",""
"","canvas-keyboard-response","61","347407","0.0-6.0-6.7","521","","","","","clear_screen","null","null","","","critical","c","t","d","240","164","164","240","160.6713","232.8713","spektor","0.05","h","164","240","240","164","160.6713","232.8713","39360","39360","37415.7294","tc","null","null","null","null","null","null","[2,1]","","",""
"","canvas-keyboard-response","62","347609","0.0-6.0-0.8","521","","","","","pre trial waiting period","null","null","","","critical","t","d","c","164","240","158.0083","227.1683","240","164","spektor","0.09","h","164","240","240","164","158.0083","227.1683","39360","39360","35894.4834","dc","null","null","null","null","null","null","[2,3]","478.4392686444944","112.80845010994719","493.5080203387876"
"","canvas-keyboard-response","63","347629","0.0-6.0-1.8","521","","","","","clear_screen","null","null","","","critical","t","d","c","164","240","158.0083","227.1683","240","164","spektor","0.09","h","164","240","240","164","158.0083","227.1683","39360","39360","35894.4834","dc","null","null","null","null","null","null","[2,3]","478.4392686444944","112.80845010994719","493.5080203387876"
"","canvas-keyboard-response","64","348134","0.0-6.0-2.8","521","","","","","rectangles no change","null","null","","","critical","t","d","c","164","240","158.0083","227.1683","240","164","spektor","0.09","h","164","240","240","164","158.0083","227.1683","39360","39360","35894.4834","dc","null","null","null","null","null","null","[2,3]","478.4392686444944","112.80845010994719","493.5080203387876"
"","canvas-keyboard-response","65","349470","0.0-6.0-3.8","521","","","","","rectangles with change","null","null","","","critical","t","d","c","164","240","158.0083","227.1683","240","164","spektor","0.09","h","164","240","240","164","158.0083","227.1683","39360","39360","35894.4834","dc","null","null","null","null","null","null","[2,3]","478.4392686444944","112.80845010994719","493.5080203387876"
"","canvas-keyboard-response","66","349491","0.0-6.0-4.8","521","","","","","clear_screen","null","null","","","critical","t","d","c","164","240","158.0083","227.1683","240","164","spektor","0.09","h","164","240","240","164","158.0083","227.1683","39360","39360","35894.4834","dc","null","null","null","null","null","null","[2,3]","478.4392686444944","112.80845010994719","493.5080203387876"
"","canvas-keyboard-response","67","349748","0.0-6.0-5.8","521","","","","","make choice","246","3","","","critical","t","d","c","164","240","158.0083","227.1683","240","164","spektor","0.09","h","164","240","240","164","158.0083","227.1683","39360","39360","35894.4834","dc","null","null","null","null","null","null","[2,3]","","",""
"","canvas-keyboard-response","68","349769","0.0-6.0-6.8","521","","","","","clear_screen","null","null","","","critical","t","d","c","164","240","158.0083","227.1683","240","164","spektor","0.09","h","164","240","240","164","158.0083","227.1683","39360","39360","35894.4834","dc","null","null","null","null","null","null","[2,3]","","",""
"","canvas-keyboard-response","69","349971","0.0-6.0-0.9","521","","","","","pre trial waiting period","null","null","","","catch","sh","sw","l","180","189","189","238","228","257","trueblood","null","null","null","null","null","null","null","null","null","null","null","","180","200","260","200","36000","52000","[2,3]","468.4051173761976","431.8915296725076","453.8111407223846"
"","canvas-keyboard-response","70","349990","0.0-6.0-1.9","521","","","","","clear_screen","null","null","","","catch","sh","sw","l","180","189","189","238","228","257","trueblood","null","null","null","null","null","null","null","null","null","null","null","","180","200","260","200","36000","52000","[2,3]","468.4051173761976","431.8915296725076","453.8111407223846"
"","canvas-keyboard-response","71","350499","0.0-6.0-2.9","521","","","","","rectangles no change","null","null","","","catch","sh","sw","l","180","189","189","238","228","257","trueblood","null","null","null","null","null","null","null","null","null","null","null","","180","200","260","200","36000","52000","[2,3]","468.4051173761976","431.8915296725076","453.8111407223846"
"","canvas-keyboard-response","72","351835","0.0-6.0-3.9","521","","","","","rectangles with change","null","null","","","catch","sh","sw","l","180","189","189","238","228","257","trueblood","null","null","null","null","null","null","null","null","null","null","null","","180","200","260","200","36000","52000","[2,3]","468.4051173761976","431.8915296725076","453.8111407223846"
"","canvas-keyboard-response","73","351854","0.0-6.0-4.9","521","","","","","clear_screen","null","null","","","catch","sh","sw","l","180","189","189","238","228","257","trueblood","null","null","null","null","null","null","null","null","null","null","null","","180","200","260","200","36000","52000","[2,3]","468.4051173761976","431.8915296725076","453.8111407223846"
"","canvas-keyboard-response","74","352244","0.0-6.0-5.9","521","","","","","make choice","382","3","","","catch","sh","sw","l","180","189","189","238","228","257","trueblood","null","null","null","null","null","null","null","null","null","null","null","","180","200","260","200","36000","52000","[2,3]","","",""
"","canvas-keyboard-response","75","352261","0.0-6.0-6.9","521","","","","","clear_screen","null","null","","","catch","sh","sw","l","180","189","189","238","228","257","trueblood","null","null","null","null","null","null","null","null","null","null","null","","180","200","260","200","36000","52000","[2,3]","","",""
"","canvas-keyboard-response","76","352463","0.0-6.0-0.10","521","","","","","pre trial waiting period","null","null","","","critical","t","c","d","240","164","164","240","232.8713","160.6713","trueblood","0.05","w","240","164","164","240","232.8713","160.6713","39360","39360","37415.7294","td","null","null","null","null","null","null","[1,3]","500.26536559958856","424.9505845066529","517.4268600153126"
"","canvas-keyboard-response","77","352485","0.0-6.0-1.10","521","","","","","clear_screen","null","null","","","critical","t","c","d","240","164","164","240","232.8713","160.6713","trueblood","0.05","w","240","164","164","240","232.8713","160.6713","39360","39360","37415.7294","td","null","null","null","null","null","null","[1,3]","500.26536559958856","424.9505845066529","517.4268600153126"
"","canvas-keyboard-response","78","352994","0.0-6.0-2.10","521","","","","","rectangles no change","null","null","","","critical","t","c","d","240","164","164","240","232.8713","160.6713","trueblood","0.05","w","240","164","164","240","232.8713","160.6713","39360","39360","37415.7294","td","null","null","null","null","null","null","[1,3]","500.26536559958856","424.9505845066529","517.4268600153126"
"","canvas-keyboard-response","79","354334","0.0-6.0-3.10","521","","","","","rectangles with change","null","null","","","critical","t","c","d","240","164","164","240","232.8713","160.6713","trueblood","0.05","w","240","164","164","240","232.8713","160.6713","39360","39360","37415.7294","td","null","null","null","null","null","null","[1,3]","500.26536559958856","424.9505845066529","517.4268600153126"
"","canvas-keyboard-response","80","354352","0.0-6.0-4.10","521","","","","","clear_screen","null","null","","","critical","t","c","d","240","164","164","240","232.8713","160.6713","trueblood","0.05","w","240","164","164","240","232.8713","160.6713","39360","39360","37415.7294","td","null","null","null","null","null","null","[1,3]","500.26536559958856","424.9505845066529","517.4268600153126"
"","canvas-keyboard-response","81","354659","0.0-6.0-5.10","521","","","","","make choice","302","1","","","critical","t","c","d","240","164","164","240","232.8713","160.6713","trueblood","0.05","w","240","164","164","240","232.8713","160.6713","39360","39360","37415.7294","td","null","null","null","null","null","null","[1,3]","","",""
"","canvas-keyboard-response","82","354679","0.0-6.0-6.10","521","","","","","clear_screen","null","null","","","critical","t","c","d","240","164","164","240","232.8713","160.6713","trueblood","0.05","w","240","164","164","240","232.8713","160.6713","39360","39360","37415.7294","td","null","null","null","null","null","null","[1,3]","","",""
"","canvas-keyboard-response","83","354881","0.0-6.0-0.11","521","","","","","pre trial waiting period","null","null","","","critical","c","t","d","164","240","240","164","227.1683","158.0083","trueblood","0.09","w","240","164","164","240","227.1683","158.0083","39360","39360","35894.4834","td","null","null","null","null","null","null","[2,3]","454.0521844317205","475.0645728703499","492.6664506264175"
"","canvas-keyboard-response","84","354901","0.0-6.0-1.11","521","","","","","clear_screen","null","null","","","critical","c","t","d","164","240","240","164","227.1683","158.0083","trueblood","0.09","w","240","164","164","240","227.1683","158.0083","39360","39360","35894.4834","td","null","null","null","null","null","null","[2,3]","454.0521844317205","475.0645728703499","492.6664506264175"
"","canvas-keyboard-response","85","355406","0.0-6.0-2.11","521","","","","","rectangles no change","null","null","","","critical","c","t","d","164","240","240","164","227.1683","158.0083","trueblood","0.09","w","240","164","164","240","227.1683","158.0083","39360","39360","35894.4834","td","null","null","null","null","null","null","[2,3]","454.0521844317205","475.0645728703499","492.6664506264175"
"","canvas-keyboard-response","86","356742","0.0-6.0-3.11","521","","","","","rectangles with change","null","null","","","critical","c","t","d","164","240","240","164","227.1683","158.0083","trueblood","0.09","w","240","164","164","240","227.1683","158.0083","39360","39360","35894.4834","td","null","null","null","null","null","null","[2,3]","454.0521844317205","475.0645728703499","492.6664506264175"
"","canvas-keyboard-response","87","356763","0.0-6.0-4.11","521","","","","","clear_screen","null","null","","","critical","c","t","d","164","240","240","164","227.1683","158.0083","trueblood","0.09","w","240","164","164","240","227.1683","158.0083","39360","39360","35894.4834","td","null","null","null","null","null","null","[2,3]","454.0521844317205","475.0645728703499","492.6664506264175"
"","canvas-keyboard-response","88","357257","0.0-6.0-5.11","521","","","","","make choice","490","2","","","critical","c","t","d","164","240","240","164","227.1683","158.0083","trueblood","0.09","w","240","164","164","240","227.1683","158.0083","39360","39360","35894.4834","td","null","null","null","null","null","null","[2,3]","","",""
"","canvas-keyboard-response","89","357273","0.0-6.0-6.11","521","","","","","clear_screen","null","null","","","critical","c","t","d","164","240","240","164","227.1683","158.0083","trueblood","0.09","w","240","164","164","240","227.1683","158.0083","39360","39360","35894.4834","td","null","null","null","null","null","null","[2,3]","","",""
"","canvas-keyboard-response","90","357474","0.0-6.0-0.12","521","","","","","pre trial waiting period","null","null","","","critical","c","d","t","164","240","227.1683","158.0083","240","164","trueblood","0.09","w","240","164","164","240","227.1683","158.0083","39360","39360","35894.4834","tc","null","null","null","null","null","null","[3,1]","453.6017680532837","481.53062911993516","507.5381918489981"
"","canvas-keyboard-response","91","357498","0.0-6.0-1.12","521","","","","","clear_screen","null","null","","","critical","c","d","t","164","240","227.1683","158.0083","240","164","trueblood","0.09","w","240","164","164","240","227.1683","158.0083","39360","39360","35894.4834","tc","null","null","null","null","null","null","[3,1]","453.6017680532837","481.53062911993516","507.5381918489981"
"","canvas-keyboard-response","92","358008","0.0-6.0-2.12","521","","","","","rectangles no change","null","null","","","critical","c","d","t","164","240","227.1683","158.0083","240","164","trueblood","0.09","w","240","164","164","240","227.1683","158.0083","39360","39360","35894.4834","tc","null","null","null","null","null","null","[3,1]","453.6017680532837","481.53062911993516","507.5381918489981"
"","canvas-keyboard-response","93","359342","0.0-6.0-3.12","521","","","","","rectangles with change","null","null","","","critical","c","d","t","164","240","227.1683","158.0083","240","164","trueblood","0.09","w","240","164","164","240","227.1683","158.0083","39360","39360","35894.4834","tc","null","null","null","null","null","null","[3,1]","453.6017680532837","481.53062911993516","507.5381918489981"
"","canvas-keyboard-response","94","359363","0.0-6.0-4.12","521","","","","","clear_screen","null","null","","","critical","c","d","t","164","240","227.1683","158.0083","240","164","trueblood","0.09","w","240","164","164","240","227.1683","158.0083","39360","39360","35894.4834","tc","null","null","null","null","null","null","[3,1]","453.6017680532837","481.53062911993516","507.5381918489981"
"","canvas-keyboard-response","95","360075","0.0-6.0-5.12","521","","","","","make choice","708","3","","","critical","c","d","t","164","240","227.1683","158.0083","240","164","trueblood","0.09","w","240","164","164","240","227.1683","158.0083","39360","39360","35894.4834","tc","null","null","null","null","null","null","[3,1]","","",""
"","canvas-keyboard-response","96","360095","0.0-6.0-6.12","521","","","","","clear_screen","null","null","","","critical","c","d","t","164","240","227.1683","158.0083","240","164","trueblood","0.09","w","240","164","164","240","227.1683","158.0083","39360","39360","35894.4834","tc","null","null","null","null","null","null","[3,1]","","",""
"","canvas-keyboard-response","97","360297","0.0-6.0-0.13","521","","","","","pre trial waiting period","null","null","","","critical","c","t","d","240","164","164","240","158.0083","227.1683","trueblood","0.09","h","164","240","240","164","158.0083","227.1683","39360","39360","35894.4834","dc","null","null","null","null","null","null","[3,1]","478.14507195229476","444.67621574255793","437.4609634887175"
"","canvas-keyboard-response","98","360315","0.0-6.0-1.13","521","","","","","clear_screen","null","null","","","critical","c","t","d","240","164","164","240","158.0083","227.1683","trueblood","0.09","h","164","240","240","164","158.0083","227.1683","39360","39360","35894.4834","dc","null","null","null","null","null","null","[3,1]","478.14507195229476","444.67621574255793","437.4609634887175"
"","canvas-keyboard-response","99","360825","0.0-6.0-2.13","521","","","","","rectangles no change","null","null","","","critical","c","t","d","240","164","164","240","158.0083","227.1683","trueblood","0.09","h","164","240","240","164","158.0083","227.1683","39360","39360","35894.4834","dc","null","null","null","null","null","null","[3,1]","478.14507195229476","444.67621574255793","437.4609634887175"
"","canvas-keyboard-response","100","362160","0.0-6.0-3.13","521","","","","","rectangles with change","null","null","","","critical","c","t","d","240","164","164","240","158.0083","227.1683","trueblood","0.09","h","164","240","240","164","158.0083","227.1683","39360","39360","35894.4834","dc","null","null","null","null","null","null","[3,1]","478.14507195229476","444.67621574255793","437.4609634887175"
"","canvas-keyboard-response","101","362183","0.0-6.0-4.13","521","","","","","clear_screen","null","null","","","critical","c","t","d","240","164","164","240","158.0083","227.1683","trueblood","0.09","h","164","240","240","164","158.0083","227.1683","39360","39360","35894.4834","dc","null","null","null","null","null","null","[3,1]","478.14507195229476","444.67621574255793","437.4609634887175"
"","canvas-keyboard-response","102","362459","0.0-6.0-5.13","521","","","","","make choice","271","1","","","critical","c","t","d","240","164","164","240","158.0083","227.1683","trueblood","0.09","h","164","240","240","164","158.0083","227.1683","39360","39360","35894.4834","dc","null","null","null","null","null","null","[3,1]","","",""
"","canvas-keyboard-response","103","362480","0.0-6.0-6.13","521","","","","","clear_screen","null","null","","","critical","c","t","d","240","164","164","240","158.0083","227.1683","trueblood","0.09","h","164","240","240","164","158.0083","227.1683","39360","39360","35894.4834","dc","null","null","null","null","null","null","[3,1]","","",""
"","canvas-keyboard-response","104","362681","0.0-6.0-0.14","521","","","","","pre trial waiting period","null","null","","","critical","d","c","t","220.0396","154.6796","164","240","240","164","spektor","0.14","w","240","164","164","240","220.0396","154.6796","39360","39360","34035.6388","td","null","null","null","null","null","null","[3,1]","513.1656789149208","150.57448564219604","505.49936927505286"
"","canvas-keyboard-response","105","362701","0.0-6.0-1.14","521","","","","","clear_screen","null","null","","","critical","d","c","t","220.0396","154.6796","164","240","240","164","spektor","0.14","w","240","164","164","240","220.0396","154.6796","39360","39360","34035.6388","td","null","null","null","null","null","null","[3,1]","513.1656789149208","150.57448564219604","505.49936927505286"
"","canvas-keyboard-response","106","363208","0.0-6.0-2.14","521","","","","","rectangles no change","null","null","","","critical","d","c","t","220.0396","154.6796","164","240","240","164","spektor","0.14","w","240","164","164","240","220.0396","154.6796","39360","39360","34035.6388","td","null","null","null","null","null","null","[3,1]","513.1656789149208","150.57448564219604","505.49936927505286"
"","canvas-keyboard-response","107","364544","0.0-6.0-3.14","521","","","","","rectangles with change","null","null","","","critical","d","c","t","220.0396","154.6796","164","240","240","164","spektor","0.14","w","240","164","164","240","220.0396","154.6796","39360","39360","34035.6388","td","null","null","null","null","null","null","[3,1]","513.1656789149208","150.57448564219604","505.49936927505286"
"","canvas-keyboard-response","108","364566","0.0-6.0-4.14","521","","","","","clear_screen","null","null","","","critical","d","c","t","220.0396","154.6796","164","240","240","164","spektor","0.14","w","240","164","164","240","220.0396","154.6796","39360","39360","34035.6388","td","null","null","null","null","null","null","[3,1]","513.1656789149208","150.57448564219604","505.49936927505286"
"","canvas-keyboard-response","109","364931","0.0-6.0-5.14","521","","","","","make choice","360","3","","","critical","d","c","t","220.0396","154.6796","164","240","240","164","spektor","0.14","w","240","164","164","240","220.0396","154.6796","39360","39360","34035.6388","td","null","null","null","null","null","null","[3,1]","","",""
"","canvas-keyboard-response","110","364949","0.0-6.0-6.14","521","","","","","clear_screen","null","null","","","critical","d","c","t","220.0396","154.6796","164","240","240","164","spektor","0.14","w","240","164","164","240","220.0396","154.6796","39360","39360","34035.6388","td","null","null","null","null","null","null","[3,1]","","",""
"","canvas-keyboard-response","111","365150","0.0-6.0-0.15","521","","","","","pre trial waiting period","null","null","","","critical","c","t","d","164","240","240","164","232.8713","160.6713","spektor","0.05","w","240","164","164","240","232.8713","160.6713","39360","39360","37415.7294","td","null","null","null","null","null","null","[2,3]","467.26153861288657","216.67733132713096","500.24798260243637"
"","canvas-keyboard-response","112","365167","0.0-6.0-1.15","521","","","","","clear_screen","null","null","","","critical","c","t","d","164","240","240","164","232.8713","160.6713","spektor","0.05","w","240","164","164","240","232.8713","160.6713","39360","39360","37415.7294","td","null","null","null","null","null","null","[2,3]","467.26153861288657","216.67733132713096","500.24798260243637"
"","canvas-keyboard-response","113","365674","0.0-6.0-2.15","521","","","","","rectangles no change","null","null","","","critical","c","t","d","164","240","240","164","232.8713","160.6713","spektor","0.05","w","240","164","164","240","232.8713","160.6713","39360","39360","37415.7294","td","null","null","null","null","null","null","[2,3]","467.26153861288657","216.67733132713096","500.24798260243637"
"","canvas-keyboard-response","114","367010","0.0-6.0-3.15","521","","","","","rectangles with change","null","null","","","critical","c","t","d","164","240","240","164","232.8713","160.6713","spektor","0.05","w","240","164","164","240","232.8713","160.6713","39360","39360","37415.7294","td","null","null","null","null","null","null","[2,3]","467.26153861288657","216.67733132713096","500.24798260243637"
"","canvas-keyboard-response","115","367030","0.0-6.0-4.15","521","","","","","clear_screen","null","null","","","critical","c","t","d","164","240","240","164","232.8713","160.6713","spektor","0.05","w","240","164","164","240","232.8713","160.6713","39360","39360","37415.7294","td","null","null","null","null","null","null","[2,3]","467.26153861288657","216.67733132713096","500.24798260243637"
"","canvas-keyboard-response","116","367595","0.0-6.0-5.15","521","","","","","make choice","556","3","","","critical","c","t","d","164","240","240","164","232.8713","160.6713","spektor","0.05","w","240","164","164","240","232.8713","160.6713","39360","39360","37415.7294","td","null","null","null","null","null","null","[2,3]","","",""
"","canvas-keyboard-response","117","367615","0.0-6.0-6.15","521","","","","","clear_screen","null","null","","","critical","c","t","d","164","240","240","164","232.8713","160.6713","spektor","0.05","w","240","164","164","240","232.8713","160.6713","39360","39360","37415.7294","td","null","null","null","null","null","null","[2,3]","","",""
"","canvas-keyboard-response","118","367817","0.0-6.0-0.16","521","","","","","pre trial waiting period","null","null","","","critical","d","t","c","154.6796","220.0396","164","240","240","164","spektor","0.14","h","164","240","240","164","154.6796","220.0396","39360","39360","34035.6388","dc","null","null","null","null","null","null","[1,3]","498.9329690695743","104.97156438851789","542.0367857929004"
"","canvas-keyboard-response","119","367839","0.0-6.0-1.16","521","","","","","clear_screen","null","null","","","critical","d","t","c","154.6796","220.0396","164","240","240","164","spektor","0.14","h","164","240","240","164","154.6796","220.0396","39360","39360","34035.6388","dc","null","null","null","null","null","null","[1,3]","498.9329690695743","104.97156438851789","542.0367857929004"
"","canvas-keyboard-response","120","368345","0.0-6.0-2.16","521","","","","","rectangles no change","null","null","","","critical","d","t","c","154.6796","220.0396","164","240","240","164","spektor","0.14","h","164","240","240","164","154.6796","220.0396","39360","39360","34035.6388","dc","null","null","null","null","null","null","[1,3]","498.9329690695743","104.97156438851789","542.0367857929004"
"","canvas-keyboard-response","121","369683","0.0-6.0-3.16","521","","","","","rectangles with change","null","null","","","critical","d","t","c","154.6796","220.0396","164","240","240","164","spektor","0.14","h","164","240","240","164","154.6796","220.0396","39360","39360","34035.6388","dc","null","null","null","null","null","null","[1,3]","498.9329690695743","104.97156438851789","542.0367857929004"
"","canvas-keyboard-response","122","369705","0.0-6.0-4.16","521","","","","","clear_screen","null","null","","","critical","d","t","c","154.6796","220.0396","164","240","240","164","spektor","0.14","h","164","240","240","164","154.6796","220.0396","39360","39360","34035.6388","dc","null","null","null","null","null","null","[1,3]","498.9329690695743","104.97156438851789","542.0367857929004"
"","canvas-keyboard-response","123","370284","0.0-6.0-5.16","521","","","","","make choice","574","3","","","critical","d","t","c","154.6796","220.0396","164","240","240","164","spektor","0.14","h","164","240","240","164","154.6796","220.0396","39360","39360","34035.6388","dc","null","null","null","null","null","null","[1,3]","","",""
"","canvas-keyboard-response","124","370301","0.0-6.0-6.16","521","","","","","clear_screen","null","null","","","critical","d","t","c","154.6796","220.0396","164","240","240","164","spektor","0.14","h","164","240","240","164","154.6796","220.0396","39360","39360","34035.6388","dc","null","null","null","null","null","null","[1,3]","","",""
"","canvas-keyboard-response","125","370504","0.0-6.0-0.17","521","","","","","pre trial waiting period","null","null","","","catch","sw","l","sh","180","200","165","261","235","147","spektor","null","null","null","null","null","null","null","null","null","null","null","","180","200","260","200","36000","52000","[2,3]","520.4974848623527","107.35876245679349","544.635877708444"
"","canvas-keyboard-response","126","370523","0.0-6.0-1.17","521","","","","","clear_screen","null","null","","","catch","sw","l","sh","180","200","165","261","235","147","spektor","null","null","null","null","null","null","null","null","null","null","null","","180","200","260","200","36000","52000","[2,3]","520.4974848623527","107.35876245679349","544.635877708444"
"","canvas-keyboard-response","127","371028","0.0-6.0-2.17","521","","","","","rectangles no change","null","null","","","catch","sw","l","sh","180","200","165","261","235","147","spektor","null","null","null","null","null","null","null","null","null","null","null","","180","200","260","200","36000","52000","[2,3]","520.4974848623527","107.35876245679349","544.635877708444"
"","canvas-keyboard-response","128","372364","0.0-6.0-3.17","521","","","","","rectangles with change","null","null","","","catch","sw","l","sh","180","200","165","261","235","147","spektor","null","null","null","null","null","null","null","null","null","null","null","","180","200","260","200","36000","52000","[2,3]","520.4974848623527","107.35876245679349","544.635877708444"
"","canvas-keyboard-response","129","372381","0.0-6.0-4.17","521","","","","","clear_screen","null","null","","","catch","sw","l","sh","180","200","165","261","235","147","spektor","null","null","null","null","null","null","null","null","null","null","null","","180","200","260","200","36000","52000","[2,3]","520.4974848623527","107.35876245679349","544.635877708444"
"","canvas-keyboard-response","130","372851","0.0-6.0-5.17","521","","","","","make choice","465","3","","","catch","sw","l","sh","180","200","165","261","235","147","spektor","null","null","null","null","null","null","null","null","null","null","null","","180","200","260","200","36000","52000","[2,3]","","",""
"","canvas-keyboard-response","131","372871","0.0-6.0-6.17","521","","","","","clear_screen","null","null","","","catch","sw","l","sh","180","200","165","261","235","147","spektor","null","null","null","null","null","null","null","null","null","null","null","","180","200","260","200","36000","52000","[2,3]","","",""
"","canvas-keyboard-response","132","373071","0.0-6.0-0.18","521","","","","","pre trial waiting period","null","null","","","catch","sh","l","sw","218","166","195","233","188","216","trueblood","null","null","null","null","null","null","null","null","null","null","null","","180","200","260","200","36000","52000","[2,3]","503.5190849972107","459.1793409621963","438.7568725728013"
"","canvas-keyboard-response","133","373094","0.0-6.0-1.18","521","","","","","clear_screen","null","null","","","catch","sh","l","sw","218","166","195","233","188","216","trueblood","null","null","null","null","null","null","null","null","null","null","null","","180","200","260","200","36000","52000","[2,3]","503.5190849972107","459.1793409621963","438.7568725728013"
"","canvas-keyboard-response","134","373599","0.0-6.0-2.18","521","","","","","rectangles no change","null","null","","","catch","sh","l","sw","218","166","195","233","188","216","trueblood","null","null","null","null","null","null","null","null","null","null","null","","180","200","260","200","36000","52000","[2,3]","503.5190849972107","459.1793409621963","438.7568725728013"
"","canvas-keyboard-response","135","374939","0.0-6.0-3.18","521","","","","","rectangles with change","null","null","","","catch","sh","l","sw","218","166","195","233","188","216","trueblood","null","null","null","null","null","null","null","null","null","null","null","","180","200","260","200","36000","52000","[2,3]","503.5190849972107","459.1793409621963","438.7568725728013"
"","canvas-keyboard-response","136","374957","0.0-6.0-4.18","521","","","","","clear_screen","null","null","","","catch","sh","l","sw","218","166","195","233","188","216","trueblood","null","null","null","null","null","null","null","null","null","null","null","","180","200","260","200","36000","52000","[2,3]","503.5190849972107","459.1793409621963","438.7568725728013"
"","canvas-keyboard-response","137","375507","0.0-6.0-5.18","521","","","","","make choice","545","2","","","catch","sh","l","sw","218","166","195","233","188","216","trueblood","null","null","null","null","null","null","null","null","null","null","null","","180","200","260","200","36000","52000","[2,3]","","",""
"","canvas-keyboard-response","138","375524","0.0-6.0-6.18","521","","","","","clear_screen","null","null","","","catch","sh","l","sw","218","166","195","233","188","216","trueblood","null","null","null","null","null","null","null","null","null","null","null","","180","200","260","200","36000","52000","[2,3]","","",""
"","canvas-keyboard-response","139","375726","0.0-6.0-0.19","521","","","","","pre trial waiting period","null","null","","","catch","l","sw","sh","294","196","156","200","208","143","trueblood","null","null","null","null","null","null","null","null","null","null","null","","180","200","260","200","36000","52000","[1,3]","481.76636573582937","478.70827704074804","518.3666479859905"
"","canvas-keyboard-response","140","375746","0.0-6.0-1.19","521","","","","","clear_screen","null","null","","","catch","l","sw","sh","294","196","156","200","208","143","trueblood","null","null","null","null","null","null","null","null","null","null","null","","180","200","260","200","36000","52000","[1,3]","481.76636573582937","478.70827704074804","518.3666479859905"
"","canvas-keyboard-response","141","376256","0.0-6.0-2.19","521","","","","","rectangles no change","null","null","","","catch","l","sw","sh","294","196","156","200","208","143","trueblood","null","null","null","null","null","null","null","null","null","null","null","","180","200","260","200","36000","52000","[1,3]","481.76636573582937","478.70827704074804","518.3666479859905"
"","canvas-keyboard-response","142","377596","0.0-6.0-3.19","521","","","","","rectangles with change","null","null","","","catch","l","sw","sh","294","196","156","200","208","143","trueblood","null","null","null","null","null","null","null","null","null","null","null","","180","200","260","200","36000","52000","[1,3]","481.76636573582937","478.70827704074804","518.3666479859905"
"","canvas-keyboard-response","143","377617","0.0-6.0-4.19","521","","","","","clear_screen","null","null","","","catch","l","sw","sh","294","196","156","200","208","143","trueblood","null","null","null","null","null","null","null","null","null","null","null","","180","200","260","200","36000","52000","[1,3]","481.76636573582937","478.70827704074804","518.3666479859905"
"","canvas-keyboard-response","144","381195","0.0-6.0-5.19","521","","","","","make choice","3572","1","","","catch","l","sw","sh","294","196","156","200","208","143","trueblood","null","null","null","null","null","null","null","null","null","null","null","","180","200","260","200","36000","52000","[1,3]","","",""
"","canvas-keyboard-response","145","381215","0.0-6.0-6.19","521","","","","","clear_screen","null","null","","","catch","l","sw","sh","294","196","156","200","208","143","trueblood","null","null","null","null","null","null","null","null","null","null","null","","180","200","260","200","36000","52000","[1,3]","","",""
"","canvas-keyboard-response","146","381416","0.0-6.0-0.20","521","","","","","pre trial waiting period","null","null","","","critical","d","t","c","158.0083","227.1683","164","240","240","164","trueblood","0.09","h","164","240","240","164","158.0083","227.1683","39360","39360","35894.4834","tc","null","null","null","null","null","null","[2,3]","448.695726177719","453.4855116802347","484.303427936357"
"","canvas-keyboard-response","147","381436","0.0-6.0-1.20","521","","","","","clear_screen","null","null","","","critical","d","t","c","158.0083","227.1683","164","240","240","164","trueblood","0.09","h","164","240","240","164","158.0083","227.1683","39360","39360","35894.4834","tc","null","null","null","null","null","null","[2,3]","448.695726177719","453.4855116802347","484.303427936357"
"","canvas-keyboard-response","148","381944","0.0-6.0-2.20","521","","","","","rectangles no change","null","null","","","critical","d","t","c","158.0083","227.1683","164","240","240","164","trueblood","0.09","h","164","240","240","164","158.0083","227.1683","39360","39360","35894.4834","tc","null","null","null","null","null","null","[2,3]","448.695726177719","453.4855116802347","484.303427936357"
"","canvas-keyboard-response","149","383282","0.0-6.0-3.20","521","","","","","rectangles with change","null","null","","","critical","d","t","c","158.0083","227.1683","164","240","240","164","trueblood","0.09","h","164","240","240","164","158.0083","227.1683","39360","39360","35894.4834","tc","null","null","null","null","null","null","[2,3]","448.695726177719","453.4855116802347","484.303427936357"
"","canvas-keyboard-response","150","383305","0.0-6.0-4.20","521","","","","","clear_screen","null","null","","","critical","d","t","c","158.0083","227.1683","164","240","240","164","trueblood","0.09","h","164","240","240","164","158.0083","227.1683","39360","39360","35894.4834","tc","null","null","null","null","null","null","[2,3]","448.695726177719","453.4855116802347","484.303427936357"
"","canvas-keyboard-response","151","384586","0.0-6.0-5.20","521","","","","","make choice","1275","3","","","critical","d","t","c","158.0083","227.1683","164","240","240","164","trueblood","0.09","h","164","240","240","164","158.0083","227.1683","39360","39360","35894.4834","tc","null","null","null","null","null","null","[2,3]","","",""
"","canvas-keyboard-response","152","384603","0.0-6.0-6.20","521","","","","","clear_screen","null","null","","","critical","d","t","c","158.0083","227.1683","164","240","240","164","trueblood","0.09","h","164","240","240","164","158.0083","227.1683","39360","39360","35894.4834","tc","null","null","null","null","null","null","[2,3]","","",""
"","canvas-keyboard-response","153","384805","0.0-6.0-0.21","521","","","","","pre trial waiting period","null","null","","","critical","c","t","d","240","164","164","240","160.6713","232.8713","spektor","0.05","h","164","240","240","164","160.6713","232.8713","39360","39360","37415.7294","dc","null","null","null","null","null","null","[3,1]","518.3602035160034","93.84010204728082","460.14216054171214"
"","canvas-keyboard-response","154","384828","0.0-6.0-1.21","521","","","","","clear_screen","null","null","","","critical","c","t","d","240","164","164","240","160.6713","232.8713","spektor","0.05","h","164","240","240","164","160.6713","232.8713","39360","39360","37415.7294","dc","null","null","null","null","null","null","[3,1]","518.3602035160034","93.84010204728082","460.14216054171214"
"","canvas-keyboard-response","155","385334","0.0-6.0-2.21","521","","","","","rectangles no change","null","null","","","critical","c","t","d","240","164","164","240","160.6713","232.8713","spektor","0.05","h","164","240","240","164","160.6713","232.8713","39360","39360","37415.7294","dc","null","null","null","null","null","null","[3,1]","518.3602035160034","93.84010204728082","460.14216054171214"
"","canvas-keyboard-response","156","386672","0.0-6.0-3.21","521","","","","","rectangles with change","null","null","","","critical","c","t","d","240","164","164","240","160.6713","232.8713","spektor","0.05","h","164","240","240","164","160.6713","232.8713","39360","39360","37415.7294","dc","null","null","null","null","null","null","[3,1]","518.3602035160034","93.84010204728082","460.14216054171214"
"","canvas-keyboard-response","157","386690","0.0-6.0-4.21","521","","","","","clear_screen","null","null","","","critical","c","t","d","240","164","164","240","160.6713","232.8713","spektor","0.05","h","164","240","240","164","160.6713","232.8713","39360","39360","37415.7294","dc","null","null","null","null","null","null","[3,1]","518.3602035160034","93.84010204728082","460.14216054171214"
"","canvas-keyboard-response","158","387219","0.0-6.0-5.21","521","","","","","make choice","523","1","","","critical","c","t","d","240","164","164","240","160.6713","232.8713","spektor","0.05","h","164","240","240","164","160.6713","232.8713","39360","39360","37415.7294","dc","null","null","null","null","null","null","[3,1]","","",""
"","canvas-keyboard-response","159","387237","0.0-6.0-6.21","521","","","","","clear_screen","null","null","","","critical","c","t","d","240","164","164","240","160.6713","232.8713","spektor","0.05","h","164","240","240","164","160.6713","232.8713","39360","39360","37415.7294","dc","null","null","null","null","null","null","[3,1]","","",""
"","canvas-keyboard-response","160","387440","0.0-6.0-0.22","521","","","","","pre trial waiting period","null","null","","","critical","d","t","c","164","240","164","240","240","164","spektor","0","h","164","240","240","164","164","240","39360","39360","39360","dc","null","null","null","null","null","null","[1,3]","491.46070881355035","127.84993430789412","539.9974737289583"
"","canvas-keyboard-response","161","387459","0.0-6.0-1.22","521","","","","","clear_screen","null","null","","","critical","d","t","c","164","240","164","240","240","164","spektor","0","h","164","240","240","164","164","240","39360","39360","39360","dc","null","null","null","null","null","null","[1,3]","491.46070881355035","127.84993430789412","539.9974737289583"
"","canvas-keyboard-response","162","387965","0.0-6.0-2.22","521","","","","","rectangles no change","null","null","","","critical","d","t","c","164","240","164","240","240","164","spektor","0","h","164","240","240","164","164","240","39360","39360","39360","dc","null","null","null","null","null","null","[1,3]","491.46070881355035","127.84993430789412","539.9974737289583"
"","canvas-keyboard-response","163","389302","0.0-6.0-3.22","521","","","","","rectangles with change","null","null","","","critical","d","t","c","164","240","164","240","240","164","spektor","0","h","164","240","240","164","164","240","39360","39360","39360","dc","null","null","null","null","null","null","[1,3]","491.46070881355035","127.84993430789412","539.9974737289583"
"","canvas-keyboard-response","164","389323","0.0-6.0-4.22","521","","","","","clear_screen","null","null","","","critical","d","t","c","164","240","164","240","240","164","spektor","0","h","164","240","240","164","164","240","39360","39360","39360","dc","null","null","null","null","null","null","[1,3]","491.46070881355035","127.84993430789412","539.9974737289583"
"","canvas-keyboard-response","165","389426","0.0-6.0-5.22","521","","","","","make choice","98","3","","","critical","d","t","c","164","240","164","240","240","164","spektor","0","h","164","240","240","164","164","240","39360","39360","39360","dc","null","null","null","null","null","null","[1,3]","","",""
"","canvas-keyboard-response","166","389445","0.0-6.0-6.22","521","","","","","clear_screen","null","null","","","critical","d","t","c","164","240","164","240","240","164","spektor","0","h","164","240","240","164","164","240","39360","39360","39360","dc","null","null","null","null","null","null","[1,3]","","",""
"","canvas-keyboard-response","167","389646","0.0-6.0-0.23","521","","","","","pre trial waiting period","null","null","","","catch","sh","sw","l","165","202","195","170","289","160","spektor","null","null","null","null","null","null","null","null","null","null","null","","180","200","260","200","36000","52000","[2,3]","477.30835282792344","200.67885557126982","532.7463246058105"
"","canvas-keyboard-response","168","389667","0.0-6.0-1.23","521","","","","","clear_screen","null","null","","","catch","sh","sw","l","165","202","195","170","289","160","spektor","null","null","null","null","null","null","null","null","null","null","null","","180","200","260","200","36000","52000","[2,3]","477.30835282792344","200.67885557126982","532.7463246058105"
"","canvas-keyboard-response","169","390174","0.0-6.0-2.23","521","","","","","rectangles no change","null","null","","","catch","sh","sw","l","165","202","195","170","289","160","spektor","null","null","null","null","null","null","null","null","null","null","null","","180","200","260","200","36000","52000","[2,3]","477.30835282792344","200.67885557126982","532.7463246058105"
"","canvas-keyboard-response","170","391513","0.0-6.0-3.23","521","","","","","rectangles with change","null","null","","","catch","sh","sw","l","165","202","195","170","289","160","spektor","null","null","null","null","null","null","null","null","null","null","null","","180","200","260","200","36000","52000","[2,3]","477.30835282792344","200.67885557126982","532.7463246058105"
"","canvas-keyboard-response","171","391535","0.0-6.0-4.23","521","","","","","clear_screen","null","null","","","catch","sh","sw","l","165","202","195","170","289","160","spektor","null","null","null","null","null","null","null","null","null","null","null","","180","200","260","200","36000","52000","[2,3]","477.30835282792344","200.67885557126982","532.7463246058105"
"","canvas-keyboard-response","172","391868","0.0-6.0-5.23","521","","","","","make choice","324","3","","","catch","sh","sw","l","165","202","195","170","289","160","spektor","null","null","null","null","null","null","null","null","null","null","null","","180","200","260","200","36000","52000","[2,3]","","",""
"","canvas-keyboard-response","173","391888","0.0-6.0-6.23","521","","","","","clear_screen","null","null","","","catch","sh","sw","l","165","202","195","170","289","160","spektor","null","null","null","null","null","null","null","null","null","null","null","","180","200","260","200","36000","52000","[2,3]","","",""
"","canvas-keyboard-response","174","392089","0.0-6.0-0.24","521","","","","","pre trial waiting period","null","null","","","catch","sh","l","sw","160","182","178","264","181","191","spektor","null","null","null","null","null","null","null","null","null","null","null","","180","200","260","200","36000","52000","[2,3]","486.0859748829183","100.9598805288929","515.976142282188"
"","canvas-keyboard-response","175","392109","0.0-6.0-1.24","521","","","","","clear_screen","null","null","","","catch","sh","l","sw","160","182","178","264","181","191","spektor","null","null","null","null","null","null","null","null","null","null","null","","180","200","260","200","36000","52000","[2,3]","486.0859748829183","100.9598805288929","515.976142282188"
"","canvas-keyboard-response","176","392617","0.0-6.0-2.24","521","","","","","rectangles no change","null","null","","","catch","sh","l","sw","160","182","178","264","181","191","spektor","null","null","null","null","null","null","null","null","null","null","null","","180","200","260","200","36000","52000","[2,3]","486.0859748829183","100.9598805288929","515.976142282188"
"","canvas-keyboard-response","177","393954","0.0-6.0-3.24","521","","","","","rectangles with change","null","null","","","catch","sh","l","sw","160","182","178","264","181","191","spektor","null","null","null","null","null","null","null","null","null","null","null","","180","200","260","200","36000","52000","[2,3]","486.0859748829183","100.9598805288929","515.976142282188"
"","canvas-keyboard-response","178","393976","0.0-6.0-4.24","521","","","","","clear_screen","null","null","","","catch","sh","l","sw","160","182","178","264","181","191","spektor","null","null","null","null","null","null","null","null","null","null","null","","180","200","260","200","36000","52000","[2,3]","486.0859748829183","100.9598805288929","515.976142282188"
"","canvas-keyboard-response","179","394460","0.0-6.0-5.24","521","","","","","make choice","473","2","","","catch","sh","l","sw","160","182","178","264","181","191","spektor","null","null","null","null","null","null","null","null","null","null","null","","180","200","260","200","36000","52000","[2,3]","","",""
"","canvas-keyboard-response","180","394480","0.0-6.0-6.24","521","","","","","clear_screen","null","null","","","catch","sh","l","sw","160","182","178","264","181","191","spektor","null","null","null","null","null","null","null","null","null","null","null","","180","200","260","200","36000","52000","[2,3]","","",""
"","canvas-keyboard-response","181","394681","0.0-6.0-0.25","521","","","","","pre trial waiting period","null","null","","","critical","d","c","t","164","240","240","164","164","240","trueblood","0","h","164","240","240","164","164","240","39360","39360","39360","td","null","null","null","null","null","null","[3,1]","426.3982720832856","470.290897062209","424.15686400814553"
"","canvas-keyboard-response","182","394701","0.0-6.0-1.25","521","","","","","clear_screen","null","null","","","critical","d","c","t","164","240","240","164","164","240","trueblood","0","h","164","240","240","164","164","240","39360","39360","39360","td","null","null","null","null","null","null","[3,1]","426.3982720832856","470.290897062209","424.15686400814553"
"","canvas-keyboard-response","183","395211","0.0-6.0-2.25","521","","","","","rectangles no change","null","null","","","critical","d","c","t","164","240","240","164","164","240","trueblood","0","h","164","240","240","164","164","240","39360","39360","39360","td","null","null","null","null","null","null","[3,1]","426.3982720832856","470.290897062209","424.15686400814553"
"","canvas-keyboard-response","184","396547","0.0-6.0-3.25","521","","","","","rectangles with change","null","null","","","critical","d","c","t","164","240","240","164","164","240","trueblood","0","h","164","240","240","164","164","240","39360","39360","39360","td","null","null","null","null","null","null","[3,1]","426.3982720832856","470.290897062209","424.15686400814553"
"","canvas-keyboard-response","185","396569","0.0-6.0-4.25","521","","","","","clear_screen","null","null","","","critical","d","c","t","164","240","240","164","164","240","trueblood","0","h","164","240","240","164","164","240","39360","39360","39360","td","null","null","null","null","null","null","[3,1]","426.3982720832856","470.290897062209","424.15686400814553"
"","canvas-keyboard-response","186","397547","0.0-6.0-5.25","521","","","","","make choice","970","1","","","critical","d","c","t","164","240","240","164","164","240","trueblood","0","h","164","240","240","164","164","240","39360","39360","39360","td","null","null","null","null","null","null","[3,1]","","",""
"","canvas-keyboard-response","187","397567","0.0-6.0-6.25","521","","","","","clear_screen","null","null","","","critical","d","c","t","164","240","240","164","164","240","trueblood","0","h","164","240","240","164","164","240","39360","39360","39360","td","null","null","null","null","null","null","[3,1]","","",""
"","canvas-keyboard-response","188","397768","0.0-6.0-0.26","521","","","","","pre trial waiting period","null","null","","","critical","c","d","t","240","164","162.6685","237.1485","164","240","trueblood","0.02","h","164","240","240","164","162.6685","237.1485","39360","39360","38576.5967","tc","null","null","null","null","null","null","[3,1]","473.0095189959004","423.8318944358494","437.1232898597903"
"","canvas-keyboard-response","189","397788","0.0-6.0-1.26","521","","","","","clear_screen","null","null","","","critical","c","d","t","240","164","162.6685","237.1485","164","240","trueblood","0.02","h","164","240","240","164","162.6685","237.1485","39360","39360","38576.5967","tc","null","null","null","null","null","null","[3,1]","473.0095189959004","423.8318944358494","437.1232898597903"
"","canvas-keyboard-response","190","398296","0.0-6.0-2.26","521","","","","","rectangles no change","null","null","","","critical","c","d","t","240","164","162.6685","237.1485","164","240","trueblood","0.02","h","164","240","240","164","162.6685","237.1485","39360","39360","38576.5967","tc","null","null","null","null","null","null","[3,1]","473.0095189959004","423.8318944358494","437.1232898597903"
"","canvas-keyboard-response","191","399634","0.0-6.0-3.26","521","","","","","rectangles with change","null","null","","","critical","c","d","t","240","164","162.6685","237.1485","164","240","trueblood","0.02","h","164","240","240","164","162.6685","237.1485","39360","39360","38576.5967","tc","null","null","null","null","null","null","[3,1]","473.0095189959004","423.8318944358494","437.1232898597903"
"","canvas-keyboard-response","192","399652","0.0-6.0-4.26","521","","","","","clear_screen","null","null","","","critical","c","d","t","240","164","162.6685","237.1485","164","240","trueblood","0.02","h","164","240","240","164","162.6685","237.1485","39360","39360","38576.5967","tc","null","null","null","null","null","null","[3,1]","473.0095189959004","423.8318944358494","437.1232898597903"
"","canvas-keyboard-response","193","400020","0.0-6.0-5.26","521","","","","","make choice","362","1","","","critical","c","d","t","240","164","162.6685","237.1485","164","240","trueblood","0.02","h","164","240","240","164","162.6685","237.1485","39360","39360","38576.5967","tc","null","null","null","null","null","null","[3,1]","","",""
"","canvas-keyboard-response","194","400037","0.0-6.0-6.26","521","","","","","clear_screen","null","null","","","critical","c","d","t","240","164","162.6685","237.1485","164","240","trueblood","0.02","h","164","240","240","164","162.6685","237.1485","39360","39360","38576.5967","tc","null","null","null","null","null","null","[3,1]","","",""
"","canvas-keyboard-response","195","400238","0.0-6.0-0.27","521","","","","","pre trial waiting period","null","null","","","critical","c","t","d","164","240","240","164","227.1683","158.0083","spektor","0.09","w","240","164","164","240","227.1683","158.0083","39360","39360","35894.4834","tc","null","null","null","null","null","null","[2,1]","473.44931944427395","188.8423538629723","497.2321172972728"
"","canvas-keyboard-response","196","400258","0.0-6.0-1.27","521","","","","","clear_screen","null","null","","","critical","c","t","d","164","240","240","164","227.1683","158.0083","spektor","0.09","w","240","164","164","240","227.1683","158.0083","39360","39360","35894.4834","tc","null","null","null","null","null","null","[2,1]","473.44931944427395","188.8423538629723","497.2321172972728"
"","canvas-keyboard-response","197","400768","0.0-6.0-2.27","521","","","","","rectangles no change","null","null","","","critical","c","t","d","164","240","240","164","227.1683","158.0083","spektor","0.09","w","240","164","164","240","227.1683","158.0083","39360","39360","35894.4834","tc","null","null","null","null","null","null","[2,1]","473.44931944427395","188.8423538629723","497.2321172972728"
"","canvas-keyboard-response","198","402107","0.0-6.0-3.27","521","","","","","rectangles with change","null","null","","","critical","c","t","d","164","240","240","164","227.1683","158.0083","spektor","0.09","w","240","164","164","240","227.1683","158.0083","39360","39360","35894.4834","tc","null","null","null","null","null","null","[2,1]","473.44931944427395","188.8423538629723","497.2321172972728"
"","canvas-keyboard-response","199","402125","0.0-6.0-4.27","521","","","","","clear_screen","null","null","","","critical","c","t","d","164","240","240","164","227.1683","158.0083","spektor","0.09","w","240","164","164","240","227.1683","158.0083","39360","39360","35894.4834","tc","null","null","null","null","null","null","[2,1]","473.44931944427395","188.8423538629723","497.2321172972728"
"","canvas-keyboard-response","200","402523","0.0-6.0-5.27","521","","","","","make choice","392","2","","","critical","c","t","d","164","240","240","164","227.1683","158.0083","spektor","0.09","w","240","164","164","240","227.1683","158.0083","39360","39360","35894.4834","tc","null","null","null","null","null","null","[2,1]","","",""
"","canvas-keyboard-response","201","402543","0.0-6.0-6.27","521","","","","","clear_screen","null","null","","","critical","c","t","d","164","240","240","164","227.1683","158.0083","spektor","0.09","w","240","164","164","240","227.1683","158.0083","39360","39360","35894.4834","tc","null","null","null","null","null","null","[2,1]","","",""
"","canvas-keyboard-response","202","402745","0.0-6.0-0.28","521","","","","","pre trial waiting period","null","null","","","critical","c","d","t","240","164","154.6796","220.0396","164","240","trueblood","0.14","h","164","240","240","164","154.6796","220.0396","39360","39360","34035.6388","td","null","null","null","null","null","null","[3,2]","470.0543775148131","465.1431653014475","467.3348611007845"
"","canvas-keyboard-response","203","402766","0.0-6.0-1.28","521","","","","","clear_screen","null","null","","","critical","c","d","t","240","164","154.6796","220.0396","164","240","trueblood","0.14","h","164","240","240","164","154.6796","220.0396","39360","39360","34035.6388","td","null","null","null","null","null","null","[3,2]","470.0543775148131","465.1431653014475","467.3348611007845"
"","canvas-keyboard-response","204","403277","0.0-6.0-2.28","521","","","","","rectangles no change","null","null","","","critical","c","d","t","240","164","154.6796","220.0396","164","240","trueblood","0.14","h","164","240","240","164","154.6796","220.0396","39360","39360","34035.6388","td","null","null","null","null","null","null","[3,2]","470.0543775148131","465.1431653014475","467.3348611007845"
"","canvas-keyboard-response","205","404615","0.0-6.0-3.28","521","","","","","rectangles with change","null","null","","","critical","c","d","t","240","164","154.6796","220.0396","164","240","trueblood","0.14","h","164","240","240","164","154.6796","220.0396","39360","39360","34035.6388","td","null","null","null","null","null","null","[3,2]","470.0543775148131","465.1431653014475","467.3348611007845"
"","canvas-keyboard-response","206","404634","0.0-6.0-4.28","521","","","","","clear_screen","null","null","","","critical","c","d","t","240","164","154.6796","220.0396","164","240","trueblood","0.14","h","164","240","240","164","154.6796","220.0396","39360","39360","34035.6388","td","null","null","null","null","null","null","[3,2]","470.0543775148131","465.1431653014475","467.3348611007845"
"","canvas-keyboard-response","207","405107","0.0-6.0-5.28","521","","","","","make choice","468","3","","","critical","c","d","t","240","164","154.6796","220.0396","164","240","trueblood","0.14","h","164","240","240","164","154.6796","220.0396","39360","39360","34035.6388","td","null","null","null","null","null","null","[3,2]","","",""
"","canvas-keyboard-response","208","405125","0.0-6.0-6.28","521","","","","","clear_screen","null","null","","","critical","c","d","t","240","164","154.6796","220.0396","164","240","trueblood","0.14","h","164","240","240","164","154.6796","220.0396","39360","39360","34035.6388","td","null","null","null","null","null","null","[3,2]","","",""
"","canvas-keyboard-response","209","405327","0.0-6.0-0.29","521","","","","","pre trial waiting period","null","null","","","critical","t","d","c","240","164","220.0396","154.6796","164","240","spektor","0.14","w","240","164","164","240","220.0396","154.6796","39360","39360","34035.6388","tc","null","null","null","null","null","null","[1,3]","538.1050116866934","210.1415963732902","486.04923103854725"
"","canvas-keyboard-response","210","405347","0.0-6.0-1.29","521","","","","","clear_screen","null","null","","","critical","t","d","c","240","164","220.0396","154.6796","164","240","spektor","0.14","w","240","164","164","240","220.0396","154.6796","39360","39360","34035.6388","tc","null","null","null","null","null","null","[1,3]","538.1050116866934","210.1415963732902","486.04923103854725"
"","canvas-keyboard-response","211","405855","0.0-6.0-2.29","521","","","","","rectangles no change","null","null","","","critical","t","d","c","240","164","220.0396","154.6796","164","240","spektor","0.14","w","240","164","164","240","220.0396","154.6796","39360","39360","34035.6388","tc","null","null","null","null","null","null","[1,3]","538.1050116866934","210.1415963732902","486.04923103854725"
"","canvas-keyboard-response","212","407191","0.0-6.0-3.29","521","","","","","rectangles with change","null","null","","","critical","t","d","c","240","164","220.0396","154.6796","164","240","spektor","0.14","w","240","164","164","240","220.0396","154.6796","39360","39360","34035.6388","tc","null","null","null","null","null","null","[1,3]","538.1050116866934","210.1415963732902","486.04923103854725"
"","canvas-keyboard-response","213","407211","0.0-6.0-4.29","521","","","","","clear_screen","null","null","","","critical","t","d","c","240","164","220.0396","154.6796","164","240","spektor","0.14","w","240","164","164","240","220.0396","154.6796","39360","39360","34035.6388","tc","null","null","null","null","null","null","[1,3]","538.1050116866934","210.1415963732902","486.04923103854725"
"","canvas-keyboard-response","214","407443","0.0-6.0-5.29","521","","","","","make choice","225","1","","","critical","t","d","c","240","164","220.0396","154.6796","164","240","spektor","0.14","w","240","164","164","240","220.0396","154.6796","39360","39360","34035.6388","tc","null","null","null","null","null","null","[1,3]","","",""
"","canvas-keyboard-response","215","407461","0.0-6.0-6.29","521","","","","","clear_screen","null","null","","","critical","t","d","c","240","164","220.0396","154.6796","164","240","spektor","0.14","w","240","164","164","240","220.0396","154.6796","39360","39360","34035.6388","tc","null","null","null","null","null","null","[1,3]","","",""
"","canvas-keyboard-response","216","407662","0.0-6.0-0.30","521","","","","","pre trial waiting period","null","null","","","critical","t","d","c","240","164","220.0396","154.6796","164","240","trueblood","0.14","w","240","164","164","240","220.0396","154.6796","39360","39360","34035.6388","dc","null","null","null","null","null","null","[2,3]","516.6021368415877","478.8631056281248","429.8077220268622"
"","canvas-keyboard-response","217","407676","0.0-6.0-1.30","521","","","","","clear_screen","null","null","","","critical","t","d","c","240","164","220.0396","154.6796","164","240","trueblood","0.14","w","240","164","164","240","220.0396","154.6796","39360","39360","34035.6388","dc","null","null","null","null","null","null","[2,3]","516.6021368415877","478.8631056281248","429.8077220268622"
"","canvas-keyboard-response","218","408185","0.0-6.0-2.30","521","","","","","rectangles no change","null","null","","","critical","t","d","c","240","164","220.0396","154.6796","164","240","trueblood","0.14","w","240","164","164","240","220.0396","154.6796","39360","39360","34035.6388","dc","null","null","null","null","null","null","[2,3]","516.6021368415877","478.8631056281248","429.8077220268622"
"","canvas-keyboard-response","219","409520","0.0-6.0-3.30","521","","","","","rectangles with change","null","null","","","critical","t","d","c","240","164","220.0396","154.6796","164","240","trueblood","0.14","w","240","164","164","240","220.0396","154.6796","39360","39360","34035.6388","dc","null","null","null","null","null","null","[2,3]","516.6021368415877","478.8631056281248","429.8077220268622"
"","canvas-keyboard-response","220","409539","0.0-6.0-4.30","521","","","","","clear_screen","null","null","","","critical","t","d","c","240","164","220.0396","154.6796","164","240","trueblood","0.14","w","240","164","164","240","220.0396","154.6796","39360","39360","34035.6388","dc","null","null","null","null","null","null","[2,3]","516.6021368415877","478.8631056281248","429.8077220268622"
"","canvas-keyboard-response","221","409963","0.0-6.0-5.30","521","","","","","make choice","419","3","","","critical","t","d","c","240","164","220.0396","154.6796","164","240","trueblood","0.14","w","240","164","164","240","220.0396","154.6796","39360","39360","34035.6388","dc","null","null","null","null","null","null","[2,3]","","",""
"","canvas-keyboard-response","222","409981","0.0-6.0-6.30","521","","","","","clear_screen","null","null","","","critical","t","d","c","240","164","220.0396","154.6796","164","240","trueblood","0.14","w","240","164","164","240","220.0396","154.6796","39360","39360","34035.6388","dc","null","null","null","null","null","null","[2,3]","","",""
"","canvas-keyboard-response","223","410182","0.0-6.0-0.31","521","","","","","pre trial waiting period","null","null","","","catch","sh","l","sw","234","160","218","228","168","171","trueblood","null","null","null","null","null","null","null","null","null","null","null","","180","200","260","200","36000","52000","[2,3]","517.0257290798324","445.73735201325394","512.2949376410338"
"","canvas-keyboard-response","224","410203","0.0-6.0-1.31","521","","","","","clear_screen","null","null","","","catch","sh","l","sw","234","160","218","228","168","171","trueblood","null","null","null","null","null","null","null","null","null","null","null","","180","200","260","200","36000","52000","[2,3]","517.0257290798324","445.73735201325394","512.2949376410338"
"","canvas-keyboard-response","225","410710","0.0-6.0-2.31","521","","","","","rectangles no change","null","null","","","catch","sh","l","sw","234","160","218","228","168","171","trueblood","null","null","null","null","null","null","null","null","null","null","null","","180","200","260","200","36000","52000","[2,3]","517.0257290798324","445.73735201325394","512.2949376410338"
"","canvas-keyboard-response","226","412045","0.0-6.0-3.31","521","","","","","rectangles with change","null","null","","","catch","sh","l","sw","234","160","218","228","168","171","trueblood","null","null","null","null","null","null","null","null","null","null","null","","180","200","260","200","36000","52000","[2,3]","517.0257290798324","445.73735201325394","512.2949376410338"
"","canvas-keyboard-response","227","412067","0.0-6.0-4.31","521","","","","","clear_screen","null","null","","","catch","sh","l","sw","234","160","218","228","168","171","trueblood","null","null","null","null","null","null","null","null","null","null","null","","180","200","260","200","36000","52000","[2,3]","517.0257290798324","445.73735201325394","512.2949376410338"
"","canvas-keyboard-response","228","412412","0.0-6.0-5.31","521","","","","","make choice","337","2","","","catch","sh","l","sw","234","160","218","228","168","171","trueblood","null","null","null","null","null","null","null","null","null","null","null","","180","200","260","200","36000","52000","[2,3]","","",""
"","canvas-keyboard-response","229","412432","0.0-6.0-6.31","521","","","","","clear_screen","null","null","","","catch","sh","l","sw","234","160","218","228","168","171","trueblood","null","null","null","null","null","null","null","null","null","null","null","","180","200","260","200","36000","52000","[2,3]","","",""
"","canvas-keyboard-response","230","412633","0.0-6.0-0.32","521","","","","","pre trial waiting period","null","null","","","catch","sw","sh","l","180","200","238","140","228","261","spektor","null","null","null","null","null","null","null","null","null","null","null","","180","200","260","200","36000","52000","[1,3]","512.4417644140902","198.45640823445038","481.36615110474617"
"","canvas-keyboard-response","231","412652","0.0-6.0-1.32","521","","","","","clear_screen","null","null","","","catch","sw","sh","l","180","200","238","140","228","261","spektor","null","null","null","null","null","null","null","null","null","null","null","","180","200","260","200","36000","52000","[1,3]","512.4417644140902","198.45640823445038","481.36615110474617"
"","canvas-keyboard-response","232","413158","0.0-6.0-2.32","521","","","","","rectangles no change","null","null","","","catch","sw","sh","l","180","200","238","140","228","261","spektor","null","null","null","null","null","null","null","null","null","null","null","","180","200","260","200","36000","52000","[1,3]","512.4417644140902","198.45640823445038","481.36615110474617"
"","canvas-keyboard-response","233","414495","0.0-6.0-3.32","521","","","","","rectangles with change","null","null","","","catch","sw","sh","l","180","200","238","140","228","261","spektor","null","null","null","null","null","null","null","null","null","null","null","","180","200","260","200","36000","52000","[1,3]","512.4417644140902","198.45640823445038","481.36615110474617"
"","canvas-keyboard-response","234","414511","0.0-6.0-4.32","521","","","","","clear_screen","null","null","","","catch","sw","sh","l","180","200","238","140","228","261","spektor","null","null","null","null","null","null","null","null","null","null","null","","180","200","260","200","36000","52000","[1,3]","512.4417644140902","198.45640823445038","481.36615110474617"
"","canvas-keyboard-response","235","414827","0.0-6.0-5.32","521","","","","","make choice","309","3","","","catch","sw","sh","l","180","200","238","140","228","261","spektor","null","null","null","null","null","null","null","null","null","null","null","","180","200","260","200","36000","52000","[1,3]","","",""
"","canvas-keyboard-response","236","414847","0.0-6.0-6.32","521","","","","","clear_screen","null","null","","","catch","sw","sh","l","180","200","238","140","228","261","spektor","null","null","null","null","null","null","null","null","null","null","null","","180","200","260","200","36000","52000","[1,3]","","",""
"","canvas-keyboard-response","237","415048","0.0-6.0-0.33","521","","","","","pre trial waiting period","null","null","","","critical","t","c","d","164","240","240","164","162.6685","237.1485","trueblood","0.02","h","164","240","240","164","162.6685","237.1485","39360","39360","38576.5967","dc","null","null","null","null","null","null","[3,2]","464.0080529406933","512.4804238241974","425.23016463752026"
"","canvas-keyboard-response","238","415068","0.0-6.0-1.33","521","","","","","clear_screen","null","null","","","critical","t","c","d","164","240","240","164","162.6685","237.1485","trueblood","0.02","h","164","240","240","164","162.6685","237.1485","39360","39360","38576.5967","dc","null","null","null","null","null","null","[3,2]","464.0080529406933","512.4804238241974","425.23016463752026"
"","canvas-keyboard-response","239","415574","0.0-6.0-2.33","521","","","","","rectangles no change","null","null","","","critical","t","c","d","164","240","240","164","162.6685","237.1485","trueblood","0.02","h","164","240","240","164","162.6685","237.1485","39360","39360","38576.5967","dc","null","null","null","null","null","null","[3,2]","464.0080529406933","512.4804238241974","425.23016463752026"
"","canvas-keyboard-response","240","416909","0.0-6.0-3.33","521","","","","","rectangles with change","null","null","","","critical","t","c","d","164","240","240","164","162.6685","237.1485","trueblood","0.02","h","164","240","240","164","162.6685","237.1485","39360","39360","38576.5967","dc","null","null","null","null","null","null","[3,2]","464.0080529406933","512.4804238241974","425.23016463752026"
"","canvas-keyboard-response","241","416930","0.0-6.0-4.33","521","","","","","clear_screen","null","null","","","critical","t","c","d","164","240","240","164","162.6685","237.1485","trueblood","0.02","h","164","240","240","164","162.6685","237.1485","39360","39360","38576.5967","dc","null","null","null","null","null","null","[3,2]","464.0080529406933","512.4804238241974","425.23016463752026"
"","canvas-keyboard-response","242","417188","0.0-6.0-5.33","521","","","","","make choice","253","2","","","critical","t","c","d","164","240","240","164","162.6685","237.1485","trueblood","0.02","h","164","240","240","164","162.6685","237.1485","39360","39360","38576.5967","dc","null","null","null","null","null","null","[3,2]","","",""
"","canvas-keyboard-response","243","417207","0.0-6.0-6.33","521","","","","","clear_screen","null","null","","","critical","t","c","d","164","240","240","164","162.6685","237.1485","trueblood","0.02","h","164","240","240","164","162.6685","237.1485","39360","39360","38576.5967","dc","null","null","null","null","null","null","[3,2]","","",""
"","canvas-keyboard-response","244","417408","0.0-6.0-0.34","521","","","","","pre trial waiting period","null","null","","","catch","l","sw","sh","293","168","212","206","210","166","trueblood","null","null","null","null","null","null","null","null","null","null","null","","180","200","260","200","36000","52000","[1,2]","479.9244739628917","462.238275230419","494.62689878055767"
"","canvas-keyboard-response","245","417427","0.0-6.0-1.34","521","","","","","clear_screen","null","null","","","catch","l","sw","sh","293","168","212","206","210","166","trueblood","null","null","null","null","null","null","null","null","null","null","null","","180","200","260","200","36000","52000","[1,2]","479.9244739628917","462.238275230419","494.62689878055767"
"","canvas-keyboard-response","246","417934","0.0-6.0-2.34","521","","","","","rectangles no change","null","null","","","catch","l","sw","sh","293","168","212","206","210","166","trueblood","null","null","null","null","null","null","null","null","null","null","null","","180","200","260","200","36000","52000","[1,2]","479.9244739628917","462.238275230419","494.62689878055767"
"","canvas-keyboard-response","247","419273","0.0-6.0-3.34","521","","","","","rectangles with change","null","null","","","catch","l","sw","sh","293","168","212","206","210","166","trueblood","null","null","null","null","null","null","null","null","null","null","null","","180","200","260","200","36000","52000","[1,2]","479.9244739628917","462.238275230419","494.62689878055767"
"","canvas-keyboard-response","248","419292","0.0-6.0-4.34","521","","","","","clear_screen","null","null","","","catch","l","sw","sh","293","168","212","206","210","166","trueblood","null","null","null","null","null","null","null","null","null","null","null","","180","200","260","200","36000","52000","[1,2]","479.9244739628917","462.238275230419","494.62689878055767"
"","canvas-keyboard-response","249","419923","0.0-6.0-5.34","521","","","","","make choice","625","1","","","catch","l","sw","sh","293","168","212","206","210","166","trueblood","null","null","null","null","null","null","null","null","null","null","null","","180","200","260","200","36000","52000","[1,2]","","",""
"","canvas-keyboard-response","250","419943","0.0-6.0-6.34","521","","","","","clear_screen","null","null","","","catch","l","sw","sh","293","168","212","206","210","166","trueblood","null","null","null","null","null","null","null","null","null","null","null","","180","200","260","200","36000","52000","[1,2]","","",""
"","canvas-keyboard-response","251","420144","0.0-6.0-0.35","521","","","","","pre trial waiting period","null","null","","","critical","d","t","c","158.0083","227.1683","164","240","240","164","spektor","0.09","h","164","240","240","164","158.0083","227.1683","39360","39360","35894.4834","tc","null","null","null","null","null","null","[2,3]","463.7899205808943","126.58757899478667","507.2321617214297"
"","canvas-keyboard-response","252","420167","0.0-6.0-1.35","521","","","","","clear_screen","null","null","","","critical","d","t","c","158.0083","227.1683","164","240","240","164","spektor","0.09","h","164","240","240","164","158.0083","227.1683","39360","39360","35894.4834","tc","null","null","null","null","null","null","[2,3]","463.7899205808943","126.58757899478667","507.2321617214297"
"","canvas-keyboard-response","253","420678","0.0-6.0-2.35","521","","","","","rectangles no change","null","null","","","critical","d","t","c","158.0083","227.1683","164","240","240","164","spektor","0.09","h","164","240","240","164","158.0083","227.1683","39360","39360","35894.4834","tc","null","null","null","null","null","null","[2,3]","463.7899205808943","126.58757899478667","507.2321617214297"
"","canvas-keyboard-response","254","422013","0.0-6.0-3.35","521","","","","","rectangles with change","null","null","","","critical","d","t","c","158.0083","227.1683","164","240","240","164","spektor","0.09","h","164","240","240","164","158.0083","227.1683","39360","39360","35894.4834","tc","null","null","null","null","null","null","[2,3]","463.7899205808943","126.58757899478667","507.2321617214297"
"","canvas-keyboard-response","255","422032","0.0-6.0-4.35","521","","","","","clear_screen","null","null","","","critical","d","t","c","158.0083","227.1683","164","240","240","164","spektor","0.09","h","164","240","240","164","158.0083","227.1683","39360","39360","35894.4834","tc","null","null","null","null","null","null","[2,3]","463.7899205808943","126.58757899478667","507.2321617214297"
"","canvas-keyboard-response","256","422427","0.0-6.0-5.35","521","","","","","make choice","389","3","","","critical","d","t","c","158.0083","227.1683","164","240","240","164","spektor","0.09","h","164","240","240","164","158.0083","227.1683","39360","39360","35894.4834","tc","null","null","null","null","null","null","[2,3]","","",""
"","canvas-keyboard-response","257","422447","0.0-6.0-6.35","521","","","","","clear_screen","null","null","","","critical","d","t","c","158.0083","227.1683","164","240","240","164","spektor","0.09","h","164","240","240","164","158.0083","227.1683","39360","39360","35894.4834","tc","null","null","null","null","null","null","[2,3]","","",""
"","canvas-keyboard-response","258","422648","0.0-6.0-0.36","521","","","","","pre trial waiting period","null","null","","","critical","d","c","t","164","240","240","164","164","240","spektor","0","h","164","240","240","164","164","240","39360","39360","39360","tc","null","null","null","null","null","null","[3,2]","459.16637647054694","151.33700291667864","466.57398510666496"
"","canvas-keyboard-response","259","422668","0.0-6.0-1.36","521","","","","","clear_screen","null","null","","","critical","d","c","t","164","240","240","164","164","240","spektor","0","h","164","240","240","164","164","240","39360","39360","39360","tc","null","null","null","null","null","null","[3,2]","459.16637647054694","151.33700291667864","466.57398510666496"
"","canvas-keyboard-response","260","423176","0.0-6.0-2.36","521","","","","","rectangles no change","null","null","","","critical","d","c","t","164","240","240","164","164","240","spektor","0","h","164","240","240","164","164","240","39360","39360","39360","tc","null","null","null","null","null","null","[3,2]","459.16637647054694","151.33700291667864","466.57398510666496"
"","canvas-keyboard-response","261","424514","0.0-6.0-3.36","521","","","","","rectangles with change","null","null","","","critical","d","c","t","164","240","240","164","164","240","spektor","0","h","164","240","240","164","164","240","39360","39360","39360","tc","null","null","null","null","null","null","[3,2]","459.16637647054694","151.33700291667864","466.57398510666496"
"","canvas-keyboard-response","262","424533","0.0-6.0-4.36","521","","","","","clear_screen","null","null","","","critical","d","c","t","164","240","240","164","164","240","spektor","0","h","164","240","240","164","164","240","39360","39360","39360","tc","null","null","null","null","null","null","[3,2]","459.16637647054694","151.33700291667864","466.57398510666496"
"","canvas-keyboard-response","263","424818","0.0-6.0-5.36","521","","","","","make choice","279","2","","","critical","d","c","t","164","240","240","164","164","240","spektor","0","h","164","240","240","164","164","240","39360","39360","39360","tc","null","null","null","null","null","null","[3,2]","","",""
"","canvas-keyboard-response","264","424833","0.0-6.0-6.36","521","","","","","clear_screen","null","null","","","critical","d","c","t","164","240","240","164","164","240","spektor","0","h","164","240","240","164","164","240","39360","39360","39360","tc","null","null","null","null","null","null","[3,2]","","",""
"","canvas-keyboard-response","265","425034","0.0-6.0-0.37","521","","","","","pre trial waiting period","null","null","","","catch","l","sw","sh","272","173","173","220","235","155","trueblood","null","null","null","null","null","null","null","null","null","null","null","","180","200","260","200","36000","52000","[1,2]","493.2417626037528","433.3497863007966","480.74645995574673"
