"success","trial_type","trial_index","time_elapsed","internal_node_id","sub_n","timeout","failed_images","failed_audio","failed_video","screen_id","rt","response","stimulus","view_history","trial","r1","r2","r3","w1","h1","w2","h2","w3","h3","display","tdd","tdo","tw","th","cw","ch","dw","dh","ta","ca","da","probe","csls","csss","clls","clss","sa","la","probe_rects","r1yloc","r2yloc","r3yloc"
"true","fullscreen","0","2451","0.0-0.0","563","","","","","","","","","","","","","","","","","","","","","","","","","","","","","","","","","","","","","","","","","",""
"true","preload","1","2490","0.0-1.0","563","false","[]","[]","[]","img preload","","","","","","","","","","","","","","","","","","","","","","","","","","","","","","","","","","","","",""
"","survey-html-form","2","6776","0.0-2.0","563","","","","","enter-sub-number","4269","{""response"":""563""}","","","","","","","","","","","","","","","","","","","","","","","","","","","","","","","","","","",""
"","image-button-response","3","104004","0.0-3.0","563","","","","","","97125","0","consent.png","","","","","","","","","","","","","","","","","","","","","","","","","","","","","","","","","",""
"","html-button-response","4","114859","0.0-4.0","563","","","","","intro mssg","10852","0","<div style= ""font-size:25px;"" <p> <strong> Welcome! </strong><br> <p style=""color:#8B0000; font-size:25px;""><strong> Please do NOT exit full screen until you are done with the experiment. </strong> </p><p style=""font-size:25px;color:#8B0000;""> <strong> Your data will be lost <br> if you try to go back or refresh the page after the experiment starts. Feel free to click ""previous"" during the instructions, however.</strong> </p><br><p> <strong> Thanks in advance for your contribution to our research! </strong></p>","","","","","","","","","","","","","","","","","","","","","","","","","","","","","","","","","",""
"","instructions","5","168508","0.0-5.0","563","","","","","instructions","53643","","","[{""page_index"":0,""viewing_time"":8411},{""page_index"":1,""viewing_time"":10448},{""page_index"":2,""viewing_time"":3376},{""page_index"":3,""viewing_time"":15856},{""page_index"":4,""viewing_time"":9424},{""page_index"":5,""viewing_time"":2472},{""page_index"":6,""viewing_time"":2136},{""page_index"":7,""viewing_time"":1520}]","","","","","","","","","","","","","","","","","","","","","","","","","","","","","","","","",""
"","canvas-keyboard-response","6","168712","0.0-6.0-0.0","563","","","","","pre trial waiting period","null","null","","","critical","t","c","d","164","240","240","164","158.0083","227.1683","trueblood","0.09","h","164","240","240","164","158.0083","227.1683","39360","39360","35894.4834","dc","null","null","null","null","null","null","[3,2]","436.4126217980221","485.4548621678889","470.31207221842504"
"","canvas-keyboard-response","7","168735","0.0-6.0-1.0","563","","","","","clear_screen","null","null","","","critical","t","c","d","164","240","240","164","158.0083","227.1683","trueblood","0.09","h","164","240","240","164","158.0083","227.1683","39360","39360","35894.4834","dc","null","null","null","null","null","null","[3,2]","436.4126217980221","485.4548621678889","470.31207221842504"
"","canvas-keyboard-response","8","169253","0.0-6.0-2.0","563","","","","","rectangles no change","null","null","","","critical","t","c","d","164","240","240","164","158.0083","227.1683","trueblood","0.09","h","164","240","240","164","158.0083","227.1683","39360","39360","35894.4834","dc","null","null","null","null","null","null","[3,2]","436.4126217980221","485.4548621678889","470.31207221842504"
"","canvas-keyboard-response","9","170590","0.0-6.0-3.0","563","","","","","rectangles with change","null","null","","","critical","t","c","d","164","240","240","164","158.0083","227.1683","trueblood","0.09","h","164","240","240","164","158.0083","227.1683","39360","39360","35894.4834","dc","null","null","null","null","null","null","[3,2]","436.4126217980221","485.4548621678889","470.31207221842504"
"","canvas-keyboard-response","10","170610","0.0-6.0-4.0","563","","","","","clear_screen","null","null","","","critical","t","c","d","164","240","240","164","158.0083","227.1683","trueblood","0.09","h","164","240","240","164","158.0083","227.1683","39360","39360","35894.4834","dc","null","null","null","null","null","null","[3,2]","436.4126217980221","485.4548621678889","470.31207221842504"
"","canvas-keyboard-response","11","173145","0.0-6.0-5.0","563","","","","","make choice","2524","3","","","critical","t","c","d","164","240","240","164","158.0083","227.1683","trueblood","0.09","h","164","240","240","164","158.0083","227.1683","39360","39360","35894.4834","dc","null","null","null","null","null","null","[3,2]","","",""
"","canvas-keyboard-response","12","173164","0.0-6.0-6.0","563","","","","","clear_screen","null","null","","","critical","t","c","d","164","240","240","164","158.0083","227.1683","trueblood","0.09","h","164","240","240","164","158.0083","227.1683","39360","39360","35894.4834","dc","null","null","null","null","null","null","[3,2]","","",""
"","canvas-keyboard-response","13","173364","0.0-6.0-0.1","563","","","","","pre trial waiting period","null","null","","","critical","t","c","d","164","240","240","164","154.6796","220.0396","trueblood","0.14","h","164","240","240","164","154.6796","220.0396","39360","39360","34035.6388","td","null","null","null","null","null","null","[1,3]","426.9388038297503","478.7783587102199","461.11869135780637"
"","canvas-keyboard-response","14","173385","0.0-6.0-1.1","563","","","","","clear_screen","null","null","","","critical","t","c","d","164","240","240","164","154.6796","220.0396","trueblood","0.14","h","164","240","240","164","154.6796","220.0396","39360","39360","34035.6388","td","null","null","null","null","null","null","[1,3]","426.9388038297503","478.7783587102199","461.11869135780637"
"","canvas-keyboard-response","15","173895","0.0-6.0-2.1","563","","","","","rectangles no change","null","null","","","critical","t","c","d","164","240","240","164","154.6796","220.0396","trueblood","0.14","h","164","240","240","164","154.6796","220.0396","39360","39360","34035.6388","td","null","null","null","null","null","null","[1,3]","426.9388038297503","478.7783587102199","461.11869135780637"
"","canvas-keyboard-response","16","175232","0.0-6.0-3.1","563","","","","","rectangles with change","null","null","","","critical","t","c","d","164","240","240","164","154.6796","220.0396","trueblood","0.14","h","164","240","240","164","154.6796","220.0396","39360","39360","34035.6388","td","null","null","null","null","null","null","[1,3]","426.9388038297503","478.7783587102199","461.11869135780637"
"","canvas-keyboard-response","17","175250","0.0-6.0-4.1","563","","","","","clear_screen","null","null","","","critical","t","c","d","164","240","240","164","154.6796","220.0396","trueblood","0.14","h","164","240","240","164","154.6796","220.0396","39360","39360","34035.6388","td","null","null","null","null","null","null","[1,3]","426.9388038297503","478.7783587102199","461.11869135780637"
"","canvas-keyboard-response","18","177136","0.0-6.0-5.1","563","","","","","make choice","1876","1","","","critical","t","c","d","164","240","240","164","154.6796","220.0396","trueblood","0.14","h","164","240","240","164","154.6796","220.0396","39360","39360","34035.6388","td","null","null","null","null","null","null","[1,3]","","",""
"","canvas-keyboard-response","19","177155","0.0-6.0-6.1","563","","","","","clear_screen","null","null","","","critical","t","c","d","164","240","240","164","154.6796","220.0396","trueblood","0.14","h","164","240","240","164","154.6796","220.0396","39360","39360","34035.6388","td","null","null","null","null","null","null","[1,3]","","",""
"","canvas-keyboard-response","20","177357","0.0-6.0-0.2","563","","","","","pre trial waiting period","null","null","","","catch","sw","sh","l","180","200","218","213","246","191","trueblood","null","null","null","null","null","null","null","null","null","null","null","","180","200","260","200","36000","52000","[1,3]","469.89709576079395","482.1492777137111","483.24612019890606"
"","canvas-keyboard-response","21","177377","0.0-6.0-1.2","563","","","","","clear_screen","null","null","","","catch","sw","sh","l","180","200","218","213","246","191","trueblood","null","null","null","null","null","null","null","null","null","null","null","","180","200","260","200","36000","52000","[1,3]","469.89709576079395","482.1492777137111","483.24612019890606"
"","canvas-keyboard-response","22","177889","0.0-6.0-2.2","563","","","","","rectangles no change","null","null","","","catch","sw","sh","l","180","200","218","213","246","191","trueblood","null","null","null","null","null","null","null","null","null","null","null","","180","200","260","200","36000","52000","[1,3]","469.89709576079395","482.1492777137111","483.24612019890606"
"","canvas-keyboard-response","23","179224","0.0-6.0-3.2","563","","","","","rectangles with change","null","null","","","catch","sw","sh","l","180","200","218","213","246","191","trueblood","null","null","null","null","null","null","null","null","null","null","null","","180","200","260","200","36000","52000","[1,3]","469.89709576079395","482.1492777137111","483.24612019890606"
"","canvas-keyboard-response","24","179246","0.0-6.0-4.2","563","","","","","clear_screen","null","null","","","catch","sw","sh","l","180","200","218","213","246","191","trueblood","null","null","null","null","null","null","null","null","null","null","null","","180","200","260","200","36000","52000","[1,3]","469.89709576079395","482.1492777137111","483.24612019890606"
"","canvas-keyboard-response","25","180592","0.0-6.0-5.2","563","","","","","make choice","1339","3","","","catch","sw","sh","l","180","200","218","213","246","191","trueblood","null","null","null","null","null","null","null","null","null","null","null","","180","200","260","200","36000","52000","[1,3]","","",""
"","canvas-keyboard-response","26","180611","0.0-6.0-6.2","563","","","","","clear_screen","null","null","","","catch","sw","sh","l","180","200","218","213","246","191","trueblood","null","null","null","null","null","null","null","null","null","null","null","","180","200","260","200","36000","52000","[1,3]","","",""
"","canvas-keyboard-response","27","180813","0.0-6.0-0.3","563","","","","","pre trial waiting period","null","null","","","catch","sh","sw","l","216","187","189","212","286","168","spektor","null","null","null","null","null","null","null","null","null","null","null","","180","200","260","200","36000","52000","[1,3]","485.2191167070351","179.6989883105946","496.54405032617876"
"","canvas-keyboard-response","28","180833","0.0-6.0-1.3","563","","","","","clear_screen","null","null","","","catch","sh","sw","l","216","187","189","212","286","168","spektor","null","null","null","null","null","null","null","null","null","null","null","","180","200","260","200","36000","52000","[1,3]","485.2191167070351","179.6989883105946","496.54405032617876"
"","canvas-keyboard-response","29","181348","0.0-6.0-2.3","563","","","","","rectangles no change","null","null","","","catch","sh","sw","l","216","187","189","212","286","168","spektor","null","null","null","null","null","null","null","null","null","null","null","","180","200","260","200","36000","52000","[1,3]","485.2191167070351","179.6989883105946","496.54405032617876"
"","canvas-keyboard-response","30","182683","0.0-6.0-3.3","563","","","","","rectangles with change","null","null","","","catch","sh","sw","l","216","187","189","212","286","168","spektor","null","null","null","null","null","null","null","null","null","null","null","","180","200","260","200","36000","52000","[1,3]","485.2191167070351","179.6989883105946","496.54405032617876"
"","canvas-keyboard-response","31","182702","0.0-6.0-4.3","563","","","","","clear_screen","null","null","","","catch","sh","sw","l","216","187","189","212","286","168","spektor","null","null","null","null","null","null","null","null","null","null","null","","180","200","260","200","36000","52000","[1,3]","485.2191167070351","179.6989883105946","496.54405032617876"
"","canvas-keyboard-response","32","183945","0.0-6.0-5.3","563","","","","","make choice","1232","3","","","catch","sh","sw","l","216","187","189","212","286","168","spektor","null","null","null","null","null","null","null","null","null","null","null","","180","200","260","200","36000","52000","[1,3]","","",""
"","canvas-keyboard-response","33","183964","0.0-6.0-6.3","563","","","","","clear_screen","null","null","","","catch","sh","sw","l","216","187","189","212","286","168","spektor","null","null","null","null","null","null","null","null","null","null","null","","180","200","260","200","36000","52000","[1,3]","","",""
"","canvas-keyboard-response","34","184164","0.0-6.0-0.4","563","","","","","pre trial waiting period","null","null","","","critical","c","t","d","164","240","240","164","237.1485","162.6685","spektor","0.02","w","240","164","164","240","237.1485","162.6685","39360","39360","38576.5967","td","null","null","null","null","null","null","[2,3]","482.8898594884641","208.83240940581766","493.92904061257457"
"","canvas-keyboard-response","35","184184","0.0-6.0-1.4","563","","","","","clear_screen","null","null","","","critical","c","t","d","164","240","240","164","237.1485","162.6685","spektor","0.02","w","240","164","164","240","237.1485","162.6685","39360","39360","38576.5967","td","null","null","null","null","null","null","[2,3]","482.8898594884641","208.83240940581766","493.92904061257457"
"","canvas-keyboard-response","36","184696","0.0-6.0-2.4","563","","","","","rectangles no change","null","null","","","critical","c","t","d","164","240","240","164","237.1485","162.6685","spektor","0.02","w","240","164","164","240","237.1485","162.6685","39360","39360","38576.5967","td","null","null","null","null","null","null","[2,3]","482.8898594884641","208.83240940581766","493.92904061257457"
"","canvas-keyboard-response","37","186031","0.0-6.0-3.4","563","","","","","rectangles with change","null","null","","","critical","c","t","d","164","240","240","164","237.1485","162.6685","spektor","0.02","w","240","164","164","240","237.1485","162.6685","39360","39360","38576.5967","td","null","null","null","null","null","null","[2,3]","482.8898594884641","208.83240940581766","493.92904061257457"
"","canvas-keyboard-response","38","186050","0.0-6.0-4.4","563","","","","","clear_screen","null","null","","","critical","c","t","d","164","240","240","164","237.1485","162.6685","spektor","0.02","w","240","164","164","240","237.1485","162.6685","39360","39360","38576.5967","td","null","null","null","null","null","null","[2,3]","482.8898594884641","208.83240940581766","493.92904061257457"
"","canvas-keyboard-response","39","187441","0.0-6.0-5.4","563","","","","","make choice","1383","2","","","critical","c","t","d","164","240","240","164","237.1485","162.6685","spektor","0.02","w","240","164","164","240","237.1485","162.6685","39360","39360","38576.5967","td","null","null","null","null","null","null","[2,3]","","",""
"","canvas-keyboard-response","40","187463","0.0-6.0-6.4","563","","","","","clear_screen","null","null","","","critical","c","t","d","164","240","240","164","237.1485","162.6685","spektor","0.02","w","240","164","164","240","237.1485","162.6685","39360","39360","38576.5967","td","null","null","null","null","null","null","[2,3]","","",""
"","canvas-keyboard-response","41","187664","0.0-6.0-0.5","563","","","","","pre trial waiting period","null","null","","","catch","sw","sh","l","180","200","168","210","243","189","spektor","null","null","null","null","null","null","null","null","null","null","null","","180","200","260","200","36000","52000","[2,3]","496.7468947523868","165.53327773149587","512.7123519983459"
"","canvas-keyboard-response","42","187686","0.0-6.0-1.5","563","","","","","clear_screen","null","null","","","catch","sw","sh","l","180","200","168","210","243","189","spektor","null","null","null","null","null","null","null","null","null","null","null","","180","200","260","200","36000","52000","[2,3]","496.7468947523868","165.53327773149587","512.7123519983459"
"","canvas-keyboard-response","43","188200","0.0-6.0-2.5","563","","","","","rectangles no change","null","null","","","catch","sw","sh","l","180","200","168","210","243","189","spektor","null","null","null","null","null","null","null","null","null","null","null","","180","200","260","200","36000","52000","[2,3]","496.7468947523868","165.53327773149587","512.7123519983459"
"","canvas-keyboard-response","44","189536","0.0-6.0-3.5","563","","","","","rectangles with change","null","null","","","catch","sw","sh","l","180","200","168","210","243","189","spektor","null","null","null","null","null","null","null","null","null","null","null","","180","200","260","200","36000","52000","[2,3]","496.7468947523868","165.53327773149587","512.7123519983459"
"","canvas-keyboard-response","45","189555","0.0-6.0-4.5","563","","","","","clear_screen","null","null","","","catch","sw","sh","l","180","200","168","210","243","189","spektor","null","null","null","null","null","null","null","null","null","null","null","","180","200","260","200","36000","52000","[2,3]","496.7468947523868","165.53327773149587","512.7123519983459"
"","canvas-keyboard-response","46","190240","0.0-6.0-5.5","563","","","","","make choice","678","3","","","catch","sw","sh","l","180","200","168","210","243","189","spektor","null","null","null","null","null","null","null","null","null","null","null","","180","200","260","200","36000","52000","[2,3]","","",""
"","canvas-keyboard-response","47","190261","0.0-6.0-6.5","563","","","","","clear_screen","null","null","","","catch","sw","sh","l","180","200","168","210","243","189","spektor","null","null","null","null","null","null","null","null","null","null","null","","180","200","260","200","36000","52000","[2,3]","","",""
"","canvas-keyboard-response","48","190464","0.0-6.0-0.6","563","","","","","pre trial waiting period","null","null","","","catch","l","sh","sw","295","200","177","207","170","206","trueblood","null","null","null","null","null","null","null","null","null","null","null","","180","200","260","200","36000","52000","[1,2]","448.66194306590256","464.13581519060796","479.1482664807816"
"","canvas-keyboard-response","49","190483","0.0-6.0-1.6","563","","","","","clear_screen","null","null","","","catch","l","sh","sw","295","200","177","207","170","206","trueblood","null","null","null","null","null","null","null","null","null","null","null","","180","200","260","200","36000","52000","[1,2]","448.66194306590256","464.13581519060796","479.1482664807816"
"","canvas-keyboard-response","50","190995","0.0-6.0-2.6","563","","","","","rectangles no change","null","null","","","catch","l","sh","sw","295","200","177","207","170","206","trueblood","null","null","null","null","null","null","null","null","null","null","null","","180","200","260","200","36000","52000","[1,2]","448.66194306590256","464.13581519060796","479.1482664807816"
"","canvas-keyboard-response","51","192330","0.0-6.0-3.6","563","","","","","rectangles with change","null","null","","","catch","l","sh","sw","295","200","177","207","170","206","trueblood","null","null","null","null","null","null","null","null","null","null","null","","180","200","260","200","36000","52000","[1,2]","448.66194306590256","464.13581519060796","479.1482664807816"
"","canvas-keyboard-response","52","192350","0.0-6.0-4.6","563","","","","","clear_screen","null","null","","","catch","l","sh","sw","295","200","177","207","170","206","trueblood","null","null","null","null","null","null","null","null","null","null","null","","180","200","260","200","36000","52000","[1,2]","448.66194306590256","464.13581519060796","479.1482664807816"
"","canvas-keyboard-response","53","193177","0.0-6.0-5.6","563","","","","","make choice","814","1","","","catch","l","sh","sw","295","200","177","207","170","206","trueblood","null","null","null","null","null","null","null","null","null","null","null","","180","200","260","200","36000","52000","[1,2]","","",""
"","canvas-keyboard-response","54","193196","0.0-6.0-6.6","563","","","","","clear_screen","null","null","","","catch","l","sh","sw","295","200","177","207","170","206","trueblood","null","null","null","null","null","null","null","null","null","null","null","","180","200","260","200","36000","52000","[1,2]","","",""
"","canvas-keyboard-response","55","193398","0.0-6.0-0.7","563","","","","","pre trial waiting period","null","null","","","critical","t","c","d","164","240","240","164","160.6713","232.8713","spektor","0.05","h","164","240","240","164","160.6713","232.8713","39360","39360","37415.7294","dc","null","null","null","null","null","null","[3,2]","487.02869167944687","184.00428749187574","476.04141606109164"
"","canvas-keyboard-response","56","193418","0.0-6.0-1.7","563","","","","","clear_screen","null","null","","","critical","t","c","d","164","240","240","164","160.6713","232.8713","spektor","0.05","h","164","240","240","164","160.6713","232.8713","39360","39360","37415.7294","dc","null","null","null","null","null","null","[3,2]","487.02869167944687","184.00428749187574","476.04141606109164"
"","canvas-keyboard-response","57","193930","0.0-6.0-2.7","563","","","","","rectangles no change","null","null","","","critical","t","c","d","164","240","240","164","160.6713","232.8713","spektor","0.05","h","164","240","240","164","160.6713","232.8713","39360","39360","37415.7294","dc","null","null","null","null","null","null","[3,2]","487.02869167944687","184.00428749187574","476.04141606109164"
"","canvas-keyboard-response","58","195266","0.0-6.0-3.7","563","","","","","rectangles with change","null","null","","","critical","t","c","d","164","240","240","164","160.6713","232.8713","spektor","0.05","h","164","240","240","164","160.6713","232.8713","39360","39360","37415.7294","dc","null","null","null","null","null","null","[3,2]","487.02869167944687","184.00428749187574","476.04141606109164"
"","canvas-keyboard-response","59","195285","0.0-6.0-4.7","563","","","","","clear_screen","null","null","","","critical","t","c","d","164","240","240","164","160.6713","232.8713","spektor","0.05","h","164","240","240","164","160.6713","232.8713","39360","39360","37415.7294","dc","null","null","null","null","null","null","[3,2]","487.02869167944687","184.00428749187574","476.04141606109164"
"","canvas-keyboard-response","60","196160","0.0-6.0-5.7","563","","","","","make choice","866","2","","","critical","t","c","d","164","240","240","164","160.6713","232.8713","spektor","0.05","h","164","240","240","164","160.6713","232.8713","39360","39360","37415.7294","dc","null","null","null","null","null","null","[3,2]","","",""
"","canvas-keyboard-response","61","196179","0.0-6.0-6.7","563","","","","","clear_screen","null","null","","","critical","t","c","d","164","240","240","164","160.6713","232.8713","spektor","0.05","h","164","240","240","164","160.6713","232.8713","39360","39360","37415.7294","dc","null","null","null","null","null","null","[3,2]","","",""
"","canvas-keyboard-response","62","196381","0.0-6.0-0.8","563","","","","","pre trial waiting period","null","null","","","critical","d","c","t","220.0396","154.6796","164","240","240","164","trueblood","0.14","w","240","164","164","240","220.0396","154.6796","39360","39360","34035.6388","tc","null","null","null","null","null","null","[3,2]","488.92051015798415","462.59900304466163","487.6084722511333"
"","canvas-keyboard-response","63","196401","0.0-6.0-1.8","563","","","","","clear_screen","null","null","","","critical","d","c","t","220.0396","154.6796","164","240","240","164","trueblood","0.14","w","240","164","164","240","220.0396","154.6796","39360","39360","34035.6388","tc","null","null","null","null","null","null","[3,2]","488.92051015798415","462.59900304466163","487.6084722511333"
"","canvas-keyboard-response","64","196910","0.0-6.0-2.8","563","","","","","rectangles no change","null","null","","","critical","d","c","t","220.0396","154.6796","164","240","240","164","trueblood","0.14","w","240","164","164","240","220.0396","154.6796","39360","39360","34035.6388","tc","null","null","null","null","null","null","[3,2]","488.92051015798415","462.59900304466163","487.6084722511333"
"","canvas-keyboard-response","65","198245","0.0-6.0-3.8","563","","","","","rectangles with change","null","null","","","critical","d","c","t","220.0396","154.6796","164","240","240","164","trueblood","0.14","w","240","164","164","240","220.0396","154.6796","39360","39360","34035.6388","tc","null","null","null","null","null","null","[3,2]","488.92051015798415","462.59900304466163","487.6084722511333"
"","canvas-keyboard-response","66","198265","0.0-6.0-4.8","563","","","","","clear_screen","null","null","","","critical","d","c","t","220.0396","154.6796","164","240","240","164","trueblood","0.14","w","240","164","164","240","220.0396","154.6796","39360","39360","34035.6388","tc","null","null","null","null","null","null","[3,2]","488.92051015798415","462.59900304466163","487.6084722511333"
"","canvas-keyboard-response","67","199369","0.0-6.0-5.8","563","","","","","make choice","1097","2","","","critical","d","c","t","220.0396","154.6796","164","240","240","164","trueblood","0.14","w","240","164","164","240","220.0396","154.6796","39360","39360","34035.6388","tc","null","null","null","null","null","null","[3,2]","","",""
"","canvas-keyboard-response","68","199387","0.0-6.0-6.8","563","","","","","clear_screen","null","null","","","critical","d","c","t","220.0396","154.6796","164","240","240","164","trueblood","0.14","w","240","164","164","240","220.0396","154.6796","39360","39360","34035.6388","tc","null","null","null","null","null","null","[3,2]","","",""
"","canvas-keyboard-response","69","199587","0.0-6.0-0.9","563","","","","","pre trial waiting period","null","null","","","critical","d","t","c","160.6713","232.8713","164","240","240","164","spektor","0.05","h","164","240","240","164","160.6713","232.8713","39360","39360","37415.7294","td","null","null","null","null","null","null","[2,1]","502.33520320334","120.44387538272296","535.5962535093483"
"","canvas-keyboard-response","70","199607","0.0-6.0-1.9","563","","","","","clear_screen","null","null","","","critical","d","t","c","160.6713","232.8713","164","240","240","164","spektor","0.05","h","164","240","240","164","160.6713","232.8713","39360","39360","37415.7294","td","null","null","null","null","null","null","[2,1]","502.33520320334","120.44387538272296","535.5962535093483"
"","canvas-keyboard-response","71","200119","0.0-6.0-2.9","563","","","","","rectangles no change","null","null","","","critical","d","t","c","160.6713","232.8713","164","240","240","164","spektor","0.05","h","164","240","240","164","160.6713","232.8713","39360","39360","37415.7294","td","null","null","null","null","null","null","[2,1]","502.33520320334","120.44387538272296","535.5962535093483"
"","canvas-keyboard-response","72","201455","0.0-6.0-3.9","563","","","","","rectangles with change","null","null","","","critical","d","t","c","160.6713","232.8713","164","240","240","164","spektor","0.05","h","164","240","240","164","160.6713","232.8713","39360","39360","37415.7294","td","null","null","null","null","null","null","[2,1]","502.33520320334","120.44387538272296","535.5962535093483"
"","canvas-keyboard-response","73","201472","0.0-6.0-4.9","563","","","","","clear_screen","null","null","","","critical","d","t","c","160.6713","232.8713","164","240","240","164","spektor","0.05","h","164","240","240","164","160.6713","232.8713","39360","39360","37415.7294","td","null","null","null","null","null","null","[2,1]","502.33520320334","120.44387538272296","535.5962535093483"
"","canvas-keyboard-response","74","203081","0.0-6.0-5.9","563","","","","","make choice","1600","1","","","critical","d","t","c","160.6713","232.8713","164","240","240","164","spektor","0.05","h","164","240","240","164","160.6713","232.8713","39360","39360","37415.7294","td","null","null","null","null","null","null","[2,1]","","",""
"","canvas-keyboard-response","75","203100","0.0-6.0-6.9","563","","","","","clear_screen","null","null","","","critical","d","t","c","160.6713","232.8713","164","240","240","164","spektor","0.05","h","164","240","240","164","160.6713","232.8713","39360","39360","37415.7294","td","null","null","null","null","null","null","[2,1]","","",""
"","canvas-keyboard-response","76","203301","0.0-6.0-0.10","563","","","","","pre trial waiting period","null","null","","","critical","c","t","d","164","240","240","164","220.0396","154.6796","spektor","0.14","w","240","164","164","240","220.0396","154.6796","39360","39360","34035.6388","dc","null","null","null","null","null","null","[3,1]","488.76910854452154","212.04295066942097","506.4505528414979"
"","canvas-keyboard-response","77","203325","0.0-6.0-1.10","563","","","","","clear_screen","null","null","","","critical","c","t","d","164","240","240","164","220.0396","154.6796","spektor","0.14","w","240","164","164","240","220.0396","154.6796","39360","39360","34035.6388","dc","null","null","null","null","null","null","[3,1]","488.76910854452154","212.04295066942097","506.4505528414979"
"","canvas-keyboard-response","78","203839","0.0-6.0-2.10","563","","","","","rectangles no change","null","null","","","critical","c","t","d","164","240","240","164","220.0396","154.6796","spektor","0.14","w","240","164","164","240","220.0396","154.6796","39360","39360","34035.6388","dc","null","null","null","null","null","null","[3,1]","488.76910854452154","212.04295066942097","506.4505528414979"
"","canvas-keyboard-response","79","205174","0.0-6.0-3.10","563","","","","","rectangles with change","null","null","","","critical","c","t","d","164","240","240","164","220.0396","154.6796","spektor","0.14","w","240","164","164","240","220.0396","154.6796","39360","39360","34035.6388","dc","null","null","null","null","null","null","[3,1]","488.76910854452154","212.04295066942097","506.4505528414979"
"","canvas-keyboard-response","80","205193","0.0-6.0-4.10","563","","","","","clear_screen","null","null","","","critical","c","t","d","164","240","240","164","220.0396","154.6796","spektor","0.14","w","240","164","164","240","220.0396","154.6796","39360","39360","34035.6388","dc","null","null","null","null","null","null","[3,1]","488.76910854452154","212.04295066942097","506.4505528414979"
"","canvas-keyboard-response","81","205737","0.0-6.0-5.10","563","","","","","make choice","535","1","","","critical","c","t","d","164","240","240","164","220.0396","154.6796","spektor","0.14","w","240","164","164","240","220.0396","154.6796","39360","39360","34035.6388","dc","null","null","null","null","null","null","[3,1]","","",""
"","canvas-keyboard-response","82","205755","0.0-6.0-6.10","563","","","","","clear_screen","null","null","","","critical","c","t","d","164","240","240","164","220.0396","154.6796","spektor","0.14","w","240","164","164","240","220.0396","154.6796","39360","39360","34035.6388","dc","null","null","null","null","null","null","[3,1]","","",""
"","canvas-keyboard-response","83","205956","0.0-6.0-0.11","563","","","","","pre trial waiting period","null","null","","","catch","sw","l","sh","180","200","197","244","183","210","trueblood","null","null","null","null","null","null","null","null","null","null","null","","180","200","260","200","36000","52000","[1,2]","480.94603055629847","434.5890845318897","460.2435579382017"
"","canvas-keyboard-response","84","205977","0.0-6.0-1.11","563","","","","","clear_screen","null","null","","","catch","sw","l","sh","180","200","197","244","183","210","trueblood","null","null","null","null","null","null","null","null","null","null","null","","180","200","260","200","36000","52000","[1,2]","480.94603055629847","434.5890845318897","460.2435579382017"
"","canvas-keyboard-response","85","206488","0.0-6.0-2.11","563","","","","","rectangles no change","null","null","","","catch","sw","l","sh","180","200","197","244","183","210","trueblood","null","null","null","null","null","null","null","null","null","null","null","","180","200","260","200","36000","52000","[1,2]","480.94603055629847","434.5890845318897","460.2435579382017"
"","canvas-keyboard-response","86","207824","0.0-6.0-3.11","563","","","","","rectangles with change","null","null","","","catch","sw","l","sh","180","200","197","244","183","210","trueblood","null","null","null","null","null","null","null","null","null","null","null","","180","200","260","200","36000","52000","[1,2]","480.94603055629847","434.5890845318897","460.2435579382017"
"","canvas-keyboard-response","87","207842","0.0-6.0-4.11","563","","","","","clear_screen","null","null","","","catch","sw","l","sh","180","200","197","244","183","210","trueblood","null","null","null","null","null","null","null","null","null","null","null","","180","200","260","200","36000","52000","[1,2]","480.94603055629847","434.5890845318897","460.2435579382017"
"","canvas-keyboard-response","88","208321","0.0-6.0-5.11","563","","","","","make choice","469","2","","","catch","sw","l","sh","180","200","197","244","183","210","trueblood","null","null","null","null","null","null","null","null","null","null","null","","180","200","260","200","36000","52000","[1,2]","","",""
"","canvas-keyboard-response","89","208338","0.0-6.0-6.11","563","","","","","clear_screen","null","null","","","catch","sw","l","sh","180","200","197","244","183","210","trueblood","null","null","null","null","null","null","null","null","null","null","null","","180","200","260","200","36000","52000","[1,2]","","",""
"","canvas-keyboard-response","90","208539","0.0-6.0-0.12","563","","","","","pre trial waiting period","null","null","","","catch","sw","sh","l","180","200","196","189","297","185","spektor","null","null","null","null","null","null","null","null","null","null","null","","180","200","260","200","36000","52000","[1,3]","506.0492672144032","146.56496557856207","516.0045463420932"
"","canvas-keyboard-response","91","208571","0.0-6.0-1.12","563","","","","","clear_screen","null","null","","","catch","sw","sh","l","180","200","196","189","297","185","spektor","null","null","null","null","null","null","null","null","null","null","null","","180","200","260","200","36000","52000","[1,3]","506.0492672144032","146.56496557856207","516.0045463420932"
"","canvas-keyboard-response","92","209081","0.0-6.0-2.12","563","","","","","rectangles no change","null","null","","","catch","sw","sh","l","180","200","196","189","297","185","spektor","null","null","null","null","null","null","null","null","null","null","null","","180","200","260","200","36000","52000","[1,3]","506.0492672144032","146.56496557856207","516.0045463420932"
"","canvas-keyboard-response","93","210415","0.0-6.0-3.12","563","","","","","rectangles with change","null","null","","","catch","sw","sh","l","180","200","196","189","297","185","spektor","null","null","null","null","null","null","null","null","null","null","null","","180","200","260","200","36000","52000","[1,3]","506.0492672144032","146.56496557856207","516.0045463420932"
"","canvas-keyboard-response","94","210434","0.0-6.0-4.12","563","","","","","clear_screen","null","null","","","catch","sw","sh","l","180","200","196","189","297","185","spektor","null","null","null","null","null","null","null","null","null","null","null","","180","200","260","200","36000","52000","[1,3]","506.0492672144032","146.56496557856207","516.0045463420932"
"","canvas-keyboard-response","95","211160","0.0-6.0-5.12","563","","","","","make choice","720","3","","","catch","sw","sh","l","180","200","196","189","297","185","spektor","null","null","null","null","null","null","null","null","null","null","null","","180","200","260","200","36000","52000","[1,3]","","",""
"","canvas-keyboard-response","96","211179","0.0-6.0-6.12","563","","","","","clear_screen","null","null","","","catch","sw","sh","l","180","200","196","189","297","185","spektor","null","null","null","null","null","null","null","null","null","null","null","","180","200","260","200","36000","52000","[1,3]","","",""
"","canvas-keyboard-response","97","211380","0.0-6.0-0.13","563","","","","","pre trial waiting period","null","null","","","critical","d","t","c","164","240","164","240","240","164","spektor","0","h","164","240","240","164","164","240","39360","39360","39360","tc","null","null","null","null","null","null","[2,3]","475.33910414097994","136.5304076677148","540.8484560619488"
"","canvas-keyboard-response","98","211400","0.0-6.0-1.13","563","","","","","clear_screen","null","null","","","critical","d","t","c","164","240","164","240","240","164","spektor","0","h","164","240","240","164","164","240","39360","39360","39360","tc","null","null","null","null","null","null","[2,3]","475.33910414097994","136.5304076677148","540.8484560619488"
"","canvas-keyboard-response","99","211911","0.0-6.0-2.13","563","","","","","rectangles no change","null","null","","","critical","d","t","c","164","240","164","240","240","164","spektor","0","h","164","240","240","164","164","240","39360","39360","39360","tc","null","null","null","null","null","null","[2,3]","475.33910414097994","136.5304076677148","540.8484560619488"
"","canvas-keyboard-response","100","213246","0.0-6.0-3.13","563","","","","","rectangles with change","null","null","","","critical","d","t","c","164","240","164","240","240","164","spektor","0","h","164","240","240","164","164","240","39360","39360","39360","tc","null","null","null","null","null","null","[2,3]","475.33910414097994","136.5304076677148","540.8484560619488"
"","canvas-keyboard-response","101","213264","0.0-6.0-4.13","563","","","","","clear_screen","null","null","","","critical","d","t","c","164","240","164","240","240","164","spektor","0","h","164","240","240","164","164","240","39360","39360","39360","tc","null","null","null","null","null","null","[2,3]","475.33910414097994","136.5304076677148","540.8484560619488"
"","canvas-keyboard-response","102","213664","0.0-6.0-5.13","563","","","","","make choice","390","3","","","critical","d","t","c","164","240","164","240","240","164","spektor","0","h","164","240","240","164","164","240","39360","39360","39360","tc","null","null","null","null","null","null","[2,3]","","",""
"","canvas-keyboard-response","103","213682","0.0-6.0-6.13","563","","","","","clear_screen","null","null","","","critical","d","t","c","164","240","164","240","240","164","spektor","0","h","164","240","240","164","164","240","39360","39360","39360","tc","null","null","null","null","null","null","[2,3]","","",""
"","canvas-keyboard-response","104","213884","0.0-6.0-0.14","563","","","","","pre trial waiting period","null","null","","","critical","d","c","t","227.1683","158.0083","164","240","240","164","trueblood","0.09","w","240","164","164","240","227.1683","158.0083","39360","39360","35894.4834","td","null","null","null","null","null","null","[3,1]","488.71285475798936","422.28158087960554","486.9893115713736"
"","canvas-keyboard-response","105","213903","0.0-6.0-1.14","563","","","","","clear_screen","null","null","","","critical","d","c","t","227.1683","158.0083","164","240","240","164","trueblood","0.09","w","240","164","164","240","227.1683","158.0083","39360","39360","35894.4834","td","null","null","null","null","null","null","[3,1]","488.71285475798936","422.28158087960554","486.9893115713736"
"","canvas-keyboard-response","106","214412","0.0-6.0-2.14","563","","","","","rectangles no change","null","null","","","critical","d","c","t","227.1683","158.0083","164","240","240","164","trueblood","0.09","w","240","164","164","240","227.1683","158.0083","39360","39360","35894.4834","td","null","null","null","null","null","null","[3,1]","488.71285475798936","422.28158087960554","486.9893115713736"
"","canvas-keyboard-response","107","215748","0.0-6.0-3.14","563","","","","","rectangles with change","null","null","","","critical","d","c","t","227.1683","158.0083","164","240","240","164","trueblood","0.09","w","240","164","164","240","227.1683","158.0083","39360","39360","35894.4834","td","null","null","null","null","null","null","[3,1]","488.71285475798936","422.28158087960554","486.9893115713736"
"","canvas-keyboard-response","108","215766","0.0-6.0-4.14","563","","","","","clear_screen","null","null","","","critical","d","c","t","227.1683","158.0083","164","240","240","164","trueblood","0.09","w","240","164","164","240","227.1683","158.0083","39360","39360","35894.4834","td","null","null","null","null","null","null","[3,1]","488.71285475798936","422.28158087960554","486.9893115713736"
"","canvas-keyboard-response","109","216424","0.0-6.0-5.14","563","","","","","make choice","652","3","","","critical","d","c","t","227.1683","158.0083","164","240","240","164","trueblood","0.09","w","240","164","164","240","227.1683","158.0083","39360","39360","35894.4834","td","null","null","null","null","null","null","[3,1]","","",""
"","canvas-keyboard-response","110","216443","0.0-6.0-6.14","563","","","","","clear_screen","null","null","","","critical","d","c","t","227.1683","158.0083","164","240","240","164","trueblood","0.09","w","240","164","164","240","227.1683","158.0083","39360","39360","35894.4834","td","null","null","null","null","null","null","[3,1]","","",""
"","canvas-keyboard-response","111","216645","0.0-6.0-0.15","563","","","","","pre trial waiting period","null","null","","","critical","t","d","c","164","240","158.0083","227.1683","240","164","spektor","0.09","h","164","240","240","164","158.0083","227.1683","39360","39360","35894.4834","td","null","null","null","null","null","null","[1,2]","466.0388082160132","146.78037909656348","537.6688075419478"
"","canvas-keyboard-response","112","216663","0.0-6.0-1.15","563","","","","","clear_screen","null","null","","","critical","t","d","c","164","240","158.0083","227.1683","240","164","spektor","0.09","h","164","240","240","164","158.0083","227.1683","39360","39360","35894.4834","td","null","null","null","null","null","null","[1,2]","466.0388082160132","146.78037909656348","537.6688075419478"
"","canvas-keyboard-response","113","217175","0.0-6.0-2.15","563","","","","","rectangles no change","null","null","","","critical","t","d","c","164","240","158.0083","227.1683","240","164","spektor","0.09","h","164","240","240","164","158.0083","227.1683","39360","39360","35894.4834","td","null","null","null","null","null","null","[1,2]","466.0388082160132","146.78037909656348","537.6688075419478"
"","canvas-keyboard-response","114","218509","0.0-6.0-3.15","563","","","","","rectangles with change","null","null","","","critical","t","d","c","164","240","158.0083","227.1683","240","164","spektor","0.09","h","164","240","240","164","158.0083","227.1683","39360","39360","35894.4834","td","null","null","null","null","null","null","[1,2]","466.0388082160132","146.78037909656348","537.6688075419478"
"","canvas-keyboard-response","115","218529","0.0-6.0-4.15","563","","","","","clear_screen","null","null","","","critical","t","d","c","164","240","158.0083","227.1683","240","164","spektor","0.09","h","164","240","240","164","158.0083","227.1683","39360","39360","35894.4834","td","null","null","null","null","null","null","[1,2]","466.0388082160132","146.78037909656348","537.6688075419478"
"","canvas-keyboard-response","116","219305","0.0-6.0-5.15","563","","","","","make choice","769","1","","","critical","t","d","c","164","240","158.0083","227.1683","240","164","spektor","0.09","h","164","240","240","164","158.0083","227.1683","39360","39360","35894.4834","td","null","null","null","null","null","null","[1,2]","","",""
"","canvas-keyboard-response","117","219323","0.0-6.0-6.15","563","","","","","clear_screen","null","null","","","critical","t","d","c","164","240","158.0083","227.1683","240","164","spektor","0.09","h","164","240","240","164","158.0083","227.1683","39360","39360","35894.4834","td","null","null","null","null","null","null","[1,2]","","",""
"","canvas-keyboard-response","118","219524","0.0-6.0-0.16","563","","","","","pre trial waiting period","null","null","","","critical","d","c","t","164","240","240","164","164","240","trueblood","0","h","164","240","240","164","164","240","39360","39360","39360","dc","null","null","null","null","null","null","[1,2]","459.85485794224405","511.32317283042727","442.50670474276404"
"","canvas-keyboard-response","119","219542","0.0-6.0-1.16","563","","","","","clear_screen","null","null","","","critical","d","c","t","164","240","240","164","164","240","trueblood","0","h","164","240","240","164","164","240","39360","39360","39360","dc","null","null","null","null","null","null","[1,2]","459.85485794224405","511.32317283042727","442.50670474276404"
"","canvas-keyboard-response","120","220054","0.0-6.0-2.16","563","","","","","rectangles no change","null","null","","","critical","d","c","t","164","240","240","164","164","240","trueblood","0","h","164","240","240","164","164","240","39360","39360","39360","dc","null","null","null","null","null","null","[1,2]","459.85485794224405","511.32317283042727","442.50670474276404"
"","canvas-keyboard-response","121","221389","0.0-6.0-3.16","563","","","","","rectangles with change","null","null","","","critical","d","c","t","164","240","240","164","164","240","trueblood","0","h","164","240","240","164","164","240","39360","39360","39360","dc","null","null","null","null","null","null","[1,2]","459.85485794224405","511.32317283042727","442.50670474276404"
"","canvas-keyboard-response","122","221408","0.0-6.0-4.16","563","","","","","clear_screen","null","null","","","critical","d","c","t","164","240","240","164","164","240","trueblood","0","h","164","240","240","164","164","240","39360","39360","39360","dc","null","null","null","null","null","null","[1,2]","459.85485794224405","511.32317283042727","442.50670474276404"
"","canvas-keyboard-response","123","221920","0.0-6.0-5.16","563","","","","","make choice","505","2","","","critical","d","c","t","164","240","240","164","164","240","trueblood","0","h","164","240","240","164","164","240","39360","39360","39360","dc","null","null","null","null","null","null","[1,2]","","",""
"","canvas-keyboard-response","124","221937","0.0-6.0-6.16","563","","","","","clear_screen","null","null","","","critical","d","c","t","164","240","240","164","164","240","trueblood","0","h","164","240","240","164","164","240","39360","39360","39360","dc","null","null","null","null","null","null","[1,2]","","",""
"","canvas-keyboard-response","125","222139","0.0-6.0-0.17","563","","","","","pre trial waiting period","null","null","","","catch","sw","sh","l","180","200","181","177","270","208","spektor","null","null","null","null","null","null","null","null","null","null","null","","180","200","260","200","36000","52000","[2,3]","475.10250283346636","193.75071900377074","480.2822380326858"
"","canvas-keyboard-response","126","222162","0.0-6.0-1.17","563","","","","","clear_screen","null","null","","","catch","sw","sh","l","180","200","181","177","270","208","spektor","null","null","null","null","null","null","null","null","null","null","null","","180","200","260","200","36000","52000","[2,3]","475.10250283346636","193.75071900377074","480.2822380326858"
"","canvas-keyboard-response","127","222672","0.0-6.0-2.17","563","","","","","rectangles no change","null","null","","","catch","sw","sh","l","180","200","181","177","270","208","spektor","null","null","null","null","null","null","null","null","null","null","null","","180","200","260","200","36000","52000","[2,3]","475.10250283346636","193.75071900377074","480.2822380326858"
"","canvas-keyboard-response","128","224008","0.0-6.0-3.17","563","","","","","rectangles with change","null","null","","","catch","sw","sh","l","180","200","181","177","270","208","spektor","null","null","null","null","null","null","null","null","null","null","null","","180","200","260","200","36000","52000","[2,3]","475.10250283346636","193.75071900377074","480.2822380326858"
"","canvas-keyboard-response","129","224027","0.0-6.0-4.17","563","","","","","clear_screen","null","null","","","catch","sw","sh","l","180","200","181","177","270","208","spektor","null","null","null","null","null","null","null","null","null","null","null","","180","200","260","200","36000","52000","[2,3]","475.10250283346636","193.75071900377074","480.2822380326858"
"","canvas-keyboard-response","130","224505","0.0-6.0-5.17","563","","","","","make choice","470","3","","","catch","sw","sh","l","180","200","181","177","270","208","spektor","null","null","null","null","null","null","null","null","null","null","null","","180","200","260","200","36000","52000","[2,3]","","",""
"","canvas-keyboard-response","131","224523","0.0-6.0-6.17","563","","","","","clear_screen","null","null","","","catch","sw","sh","l","180","200","181","177","270","208","spektor","null","null","null","null","null","null","null","null","null","null","null","","180","200","260","200","36000","52000","[2,3]","","",""
"","canvas-keyboard-response","132","224724","0.0-6.0-0.18","563","","","","","pre trial waiting period","null","null","","","critical","t","d","c","164","240","158.0083","227.1683","240","164","trueblood","0.09","h","164","240","240","164","158.0083","227.1683","39360","39360","35894.4834","td","null","null","null","null","null","null","[1,2]","439.20493055048416","448.38785656881635","484.6125548997528"
"","canvas-keyboard-response","133","224743","0.0-6.0-1.18","563","","","","","clear_screen","null","null","","","critical","t","d","c","164","240","158.0083","227.1683","240","164","trueblood","0.09","h","164","240","240","164","158.0083","227.1683","39360","39360","35894.4834","td","null","null","null","null","null","null","[1,2]","439.20493055048416","448.38785656881635","484.6125548997528"
"","canvas-keyboard-response","134","225254","0.0-6.0-2.18","563","","","","","rectangles no change","null","null","","","critical","t","d","c","164","240","158.0083","227.1683","240","164","trueblood","0.09","h","164","240","240","164","158.0083","227.1683","39360","39360","35894.4834","td","null","null","null","null","null","null","[1,2]","439.20493055048416","448.38785656881635","484.6125548997528"
"","canvas-keyboard-response","135","226589","0.0-6.0-3.18","563","","","","","rectangles with change","null","null","","","critical","t","d","c","164","240","158.0083","227.1683","240","164","trueblood","0.09","h","164","240","240","164","158.0083","227.1683","39360","39360","35894.4834","td","null","null","null","null","null","null","[1,2]","439.20493055048416","448.38785656881635","484.6125548997528"
"","canvas-keyboard-response","136","226607","0.0-6.0-4.18","563","","","","","clear_screen","null","null","","","critical","t","d","c","164","240","158.0083","227.1683","240","164","trueblood","0.09","h","164","240","240","164","158.0083","227.1683","39360","39360","35894.4834","td","null","null","null","null","null","null","[1,2]","439.20493055048416","448.38785656881635","484.6125548997528"
"","canvas-keyboard-response","137","230072","0.0-6.0-5.18","563","","","","","make choice","3458","1","","","critical","t","d","c","164","240","158.0083","227.1683","240","164","trueblood","0.09","h","164","240","240","164","158.0083","227.1683","39360","39360","35894.4834","td","null","null","null","null","null","null","[1,2]","","",""
"","canvas-keyboard-response","138","230094","0.0-6.0-6.18","563","","","","","clear_screen","null","null","","","critical","t","d","c","164","240","158.0083","227.1683","240","164","trueblood","0.09","h","164","240","240","164","158.0083","227.1683","39360","39360","35894.4834","td","null","null","null","null","null","null","[1,2]","","",""
"","canvas-keyboard-response","139","230296","0.0-6.0-0.19","563","","","","","pre trial waiting period","null","null","","","critical","d","t","c","154.6796","220.0396","164","240","240","164","spektor","0.14","h","164","240","240","164","154.6796","220.0396","39360","39360","34035.6388","td","null","null","null","null","null","null","[2,1]","496.52079715137296","143.8027657674169","527.5611451095966"
"","canvas-keyboard-response","140","230316","0.0-6.0-1.19","563","","","","","clear_screen","null","null","","","critical","d","t","c","154.6796","220.0396","164","240","240","164","spektor","0.14","h","164","240","240","164","154.6796","220.0396","39360","39360","34035.6388","td","null","null","null","null","null","null","[2,1]","496.52079715137296","143.8027657674169","527.5611451095966"
"","canvas-keyboard-response","141","230827","0.0-6.0-2.19","563","","","","","rectangles no change","null","null","","","critical","d","t","c","154.6796","220.0396","164","240","240","164","spektor","0.14","h","164","240","240","164","154.6796","220.0396","39360","39360","34035.6388","td","null","null","null","null","null","null","[2,1]","496.52079715137296","143.8027657674169","527.5611451095966"
"","canvas-keyboard-response","142","232162","0.0-6.0-3.19","563","","","","","rectangles with change","null","null","","","critical","d","t","c","154.6796","220.0396","164","240","240","164","spektor","0.14","h","164","240","240","164","154.6796","220.0396","39360","39360","34035.6388","td","null","null","null","null","null","null","[2,1]","496.52079715137296","143.8027657674169","527.5611451095966"
"","canvas-keyboard-response","143","232181","0.0-6.0-4.19","563","","","","","clear_screen","null","null","","","critical","d","t","c","154.6796","220.0396","164","240","240","164","spektor","0.14","h","164","240","240","164","154.6796","220.0396","39360","39360","34035.6388","td","null","null","null","null","null","null","[2,1]","496.52079715137296","143.8027657674169","527.5611451095966"
"","canvas-keyboard-response","144","233216","0.0-6.0-5.19","563","","","","","make choice","1028","2","","","critical","d","t","c","154.6796","220.0396","164","240","240","164","spektor","0.14","h","164","240","240","164","154.6796","220.0396","39360","39360","34035.6388","td","null","null","null","null","null","null","[2,1]","","",""
"","canvas-keyboard-response","145","233234","0.0-6.0-6.19","563","","","","","clear_screen","null","null","","","critical","d","t","c","154.6796","220.0396","164","240","240","164","spektor","0.14","h","164","240","240","164","154.6796","220.0396","39360","39360","34035.6388","td","null","null","null","null","null","null","[2,1]","","",""
"","canvas-keyboard-response","146","233436","0.0-6.0-0.20","563","","","","","pre trial waiting period","null","null","","","catch","sh","l","sw","213","141","243","161","172","185","spektor","null","null","null","null","null","null","null","null","null","null","null","","180","200","260","200","36000","52000","[2,3]","521.1872856319246","203.41897645215093","528.8244305762307"
"","canvas-keyboard-response","147","233455","0.0-6.0-1.20","563","","","","","clear_screen","null","null","","","catch","sh","l","sw","213","141","243","161","172","185","spektor","null","null","null","null","null","null","null","null","null","null","null","","180","200","260","200","36000","52000","[2,3]","521.1872856319246","203.41897645215093","528.8244305762307"
"","canvas-keyboard-response","148","233965","0.0-6.0-2.20","563","","","","","rectangles no change","null","null","","","catch","sh","l","sw","213","141","243","161","172","185","spektor","null","null","null","null","null","null","null","null","null","null","null","","180","200","260","200","36000","52000","[2,3]","521.1872856319246","203.41897645215093","528.8244305762307"
"","canvas-keyboard-response","149","235300","0.0-6.0-3.20","563","","","","","rectangles with change","null","null","","","catch","sh","l","sw","213","141","243","161","172","185","spektor","null","null","null","null","null","null","null","null","null","null","null","","180","200","260","200","36000","52000","[2,3]","521.1872856319246","203.41897645215093","528.8244305762307"
"","canvas-keyboard-response","150","235318","0.0-6.0-4.20","563","","","","","clear_screen","null","null","","","catch","sh","l","sw","213","141","243","161","172","185","spektor","null","null","null","null","null","null","null","null","null","null","null","","180","200","260","200","36000","52000","[2,3]","521.1872856319246","203.41897645215093","528.8244305762307"
"","canvas-keyboard-response","151","236753","0.0-6.0-5.20","563","","","","","make choice","1424","2","","","catch","sh","l","sw","213","141","243","161","172","185","spektor","null","null","null","null","null","null","null","null","null","null","null","","180","200","260","200","36000","52000","[2,3]","","",""
"","canvas-keyboard-response","152","236774","0.0-6.0-6.20","563","","","","","clear_screen","null","null","","","catch","sh","l","sw","213","141","243","161","172","185","spektor","null","null","null","null","null","null","null","null","null","null","null","","180","200","260","200","36000","52000","[2,3]","","",""
"","canvas-keyboard-response","153","236979","0.0-6.0-0.21","563","","","","","pre trial waiting period","null","null","","","critical","d","t","c","237.1485","162.6685","240","164","164","240","trueblood","0.02","w","240","164","164","240","237.1485","162.6685","39360","39360","38576.5967","dc","null","null","null","null","null","null","[1,3]","500.61087790853213","476.78801632815953","426.6758579174824"
"","canvas-keyboard-response","154","237001","0.0-6.0-1.21","563","","","","","clear_screen","null","null","","","critical","d","t","c","237.1485","162.6685","240","164","164","240","trueblood","0.02","w","240","164","164","240","237.1485","162.6685","39360","39360","38576.5967","dc","null","null","null","null","null","null","[1,3]","500.61087790853213","476.78801632815953","426.6758579174824"
"","canvas-keyboard-response","155","237511","0.0-6.0-2.21","563","","","","","rectangles no change","null","null","","","critical","d","t","c","237.1485","162.6685","240","164","164","240","trueblood","0.02","w","240","164","164","240","237.1485","162.6685","39360","39360","38576.5967","dc","null","null","null","null","null","null","[1,3]","500.61087790853213","476.78801632815953","426.6758579174824"
"","canvas-keyboard-response","156","238847","0.0-6.0-3.21","563","","","","","rectangles with change","null","null","","","critical","d","t","c","237.1485","162.6685","240","164","164","240","trueblood","0.02","w","240","164","164","240","237.1485","162.6685","39360","39360","38576.5967","dc","null","null","null","null","null","null","[1,3]","500.61087790853213","476.78801632815953","426.6758579174824"
"","canvas-keyboard-response","157","238867","0.0-6.0-4.21","563","","","","","clear_screen","null","null","","","critical","d","t","c","237.1485","162.6685","240","164","164","240","trueblood","0.02","w","240","164","164","240","237.1485","162.6685","39360","39360","38576.5967","dc","null","null","null","null","null","null","[1,3]","500.61087790853213","476.78801632815953","426.6758579174824"
"","canvas-keyboard-response","158","239777","0.0-6.0-5.21","563","","","","","make choice","902","1","","","critical","d","t","c","237.1485","162.6685","240","164","164","240","trueblood","0.02","w","240","164","164","240","237.1485","162.6685","39360","39360","38576.5967","dc","null","null","null","null","null","null","[1,3]","","",""
"","canvas-keyboard-response","159","239796","0.0-6.0-6.21","563","","","","","clear_screen","null","null","","","critical","d","t","c","237.1485","162.6685","240","164","164","240","trueblood","0.02","w","240","164","164","240","237.1485","162.6685","39360","39360","38576.5967","dc","null","null","null","null","null","null","[1,3]","","",""
"","canvas-keyboard-response","160","239997","0.0-6.0-0.22","563","","","","","pre trial waiting period","null","null","","","critical","t","d","c","164","240","160.6713","232.8713","240","164","trueblood","0.05","h","164","240","240","164","160.6713","232.8713","39360","39360","37415.7294","tc","null","null","null","null","null","null","[1,3]","465.6986903234884","429.0425793249148","513.7490606786353"
"","canvas-keyboard-response","161","240019","0.0-6.0-1.22","563","","","","","clear_screen","null","null","","","critical","t","d","c","164","240","160.6713","232.8713","240","164","trueblood","0.05","h","164","240","240","164","160.6713","232.8713","39360","39360","37415.7294","tc","null","null","null","null","null","null","[1,3]","465.6986903234884","429.0425793249148","513.7490606786353"
"","canvas-keyboard-response","162","240529","0.0-6.0-2.22","563","","","","","rectangles no change","null","null","","","critical","t","d","c","164","240","160.6713","232.8713","240","164","trueblood","0.05","h","164","240","240","164","160.6713","232.8713","39360","39360","37415.7294","tc","null","null","null","null","null","null","[1,3]","465.6986903234884","429.0425793249148","513.7490606786353"
"","canvas-keyboard-response","163","241865","0.0-6.0-3.22","563","","","","","rectangles with change","null","null","","","critical","t","d","c","164","240","160.6713","232.8713","240","164","trueblood","0.05","h","164","240","240","164","160.6713","232.8713","39360","39360","37415.7294","tc","null","null","null","null","null","null","[1,3]","465.6986903234884","429.0425793249148","513.7490606786353"
"","canvas-keyboard-response","164","241887","0.0-6.0-4.22","563","","","","","clear_screen","null","null","","","critical","t","d","c","164","240","160.6713","232.8713","240","164","trueblood","0.05","h","164","240","240","164","160.6713","232.8713","39360","39360","37415.7294","tc","null","null","null","null","null","null","[1,3]","465.6986903234884","429.0425793249148","513.7490606786353"
"","canvas-keyboard-response","165","242736","0.0-6.0-5.22","563","","","","","make choice","841","3","","","critical","t","d","c","164","240","160.6713","232.8713","240","164","trueblood","0.05","h","164","240","240","164","160.6713","232.8713","39360","39360","37415.7294","tc","null","null","null","null","null","null","[1,3]","","",""
"","canvas-keyboard-response","166","242755","0.0-6.0-6.22","563","","","","","clear_screen","null","null","","","critical","t","d","c","164","240","160.6713","232.8713","240","164","trueblood","0.05","h","164","240","240","164","160.6713","232.8713","39360","39360","37415.7294","tc","null","null","null","null","null","null","[1,3]","","",""
"","canvas-keyboard-response","167","242956","0.0-6.0-0.23","563","","","","","pre trial waiting period","null","null","","","critical","t","c","d","164","240","240","164","162.6685","237.1485","spektor","0.02","h","164","240","240","164","162.6685","237.1485","39360","39360","38576.5967","dc","null","null","null","null","null","null","[3,2]","495.74684916586756","160.11681940360265","503.52071939024506"
"","canvas-keyboard-response","168","242977","0.0-6.0-1.23","563","","","","","clear_screen","null","null","","","critical","t","c","d","164","240","240","164","162.6685","237.1485","spektor","0.02","h","164","240","240","164","162.6685","237.1485","39360","39360","38576.5967","dc","null","null","null","null","null","null","[3,2]","495.74684916586756","160.11681940360265","503.52071939024506"
"","canvas-keyboard-response","169","243489","0.0-6.0-2.23","563","","","","","rectangles no change","null","null","","","critical","t","c","d","164","240","240","164","162.6685","237.1485","spektor","0.02","h","164","240","240","164","162.6685","237.1485","39360","39360","38576.5967","dc","null","null","null","null","null","null","[3,2]","495.74684916586756","160.11681940360265","503.52071939024506"
"","canvas-keyboard-response","170","244824","0.0-6.0-3.23","563","","","","","rectangles with change","null","null","","","critical","t","c","d","164","240","240","164","162.6685","237.1485","spektor","0.02","h","164","240","240","164","162.6685","237.1485","39360","39360","38576.5967","dc","null","null","null","null","null","null","[3,2]","495.74684916586756","160.11681940360265","503.52071939024506"
"","canvas-keyboard-response","171","244844","0.0-6.0-4.23","563","","","","","clear_screen","null","null","","","critical","t","c","d","164","240","240","164","162.6685","237.1485","spektor","0.02","h","164","240","240","164","162.6685","237.1485","39360","39360","38576.5967","dc","null","null","null","null","null","null","[3,2]","495.74684916586756","160.11681940360265","503.52071939024506"
"","canvas-keyboard-response","172","245681","0.0-6.0-5.23","563","","","","","make choice","829","2","","","critical","t","c","d","164","240","240","164","162.6685","237.1485","spektor","0.02","h","164","240","240","164","162.6685","237.1485","39360","39360","38576.5967","dc","null","null","null","null","null","null","[3,2]","","",""
"","canvas-keyboard-response","173","245699","0.0-6.0-6.23","563","","","","","clear_screen","null","null","","","critical","t","c","d","164","240","240","164","162.6685","237.1485","spektor","0.02","h","164","240","240","164","162.6685","237.1485","39360","39360","38576.5967","dc","null","null","null","null","null","null","[3,2]","","",""
"","canvas-keyboard-response","174","245900","0.0-6.0-0.24","563","","","","","pre trial waiting period","null","null","","","critical","d","c","t","154.6796","220.0396","240","164","164","240","trueblood","0.14","h","164","240","240","164","154.6796","220.0396","39360","39360","34035.6388","dc","null","null","null","null","null","null","[1,2]","480.609495816596","495.40782948515283","430.9676860602744"
"","canvas-keyboard-response","175","245921","0.0-6.0-1.24","563","","","","","clear_screen","null","null","","","critical","d","c","t","154.6796","220.0396","240","164","164","240","trueblood","0.14","h","164","240","240","164","154.6796","220.0396","39360","39360","34035.6388","dc","null","null","null","null","null","null","[1,2]","480.609495816596","495.40782948515283","430.9676860602744"
"","canvas-keyboard-response","176","246432","0.0-6.0-2.24","563","","","","","rectangles no change","null","null","","","critical","d","c","t","154.6796","220.0396","240","164","164","240","trueblood","0.14","h","164","240","240","164","154.6796","220.0396","39360","39360","34035.6388","dc","null","null","null","null","null","null","[1,2]","480.609495816596","495.40782948515283","430.9676860602744"
"","canvas-keyboard-response","177","247768","0.0-6.0-3.24","563","","","","","rectangles with change","null","null","","","critical","d","c","t","154.6796","220.0396","240","164","164","240","trueblood","0.14","h","164","240","240","164","154.6796","220.0396","39360","39360","34035.6388","dc","null","null","null","null","null","null","[1,2]","480.609495816596","495.40782948515283","430.9676860602744"
"","canvas-keyboard-response","178","247785","0.0-6.0-4.24","563","","","","","clear_screen","null","null","","","critical","d","c","t","154.6796","220.0396","240","164","164","240","trueblood","0.14","h","164","240","240","164","154.6796","220.0396","39360","39360","34035.6388","dc","null","null","null","null","null","null","[1,2]","480.609495816596","495.40782948515283","430.9676860602744"
"","canvas-keyboard-response","179","248248","0.0-6.0-5.24","563","","","","","make choice","455","2","","","critical","d","c","t","154.6796","220.0396","240","164","164","240","trueblood","0.14","h","164","240","240","164","154.6796","220.0396","39360","39360","34035.6388","dc","null","null","null","null","null","null","[1,2]","","",""
"","canvas-keyboard-response","180","248266","0.0-6.0-6.24","563","","","","","clear_screen","null","null","","","critical","d","c","t","154.6796","220.0396","240","164","164","240","trueblood","0.14","h","164","240","240","164","154.6796","220.0396","39360","39360","34035.6388","dc","null","null","null","null","null","null","[1,2]","","",""
"","canvas-keyboard-response","181","248468","0.0-6.0-0.25","563","","","","","pre trial waiting period","null","null","","","critical","d","t","c","162.6685","237.1485","164","240","240","164","trueblood","0.02","h","164","240","240","164","162.6685","237.1485","39360","39360","38576.5967","dc","null","null","null","null","null","null","[1,3]","429.86258188740067","419.14023545633086","497.04557796502843"
"","canvas-keyboard-response","182","248487","0.0-6.0-1.25","563","","","","","clear_screen","null","null","","","critical","d","t","c","162.6685","237.1485","164","240","240","164","trueblood","0.02","h","164","240","240","164","162.6685","237.1485","39360","39360","38576.5967","dc","null","null","null","null","null","null","[1,3]","429.86258188740067","419.14023545633086","497.04557796502843"
"","canvas-keyboard-response","183","248997","0.0-6.0-2.25","563","","","","","rectangles no change","null","null","","","critical","d","t","c","162.6685","237.1485","164","240","240","164","trueblood","0.02","h","164","240","240","164","162.6685","237.1485","39360","39360","38576.5967","dc","null","null","null","null","null","null","[1,3]","429.86258188740067","419.14023545633086","497.04557796502843"
"","canvas-keyboard-response","184","250333","0.0-6.0-3.25","563","","","","","rectangles with change","null","null","","","critical","d","t","c","162.6685","237.1485","164","240","240","164","trueblood","0.02","h","164","240","240","164","162.6685","237.1485","39360","39360","38576.5967","dc","null","null","null","null","null","null","[1,3]","429.86258188740067","419.14023545633086","497.04557796502843"
"","canvas-keyboard-response","185","250351","0.0-6.0-4.25","563","","","","","clear_screen","null","null","","","critical","d","t","c","162.6685","237.1485","164","240","240","164","trueblood","0.02","h","164","240","240","164","162.6685","237.1485","39360","39360","38576.5967","dc","null","null","null","null","null","null","[1,3]","429.86258188740067","419.14023545633086","497.04557796502843"
"","canvas-keyboard-response","186","251040","0.0-6.0-5.25","563","","","","","make choice","682","3","","","critical","d","t","c","162.6685","237.1485","164","240","240","164","trueblood","0.02","h","164","240","240","164","162.6685","237.1485","39360","39360","38576.5967","dc","null","null","null","null","null","null","[1,3]","","",""
"","canvas-keyboard-response","187","251063","0.0-6.0-6.25","563","","","","","clear_screen","null","null","","","critical","d","t","c","162.6685","237.1485","164","240","240","164","trueblood","0.02","h","164","240","240","164","162.6685","237.1485","39360","39360","38576.5967","dc","null","null","null","null","null","null","[1,3]","","",""
"","canvas-keyboard-response","188","251264","0.0-6.0-0.26","563","","","","","pre trial waiting period","null","null","","","critical","c","d","t","164","240","237.1485","162.6685","240","164","spektor","0.02","w","240","164","164","240","237.1485","162.6685","39360","39360","38576.5967","dc","null","null","null","null","null","null","[2,1]","480.6210959721592","205.92920306381166","522.7535514848802"
"","canvas-keyboard-response","189","251284","0.0-6.0-1.26","563","","","","","clear_screen","null","null","","","critical","c","d","t","164","240","237.1485","162.6685","240","164","spektor","0.02","w","240","164","164","240","237.1485","162.6685","39360","39360","38576.5967","dc","null","null","null","null","null","null","[2,1]","480.6210959721592","205.92920306381166","522.7535514848802"
"","canvas-keyboard-response","190","251795","0.0-6.0-2.26","563","","","","","rectangles no change","null","null","","","critical","c","d","t","164","240","237.1485","162.6685","240","164","spektor","0.02","w","240","164","164","240","237.1485","162.6685","39360","39360","38576.5967","dc","null","null","null","null","null","null","[2,1]","480.6210959721592","205.92920306381166","522.7535514848802"
"","canvas-keyboard-response","191","253131","0.0-6.0-3.26","563","","","","","rectangles with change","null","null","","","critical","c","d","t","164","240","237.1485","162.6685","240","164","spektor","0.02","w","240","164","164","240","237.1485","162.6685","39360","39360","38576.5967","dc","null","null","null","null","null","null","[2,1]","480.6210959721592","205.92920306381166","522.7535514848802"
"","canvas-keyboard-response","192","253149","0.0-6.0-4.26","563","","","","","clear_screen","null","null","","","critical","c","d","t","164","240","237.1485","162.6685","240","164","spektor","0.02","w","240","164","164","240","237.1485","162.6685","39360","39360","38576.5967","dc","null","null","null","null","null","null","[2,1]","480.6210959721592","205.92920306381166","522.7535514848802"
"","canvas-keyboard-response","193","253712","0.0-6.0-5.26","563","","","","","make choice","556","2","","","critical","c","d","t","164","240","237.1485","162.6685","240","164","spektor","0.02","w","240","164","164","240","237.1485","162.6685","39360","39360","38576.5967","dc","null","null","null","null","null","null","[2,1]","","",""
"","canvas-keyboard-response","194","253730","0.0-6.0-6.26","563","","","","","clear_screen","null","null","","","critical","c","d","t","164","240","237.1485","162.6685","240","164","spektor","0.02","w","240","164","164","240","237.1485","162.6685","39360","39360","38576.5967","dc","null","null","null","null","null","null","[2,1]","","",""
"","canvas-keyboard-response","195","253931","0.0-6.0-0.27","563","","","","","pre trial waiting period","null","null","","","critical","d","c","t","160.6713","232.8713","240","164","164","240","spektor","0.05","h","164","240","240","164","160.6713","232.8713","39360","39360","37415.7294","tc","null","null","null","null","null","null","[3,2]","466.1133860610075","154.3430345266696","476.69807564449036"
"","canvas-keyboard-response","196","253951","0.0-6.0-1.27","563","","","","","clear_screen","null","null","","","critical","d","c","t","160.6713","232.8713","240","164","164","240","spektor","0.05","h","164","240","240","164","160.6713","232.8713","39360","39360","37415.7294","tc","null","null","null","null","null","null","[3,2]","466.1133860610075","154.3430345266696","476.69807564449036"
"","canvas-keyboard-response","197","254462","0.0-6.0-2.27","563","","","","","rectangles no change","null","null","","","critical","d","c","t","160.6713","232.8713","240","164","164","240","spektor","0.05","h","164","240","240","164","160.6713","232.8713","39360","39360","37415.7294","tc","null","null","null","null","null","null","[3,2]","466.1133860610075","154.3430345266696","476.69807564449036"
"","canvas-keyboard-response","198","255797","0.0-6.0-3.27","563","","","","","rectangles with change","null","null","","","critical","d","c","t","160.6713","232.8713","240","164","164","240","spektor","0.05","h","164","240","240","164","160.6713","232.8713","39360","39360","37415.7294","tc","null","null","null","null","null","null","[3,2]","466.1133860610075","154.3430345266696","476.69807564449036"
"","canvas-keyboard-response","199","255815","0.0-6.0-4.27","563","","","","","clear_screen","null","null","","","critical","d","c","t","160.6713","232.8713","240","164","164","240","spektor","0.05","h","164","240","240","164","160.6713","232.8713","39360","39360","37415.7294","tc","null","null","null","null","null","null","[3,2]","466.1133860610075","154.3430345266696","476.69807564449036"
"","canvas-keyboard-response","200","256639","0.0-6.0-5.27","563","","","","","make choice","815","2","","","critical","d","c","t","160.6713","232.8713","240","164","164","240","spektor","0.05","h","164","240","240","164","160.6713","232.8713","39360","39360","37415.7294","tc","null","null","null","null","null","null","[3,2]","","",""
"","canvas-keyboard-response","201","256660","0.0-6.0-6.27","563","","","","","clear_screen","null","null","","","critical","d","c","t","160.6713","232.8713","240","164","164","240","spektor","0.05","h","164","240","240","164","160.6713","232.8713","39360","39360","37415.7294","tc","null","null","null","null","null","null","[3,2]","","",""
"","canvas-keyboard-response","202","256861","0.0-6.0-0.28","563","","","","","pre trial waiting period","null","null","","","critical","t","c","d","240","164","164","240","237.1485","162.6685","spektor","0.02","w","240","164","164","240","237.1485","162.6685","39360","39360","38576.5967","tc","null","null","null","null","null","null","[1,2]","520.7256424311057","128.87407603201638","514.7993289298869"
"","canvas-keyboard-response","203","256880","0.0-6.0-1.28","563","","","","","clear_screen","null","null","","","critical","t","c","d","240","164","164","240","237.1485","162.6685","spektor","0.02","w","240","164","164","240","237.1485","162.6685","39360","39360","38576.5967","tc","null","null","null","null","null","null","[1,2]","520.7256424311057","128.87407603201638","514.7993289298869"
"","canvas-keyboard-response","204","257390","0.0-6.0-2.28","563","","","","","rectangles no change","null","null","","","critical","t","c","d","240","164","164","240","237.1485","162.6685","spektor","0.02","w","240","164","164","240","237.1485","162.6685","39360","39360","38576.5967","tc","null","null","null","null","null","null","[1,2]","520.7256424311057","128.87407603201638","514.7993289298869"
"","canvas-keyboard-response","205","258727","0.0-6.0-3.28","563","","","","","rectangles with change","null","null","","","critical","t","c","d","240","164","164","240","237.1485","162.6685","spektor","0.02","w","240","164","164","240","237.1485","162.6685","39360","39360","38576.5967","tc","null","null","null","null","null","null","[1,2]","520.7256424311057","128.87407603201638","514.7993289298869"
"","canvas-keyboard-response","206","258745","0.0-6.0-4.28","563","","","","","clear_screen","null","null","","","critical","t","c","d","240","164","164","240","237.1485","162.6685","spektor","0.02","w","240","164","164","240","237.1485","162.6685","39360","39360","38576.5967","tc","null","null","null","null","null","null","[1,2]","520.7256424311057","128.87407603201638","514.7993289298869"
"","canvas-keyboard-response","207","259144","0.0-6.0-5.28","563","","","","","make choice","390","1","","","critical","t","c","d","240","164","164","240","237.1485","162.6685","spektor","0.02","w","240","164","164","240","237.1485","162.6685","39360","39360","38576.5967","tc","null","null","null","null","null","null","[1,2]","","",""
"","canvas-keyboard-response","208","259162","0.0-6.0-6.28","563","","","","","clear_screen","null","null","","","critical","t","c","d","240","164","164","240","237.1485","162.6685","spektor","0.02","w","240","164","164","240","237.1485","162.6685","39360","39360","38576.5967","tc","null","null","null","null","null","null","[1,2]","","",""
"","canvas-keyboard-response","209","259364","0.0-6.0-0.29","563","","","","","pre trial waiting period","null","null","","","critical","c","d","t","240","164","154.6796","220.0396","164","240","trueblood","0.14","h","164","240","240","164","154.6796","220.0396","39360","39360","34035.6388","tc","null","null","null","null","null","null","[3,1]","515.8424409201567","436.1255040308444","434.6699795546201"
"","canvas-keyboard-response","210","259382","0.0-6.0-1.29","563","","","","","clear_screen","null","null","","","critical","c","d","t","240","164","154.6796","220.0396","164","240","trueblood","0.14","h","164","240","240","164","154.6796","220.0396","39360","39360","34035.6388","tc","null","null","null","null","null","null","[3,1]","515.8424409201567","436.1255040308444","434.6699795546201"
"","canvas-keyboard-response","211","259892","0.0-6.0-2.29","563","","","","","rectangles no change","null","null","","","critical","c","d","t","240","164","154.6796","220.0396","164","240","trueblood","0.14","h","164","240","240","164","154.6796","220.0396","39360","39360","34035.6388","tc","null","null","null","null","null","null","[3,1]","515.8424409201567","436.1255040308444","434.6699795546201"
"","canvas-keyboard-response","212","261227","0.0-6.0-3.29","563","","","","","rectangles with change","null","null","","","critical","c","d","t","240","164","154.6796","220.0396","164","240","trueblood","0.14","h","164","240","240","164","154.6796","220.0396","39360","39360","34035.6388","tc","null","null","null","null","null","null","[3,1]","515.8424409201567","436.1255040308444","434.6699795546201"
"","canvas-keyboard-response","213","261246","0.0-6.0-4.29","563","","","","","clear_screen","null","null","","","critical","c","d","t","240","164","154.6796","220.0396","164","240","trueblood","0.14","h","164","240","240","164","154.6796","220.0396","39360","39360","34035.6388","tc","null","null","null","null","null","null","[3,1]","515.8424409201567","436.1255040308444","434.6699795546201"
"","canvas-keyboard-response","214","262025","0.0-6.0-5.29","563","","","","","make choice","767","1","","","critical","c","d","t","240","164","154.6796","220.0396","164","240","trueblood","0.14","h","164","240","240","164","154.6796","220.0396","39360","39360","34035.6388","tc","null","null","null","null","null","null","[3,1]","","",""
"","canvas-keyboard-response","215","262044","0.0-6.0-6.29","563","","","","","clear_screen","null","null","","","critical","c","d","t","240","164","154.6796","220.0396","164","240","trueblood","0.14","h","164","240","240","164","154.6796","220.0396","39360","39360","34035.6388","tc","null","null","null","null","null","null","[3,1]","","",""
"","canvas-keyboard-response","216","262245","0.0-6.0-0.30","563","","","","","pre trial waiting period","null","null","","","critical","c","t","d","164","240","240","164","232.8713","160.6713","trueblood","0.05","w","240","164","164","240","232.8713","160.6713","39360","39360","37415.7294","tc","null","null","null","null","null","null","[2,1]","456.95099802977103","517.2188242548434","512.9780842385474"
"","canvas-keyboard-response","217","262264","0.0-6.0-1.30","563","","","","","clear_screen","null","null","","","critical","c","t","d","164","240","240","164","232.8713","160.6713","trueblood","0.05","w","240","164","164","240","232.8713","160.6713","39360","39360","37415.7294","tc","null","null","null","null","null","null","[2,1]","456.95099802977103","517.2188242548434","512.9780842385474"
"","canvas-keyboard-response","218","262774","0.0-6.0-2.30","563","","","","","rectangles no change","null","null","","","critical","c","t","d","164","240","240","164","232.8713","160.6713","trueblood","0.05","w","240","164","164","240","232.8713","160.6713","39360","39360","37415.7294","tc","null","null","null","null","null","null","[2,1]","456.95099802977103","517.2188242548434","512.9780842385474"
"","canvas-keyboard-response","219","264110","0.0-6.0-3.30","563","","","","","rectangles with change","null","null","","","critical","c","t","d","164","240","240","164","232.8713","160.6713","trueblood","0.05","w","240","164","164","240","232.8713","160.6713","39360","39360","37415.7294","tc","null","null","null","null","null","null","[2,1]","456.95099802977103","517.2188242548434","512.9780842385474"
"","canvas-keyboard-response","220","264129","0.0-6.0-4.30","563","","","","","clear_screen","null","null","","","critical","c","t","d","164","240","240","164","232.8713","160.6713","trueblood","0.05","w","240","164","164","240","232.8713","160.6713","39360","39360","37415.7294","tc","null","null","null","null","null","null","[2,1]","456.95099802977103","517.2188242548434","512.9780842385474"
"","canvas-keyboard-response","221","264528","0.0-6.0-5.30","563","","","","","make choice","392","2","","","critical","c","t","d","164","240","240","164","232.8713","160.6713","trueblood","0.05","w","240","164","164","240","232.8713","160.6713","39360","39360","37415.7294","tc","null","null","null","null","null","null","[2,1]","","",""
"","canvas-keyboard-response","222","264546","0.0-6.0-6.30","563","","","","","clear_screen","null","null","","","critical","c","t","d","164","240","240","164","232.8713","160.6713","trueblood","0.05","w","240","164","164","240","232.8713","160.6713","39360","39360","37415.7294","tc","null","null","null","null","null","null","[2,1]","","",""
"","canvas-keyboard-response","223","264748","0.0-6.0-0.31","563","","","","","pre trial waiting period","null","null","","","catch","sw","l","sh","180","200","285","175","223","143","trueblood","null","null","null","null","null","null","null","null","null","null","null","","180","200","260","200","36000","52000","[2,3]","472.26723549364357","496.68336358193665","504.24249786235896"
"","canvas-keyboard-response","224","264771","0.0-6.0-1.31","563","","","","","clear_screen","null","null","","","catch","sw","l","sh","180","200","285","175","223","143","trueblood","null","null","null","null","null","null","null","null","null","null","null","","180","200","260","200","36000","52000","[2,3]","472.26723549364357","496.68336358193665","504.24249786235896"
"","canvas-keyboard-response","225","265282","0.0-6.0-2.31","563","","","","","rectangles no change","null","null","","","catch","sw","l","sh","180","200","285","175","223","143","trueblood","null","null","null","null","null","null","null","null","null","null","null","","180","200","260","200","36000","52000","[2,3]","472.26723549364357","496.68336358193665","504.24249786235896"
"","canvas-keyboard-response","226","266618","0.0-6.0-3.31","563","","","","","rectangles with change","null","null","","","catch","sw","l","sh","180","200","285","175","223","143","trueblood","null","null","null","null","null","null","null","null","null","null","null","","180","200","260","200","36000","52000","[2,3]","472.26723549364357","496.68336358193665","504.24249786235896"
"","canvas-keyboard-response","227","266637","0.0-6.0-4.31","563","","","","","clear_screen","null","null","","","catch","sw","l","sh","180","200","285","175","223","143","trueblood","null","null","null","null","null","null","null","null","null","null","null","","180","200","260","200","36000","52000","[2,3]","472.26723549364357","496.68336358193665","504.24249786235896"
"","canvas-keyboard-response","228","267240","0.0-6.0-5.31","563","","","","","make choice","595","2","","","catch","sw","l","sh","180","200","285","175","223","143","trueblood","null","null","null","null","null","null","null","null","null","null","null","","180","200","260","200","36000","52000","[2,3]","","",""
"","canvas-keyboard-response","229","267259","0.0-6.0-6.31","563","","","","","clear_screen","null","null","","","catch","sw","l","sh","180","200","285","175","223","143","trueblood","null","null","null","null","null","null","null","null","null","null","null","","180","200","260","200","36000","52000","[2,3]","","",""
"","canvas-keyboard-response","230","267461","0.0-6.0-0.32","563","","","","","pre trial waiting period","null","null","","","critical","d","c","t","164","240","240","164","164","240","trueblood","0","h","164","240","240","164","164","240","39360","39360","39360","td","null","null","null","null","null","null","[3,1]","430.91464923302277","492.6450612016118","442.01398535727833"
"","canvas-keyboard-response","231","267480","0.0-6.0-1.32","563","","","","","clear_screen","null","null","","","critical","d","c","t","164","240","240","164","164","240","trueblood","0","h","164","240","240","164","164","240","39360","39360","39360","td","null","null","null","null","null","null","[3,1]","430.91464923302277","492.6450612016118","442.01398535727833"
"","canvas-keyboard-response","232","267991","0.0-6.0-2.32","563","","","","","rectangles no change","null","null","","","critical","d","c","t","164","240","240","164","164","240","trueblood","0","h","164","240","240","164","164","240","39360","39360","39360","td","null","null","null","null","null","null","[3,1]","430.91464923302277","492.6450612016118","442.01398535727833"
"","canvas-keyboard-response","233","269325","0.0-6.0-3.32","563","","","","","rectangles with change","null","null","","","critical","d","c","t","164","240","240","164","164","240","trueblood","0","h","164","240","240","164","164","240","39360","39360","39360","td","null","null","null","null","null","null","[3,1]","430.91464923302277","492.6450612016118","442.01398535727833"
"","canvas-keyboard-response","234","269345","0.0-6.0-4.32","563","","","","","clear_screen","null","null","","","critical","d","c","t","164","240","240","164","164","240","trueblood","0","h","164","240","240","164","164","240","39360","39360","39360","td","null","null","null","null","null","null","[3,1]","430.91464923302277","492.6450612016118","442.01398535727833"
"","canvas-keyboard-response","235","269944","0.0-6.0-5.32","563","","","","","make choice","591","1","","","critical","d","c","t","164","240","240","164","164","240","trueblood","0","h","164","240","240","164","164","240","39360","39360","39360","td","null","null","null","null","null","null","[3,1]","","",""
"","canvas-keyboard-response","236","269962","0.0-6.0-6.32","563","","","","","clear_screen","null","null","","","critical","d","c","t","164","240","240","164","164","240","trueblood","0","h","164","240","240","164","164","240","39360","39360","39360","td","null","null","null","null","null","null","[3,1]","","",""
"","canvas-keyboard-response","237","270165","0.0-6.0-0.33","563","","","","","pre trial waiting period","null","null","","","critical","d","c","t","227.1683","158.0083","164","240","240","164","spektor","0.09","w","240","164","164","240","227.1683","158.0083","39360","39360","35894.4834","dc","null","null","null","null","null","null","[1,2]","533.7061985808728","111.16122104148438","494.24500157330436"
"","canvas-keyboard-response","238","270187","0.0-6.0-1.33","563","","","","","clear_screen","null","null","","","critical","d","c","t","227.1683","158.0083","164","240","240","164","spektor","0.09","w","240","164","164","240","227.1683","158.0083","39360","39360","35894.4834","dc","null","null","null","null","null","null","[1,2]","533.7061985808728","111.16122104148438","494.24500157330436"
"","canvas-keyboard-response","239","270699","0.0-6.0-2.33","563","","","","","rectangles no change","null","null","","","critical","d","c","t","227.1683","158.0083","164","240","240","164","spektor","0.09","w","240","164","164","240","227.1683","158.0083","39360","39360","35894.4834","dc","null","null","null","null","null","null","[1,2]","533.7061985808728","111.16122104148438","494.24500157330436"
"","canvas-keyboard-response","240","272037","0.0-6.0-3.33","563","","","","","rectangles with change","null","null","","","critical","d","c","t","227.1683","158.0083","164","240","240","164","spektor","0.09","w","240","164","164","240","227.1683","158.0083","39360","39360","35894.4834","dc","null","null","null","null","null","null","[1,2]","533.7061985808728","111.16122104148438","494.24500157330436"
"","canvas-keyboard-response","241","272057","0.0-6.0-4.33","563","","","","","clear_screen","null","null","","","critical","d","c","t","227.1683","158.0083","164","240","240","164","spektor","0.09","w","240","164","164","240","227.1683","158.0083","39360","39360","35894.4834","dc","null","null","null","null","null","null","[1,2]","533.7061985808728","111.16122104148438","494.24500157330436"
"","canvas-keyboard-response","242","272545","0.0-6.0-5.33","563","","","","","make choice","480","1","","","critical","d","c","t","227.1683","158.0083","164","240","240","164","spektor","0.09","w","240","164","164","240","227.1683","158.0083","39360","39360","35894.4834","dc","null","null","null","null","null","null","[1,2]","","",""
"","canvas-keyboard-response","243","272563","0.0-6.0-6.33","563","","","","","clear_screen","null","null","","","critical","d","c","t","227.1683","158.0083","164","240","240","164","spektor","0.09","w","240","164","164","240","227.1683","158.0083","39360","39360","35894.4834","dc","null","null","null","null","null","null","[1,2]","","",""
"","canvas-keyboard-response","244","272765","0.0-6.0-0.34","563","","","","","pre trial waiting period","null","null","","","catch","sw","sh","l","180","200","218","161","170","231","spektor","null","null","null","null","null","null","null","null","null","null","null","","180","200","260","200","36000","52000","[2,3]","485.5341251482341","166.4526190021977","469.81012382397995"
"","canvas-keyboard-response","245","272786","0.0-6.0-1.34","563","","","","","clear_screen","null","null","","","catch","sw","sh","l","180","200","218","161","170","231","spektor","null","null","null","null","null","null","null","null","null","null","null","","180","200","260","200","36000","52000","[2,3]","485.5341251482341","166.4526190021977","469.81012382397995"
"","canvas-keyboard-response","246","273298","0.0-6.0-2.34","563","","","","","rectangles no change","null","null","","","catch","sw","sh","l","180","200","218","161","170","231","spektor","null","null","null","null","null","null","null","null","null","null","null","","180","200","260","200","36000","52000","[2,3]","485.5341251482341","166.4526190021977","469.81012382397995"
"","canvas-keyboard-response","247","274635","0.0-6.0-3.34","563","","","","","rectangles with change","null","null","","","catch","sw","sh","l","180","200","218","161","170","231","spektor","null","null","null","null","null","null","null","null","null","null","null","","180","200","260","200","36000","52000","[2,3]","485.5341251482341","166.4526190021977","469.81012382397995"
"","canvas-keyboard-response","248","274654","0.0-6.0-4.34","563","","","","","clear_screen","null","null","","","catch","sw","sh","l","180","200","218","161","170","231","spektor","null","null","null","null","null","null","null","null","null","null","null","","180","200","260","200","36000","52000","[2,3]","485.5341251482341","166.4526190021977","469.81012382397995"
"","canvas-keyboard-response","249","274972","0.0-6.0-5.34","563","","","","","make choice","310","3","","","catch","sw","sh","l","180","200","218","161","170","231","spektor","null","null","null","null","null","null","null","null","null","null","null","","180","200","260","200","36000","52000","[2,3]","","",""
"","canvas-keyboard-response","250","274999","0.0-6.0-6.34","563","","","","","clear_screen","null","null","","","catch","sw","sh","l","180","200","218","161","170","231","spektor","null","null","null","null","null","null","null","null","null","null","null","","180","200","260","200","36000","52000","[2,3]","","",""
"","canvas-keyboard-response","251","275200","0.0-6.0-0.35","563","","","","","pre trial waiting period","null","null","","","critical","t","d","c","240","164","227.1683","158.0083","164","240","trueblood","0.09","w","240","164","164","240","227.1683","158.0083","39360","39360","35894.4834","dc","null","null","null","null","null","null","[2,3]","490.5551617826169","501.51566359285306","453.0339622950149"
"","canvas-keyboard-response","252","275221","0.0-6.0-1.35","563","","","","","clear_screen","null","null","","","critical","t","d","c","240","164","227.1683","158.0083","164","240","trueblood","0.09","w","240","164","164","240","227.1683","158.0083","39360","39360","35894.4834","dc","null","null","null","null","null","null","[2,3]","490.5551617826169","501.51566359285306","453.0339622950149"
"","canvas-keyboard-response","253","275731","0.0-6.0-2.35","563","","","","","rectangles no change","null","null","","","critical","t","d","c","240","164","227.1683","158.0083","164","240","trueblood","0.09","w","240","164","164","240","227.1683","158.0083","39360","39360","35894.4834","dc","null","null","null","null","null","null","[2,3]","490.5551617826169","501.51566359285306","453.0339622950149"
"","canvas-keyboard-response","254","277066","0.0-6.0-3.35","563","","","","","rectangles with change","null","null","","","critical","t","d","c","240","164","227.1683","158.0083","164","240","trueblood","0.09","w","240","164","164","240","227.1683","158.0083","39360","39360","35894.4834","dc","null","null","null","null","null","null","[2,3]","490.5551617826169","501.51566359285306","453.0339622950149"
"","canvas-keyboard-response","255","277086","0.0-6.0-4.35","563","","","","","clear_screen","null","null","","","critical","t","d","c","240","164","227.1683","158.0083","164","240","trueblood","0.09","w","240","164","164","240","227.1683","158.0083","39360","39360","35894.4834","dc","null","null","null","null","null","null","[2,3]","490.5551617826169","501.51566359285306","453.0339622950149"
"","canvas-keyboard-response","256","277520","0.0-6.0-5.35","563","","","","","make choice","427","2","","","critical","t","d","c","240","164","227.1683","158.0083","164","240","trueblood","0.09","w","240","164","164","240","227.1683","158.0083","39360","39360","35894.4834","dc","null","null","null","null","null","null","[2,3]","","",""
"","canvas-keyboard-response","257","277539","0.0-6.0-6.35","563","","","","","clear_screen","null","null","","","critical","t","d","c","240","164","227.1683","158.0083","164","240","trueblood","0.09","w","240","164","164","240","227.1683","158.0083","39360","39360","35894.4834","dc","null","null","null","null","null","null","[2,3]","","",""
"","canvas-keyboard-response","258","277740","0.0-6.0-0.36","563","","","","","pre trial waiting period","null","null","","","critical","c","d","t","240","164","158.0083","227.1683","164","240","spektor","0.09","h","164","240","240","164","158.0083","227.1683","39360","39360","35894.4834","dc","null","null","null","null","null","null","[2,1]","520.0229016857346","145.58700319455977","459.28572116381787"
"","canvas-keyboard-response","259","277761","0.0-6.0-1.36","563","","","","","clear_screen","null","null","","","critical","c","d","t","240","164","158.0083","227.1683","164","240","spektor","0.09","h","164","240","240","164","158.0083","227.1683","39360","39360","35894.4834","dc","null","null","null","null","null","null","[2,1]","520.0229016857346","145.58700319455977","459.28572116381787"
"","canvas-keyboard-response","260","278273","0.0-6.0-2.36","563","","","","","rectangles no change","null","null","","","critical","c","d","t","240","164","158.0083","227.1683","164","240","spektor","0.09","h","164","240","240","164","158.0083","227.1683","39360","39360","35894.4834","dc","null","null","null","null","null","null","[2,1]","520.0229016857346","145.58700319455977","459.28572116381787"
"","canvas-keyboard-response","261","279609","0.0-6.0-3.36","563","","","","","rectangles with change","null","null","","","critical","c","d","t","240","164","158.0083","227.1683","164","240","spektor","0.09","h","164","240","240","164","158.0083","227.1683","39360","39360","35894.4834","dc","null","null","null","null","null","null","[2,1]","520.0229016857346","145.58700319455977","459.28572116381787"
"","canvas-keyboard-response","262","279629","0.0-6.0-4.36","563","","","","","clear_screen","null","null","","","critical","c","d","t","240","164","158.0083","227.1683","164","240","spektor","0.09","h","164","240","240","164","158.0083","227.1683","39360","39360","35894.4834","dc","null","null","null","null","null","null","[2,1]","520.0229016857346","145.58700319455977","459.28572116381787"
"","canvas-keyboard-response","263","279953","0.0-6.0-5.36","563","","","","","make choice","312","1","","","critical","c","d","t","240","164","158.0083","227.1683","164","240","spektor","0.09","h","164","240","240","164","158.0083","227.1683","39360","39360","35894.4834","dc","null","null","null","null","null","null","[2,1]","","",""
"","canvas-keyboard-response","264","279971","0.0-6.0-6.36","563","","","","","clear_screen","null","null","","","critical","c","d","t","240","164","158.0083","227.1683","164","240","spektor","0.09","h","164","240","240","164","158.0083","227.1683","39360","39360","35894.4834","dc","null","null","null","null","null","null","[2,1]","","",""
