"success","trial_type","trial_index","time_elapsed","internal_node_id","sub_n","timeout","failed_images","failed_audio","failed_video","screen_id","rt","response","stimulus","view_history","trial","r1","r2","r3","w1","h1","w2","h2","w3","h3","display","tdd","tdo","tw","th","cw","ch","dw","dh","ta","ca","da","probe","csls","csss","clls","clss","sa","la","probe_rects","r1yloc","r2yloc","r3yloc"
"true","fullscreen","0","3684","0.0-0.0","533","","","","","","","","","","","","","","","","","","","","","","","","","","","","","","","","","","","","","","","","","",""
"true","preload","1","3703","0.0-1.0","533","false","[]","[]","[]","img preload","","","","","","","","","","","","","","","","","","","","","","","","","","","","","","","","","","","","",""
"","survey-html-form","2","6610","0.0-2.0","533","","","","","enter-sub-number","2899","{""response"":""533""}","","","","","","","","","","","","","","","","","","","","","","","","","","","","","","","","","","",""
"","image-button-response","3","11885","0.0-3.0","533","","","","","","5207","0","consent.png","","","","","","","","","","","","","","","","","","","","","","","","","","","","","","","","","",""
"","html-button-response","4","14621","0.0-4.0","533","","","","","intro mssg","2730","0","<div style= ""font-size:25px;"" <p> <strong> Welcome! </strong><br> <p style=""color:#8B0000; font-size:25px;""><strong> Please do NOT exit full screen until you are done with the experiment. </strong> </p><p style=""font-size:25px;color:#8B0000;""> <strong> Your data will be lost <br> if you try to go back or refresh the page after the experiment starts. Feel free to click ""previous"" during the instructions, however.</strong> </p><br><p> <strong> Thanks in advance for your contribution to our research! </strong></p>","","","","","","","","","","","","","","","","","","","","","","","","","","","","","","","","","",""
"","instructions","5","58356","0.0-5.0","533","","","","","instructions","43729","","","[{""page_index"":0,""viewing_time"":6289},{""page_index"":1,""viewing_time"":6375},{""page_index"":2,""viewing_time"":2752},{""page_index"":3,""viewing_time"":15656},{""page_index"":4,""viewing_time"":6017},{""page_index"":5,""viewing_time"":2008},{""page_index"":6,""viewing_time"":3136},{""page_index"":7,""viewing_time"":1495}]","","","","","","","","","","","","","","","","","","","","","","","","","","","","","","","","",""
"","canvas-keyboard-response","6","58561","0.0-6.0-0.0","533","","","","","pre trial waiting period","null","null","","","critical","d","t","c","164","240","164","240","240","164","spektor","0","h","164","240","240","164","164","240","39360","39360","39360","tc","null","null","null","null","null","null","[2,3]","471.1336293988183","126.56790944074072","526.1067207107403"
"","canvas-keyboard-response","7","58587","0.0-6.0-1.0","533","","","","","clear_screen","null","null","","","critical","d","t","c","164","240","164","240","240","164","spektor","0","h","164","240","240","164","164","240","39360","39360","39360","tc","null","null","null","null","null","null","[2,3]","471.1336293988183","126.56790944074072","526.1067207107403"
"","canvas-keyboard-response","8","59098","0.0-6.0-2.0","533","","","","","rectangles no change","null","null","","","critical","d","t","c","164","240","164","240","240","164","spektor","0","h","164","240","240","164","164","240","39360","39360","39360","tc","null","null","null","null","null","null","[2,3]","471.1336293988183","126.56790944074072","526.1067207107403"
"","canvas-keyboard-response","9","60438","0.0-6.0-3.0","533","","","","","rectangles with change","null","null","","","critical","d","t","c","164","240","164","240","240","164","spektor","0","h","164","240","240","164","164","240","39360","39360","39360","tc","null","null","null","null","null","null","[2,3]","471.1336293988183","126.56790944074072","526.1067207107403"
"","canvas-keyboard-response","10","60457","0.0-6.0-4.0","533","","","","","clear_screen","null","null","","","critical","d","t","c","164","240","164","240","240","164","spektor","0","h","164","240","240","164","164","240","39360","39360","39360","tc","null","null","null","null","null","null","[2,3]","471.1336293988183","126.56790944074072","526.1067207107403"
"","canvas-keyboard-response","11","62155","0.0-6.0-5.0","533","","","","","make choice","1689","3","","","critical","d","t","c","164","240","164","240","240","164","spektor","0","h","164","240","240","164","164","240","39360","39360","39360","tc","null","null","null","null","null","null","[2,3]","","",""
"","canvas-keyboard-response","12","62174","0.0-6.0-6.0","533","","","","","clear_screen","null","null","","","critical","d","t","c","164","240","164","240","240","164","spektor","0","h","164","240","240","164","164","240","39360","39360","39360","tc","null","null","null","null","null","null","[2,3]","","",""
"","canvas-keyboard-response","13","62376","0.0-6.0-0.1","533","","","","","pre trial waiting period","null","null","","","critical","t","d","c","240","164","227.1683","158.0083","164","240","trueblood","0.09","w","240","164","164","240","227.1683","158.0083","39360","39360","35894.4834","td","null","null","null","null","null","null","[1,2]","512.9872248770041","483.287801055039","422.63527874562817"
"","canvas-keyboard-response","14","62400","0.0-6.0-1.1","533","","","","","clear_screen","null","null","","","critical","t","d","c","240","164","227.1683","158.0083","164","240","trueblood","0.09","w","240","164","164","240","227.1683","158.0083","39360","39360","35894.4834","td","null","null","null","null","null","null","[1,2]","512.9872248770041","483.287801055039","422.63527874562817"
"","canvas-keyboard-response","15","62909","0.0-6.0-2.1","533","","","","","rectangles no change","null","null","","","critical","t","d","c","240","164","227.1683","158.0083","164","240","trueblood","0.09","w","240","164","164","240","227.1683","158.0083","39360","39360","35894.4834","td","null","null","null","null","null","null","[1,2]","512.9872248770041","483.287801055039","422.63527874562817"
"","canvas-keyboard-response","16","64248","0.0-6.0-3.1","533","","","","","rectangles with change","null","null","","","critical","t","d","c","240","164","227.1683","158.0083","164","240","trueblood","0.09","w","240","164","164","240","227.1683","158.0083","39360","39360","35894.4834","td","null","null","null","null","null","null","[1,2]","512.9872248770041","483.287801055039","422.63527874562817"
"","canvas-keyboard-response","17","64273","0.0-6.0-4.1","533","","","","","clear_screen","null","null","","","critical","t","d","c","240","164","227.1683","158.0083","164","240","trueblood","0.09","w","240","164","164","240","227.1683","158.0083","39360","39360","35894.4834","td","null","null","null","null","null","null","[1,2]","512.9872248770041","483.287801055039","422.63527874562817"
"","canvas-keyboard-response","18","64811","0.0-6.0-5.1","533","","","","","make choice","527","1","","","critical","t","d","c","240","164","227.1683","158.0083","164","240","trueblood","0.09","w","240","164","164","240","227.1683","158.0083","39360","39360","35894.4834","td","null","null","null","null","null","null","[1,2]","","",""
"","canvas-keyboard-response","19","64830","0.0-6.0-6.1","533","","","","","clear_screen","null","null","","","critical","t","d","c","240","164","227.1683","158.0083","164","240","trueblood","0.09","w","240","164","164","240","227.1683","158.0083","39360","39360","35894.4834","td","null","null","null","null","null","null","[1,2]","","",""
"","canvas-keyboard-response","20","65032","0.0-6.0-0.2","533","","","","","pre trial waiting period","null","null","","","critical","c","t","d","164","240","240","164","220.0396","154.6796","spektor","0.14","w","240","164","164","240","220.0396","154.6796","39360","39360","34035.6388","dc","null","null","null","null","null","null","[3,1]","491.50036625082754","191.70554719575725","520.302563770489"
"","canvas-keyboard-response","21","65054","0.0-6.0-1.2","533","","","","","clear_screen","null","null","","","critical","c","t","d","164","240","240","164","220.0396","154.6796","spektor","0.14","w","240","164","164","240","220.0396","154.6796","39360","39360","34035.6388","dc","null","null","null","null","null","null","[3,1]","491.50036625082754","191.70554719575725","520.302563770489"
"","canvas-keyboard-response","22","65560","0.0-6.0-2.2","533","","","","","rectangles no change","null","null","","","critical","c","t","d","164","240","240","164","220.0396","154.6796","spektor","0.14","w","240","164","164","240","220.0396","154.6796","39360","39360","34035.6388","dc","null","null","null","null","null","null","[3,1]","491.50036625082754","191.70554719575725","520.302563770489"
"","canvas-keyboard-response","23","66898","0.0-6.0-3.2","533","","","","","rectangles with change","null","null","","","critical","c","t","d","164","240","240","164","220.0396","154.6796","spektor","0.14","w","240","164","164","240","220.0396","154.6796","39360","39360","34035.6388","dc","null","null","null","null","null","null","[3,1]","491.50036625082754","191.70554719575725","520.302563770489"
"","canvas-keyboard-response","24","66919","0.0-6.0-4.2","533","","","","","clear_screen","null","null","","","critical","c","t","d","164","240","240","164","220.0396","154.6796","spektor","0.14","w","240","164","164","240","220.0396","154.6796","39360","39360","34035.6388","dc","null","null","null","null","null","null","[3,1]","491.50036625082754","191.70554719575725","520.302563770489"
"","canvas-keyboard-response","25","67219","0.0-6.0-5.2","533","","","","","make choice","292","3","","","critical","c","t","d","164","240","240","164","220.0396","154.6796","spektor","0.14","w","240","164","164","240","220.0396","154.6796","39360","39360","34035.6388","dc","null","null","null","null","null","null","[3,1]","","",""
"","canvas-keyboard-response","26","67238","0.0-6.0-6.2","533","","","","","clear_screen","null","null","","","critical","c","t","d","164","240","240","164","220.0396","154.6796","spektor","0.14","w","240","164","164","240","220.0396","154.6796","39360","39360","34035.6388","dc","null","null","null","null","null","null","[3,1]","","",""
"","canvas-keyboard-response","27","67439","0.0-6.0-0.3","533","","","","","pre trial waiting period","null","null","","","critical","c","d","t","240","164","158.0083","227.1683","164","240","trueblood","0.09","h","164","240","240","164","158.0083","227.1683","39360","39360","35894.4834","td","null","null","null","null","null","null","[3,2]","490.8584862696538","477.17092812415507","467.2315857707768"
"","canvas-keyboard-response","28","67462","0.0-6.0-1.3","533","","","","","clear_screen","null","null","","","critical","c","d","t","240","164","158.0083","227.1683","164","240","trueblood","0.09","h","164","240","240","164","158.0083","227.1683","39360","39360","35894.4834","td","null","null","null","null","null","null","[3,2]","490.8584862696538","477.17092812415507","467.2315857707768"
"","canvas-keyboard-response","29","67970","0.0-6.0-2.3","533","","","","","rectangles no change","null","null","","","critical","c","d","t","240","164","158.0083","227.1683","164","240","trueblood","0.09","h","164","240","240","164","158.0083","227.1683","39360","39360","35894.4834","td","null","null","null","null","null","null","[3,2]","490.8584862696538","477.17092812415507","467.2315857707768"
"","canvas-keyboard-response","30","69306","0.0-6.0-3.3","533","","","","","rectangles with change","null","null","","","critical","c","d","t","240","164","158.0083","227.1683","164","240","trueblood","0.09","h","164","240","240","164","158.0083","227.1683","39360","39360","35894.4834","td","null","null","null","null","null","null","[3,2]","490.8584862696538","477.17092812415507","467.2315857707768"
"","canvas-keyboard-response","31","69329","0.0-6.0-4.3","533","","","","","clear_screen","null","null","","","critical","c","d","t","240","164","158.0083","227.1683","164","240","trueblood","0.09","h","164","240","240","164","158.0083","227.1683","39360","39360","35894.4834","td","null","null","null","null","null","null","[3,2]","490.8584862696538","477.17092812415507","467.2315857707768"
"","canvas-keyboard-response","32","69691","0.0-6.0-5.3","533","","","","","make choice","354","3","","","critical","c","d","t","240","164","158.0083","227.1683","164","240","trueblood","0.09","h","164","240","240","164","158.0083","227.1683","39360","39360","35894.4834","td","null","null","null","null","null","null","[3,2]","","",""
"","canvas-keyboard-response","33","69713","0.0-6.0-6.3","533","","","","","clear_screen","null","null","","","critical","c","d","t","240","164","158.0083","227.1683","164","240","trueblood","0.09","h","164","240","240","164","158.0083","227.1683","39360","39360","35894.4834","td","null","null","null","null","null","null","[3,2]","","",""
"","canvas-keyboard-response","34","69914","0.0-6.0-0.4","533","","","","","pre trial waiting period","null","null","","","catch","l","sw","sh","274","228","214","185","177","193","spektor","null","null","null","null","null","null","null","null","null","null","null","","180","200","260","200","36000","52000","[1,2]","508.06753989017074","153.0388684069118","514.2174374503923"
"","canvas-keyboard-response","35","69934","0.0-6.0-1.4","533","","","","","clear_screen","null","null","","","catch","l","sw","sh","274","228","214","185","177","193","spektor","null","null","null","null","null","null","null","null","null","null","null","","180","200","260","200","36000","52000","[1,2]","508.06753989017074","153.0388684069118","514.2174374503923"
"","canvas-keyboard-response","36","70441","0.0-6.0-2.4","533","","","","","rectangles no change","null","null","","","catch","l","sw","sh","274","228","214","185","177","193","spektor","null","null","null","null","null","null","null","null","null","null","null","","180","200","260","200","36000","52000","[1,2]","508.06753989017074","153.0388684069118","514.2174374503923"
"","canvas-keyboard-response","37","71779","0.0-6.0-3.4","533","","","","","rectangles with change","null","null","","","catch","l","sw","sh","274","228","214","185","177","193","spektor","null","null","null","null","null","null","null","null","null","null","null","","180","200","260","200","36000","52000","[1,2]","508.06753989017074","153.0388684069118","514.2174374503923"
"","canvas-keyboard-response","38","71801","0.0-6.0-4.4","533","","","","","clear_screen","null","null","","","catch","l","sw","sh","274","228","214","185","177","193","spektor","null","null","null","null","null","null","null","null","null","null","null","","180","200","260","200","36000","52000","[1,2]","508.06753989017074","153.0388684069118","514.2174374503923"
"","canvas-keyboard-response","39","72138","0.0-6.0-5.4","533","","","","","make choice","332","1","","","catch","l","sw","sh","274","228","214","185","177","193","spektor","null","null","null","null","null","null","null","null","null","null","null","","180","200","260","200","36000","52000","[1,2]","","",""
"","canvas-keyboard-response","40","72156","0.0-6.0-6.4","533","","","","","clear_screen","null","null","","","catch","l","sw","sh","274","228","214","185","177","193","spektor","null","null","null","null","null","null","null","null","null","null","null","","180","200","260","200","36000","52000","[1,2]","","",""
"","canvas-keyboard-response","41","72357","0.0-6.0-0.5","533","","","","","pre trial waiting period","null","null","","","critical","t","d","c","240","164","240","164","164","240","spektor","0","w","240","164","164","240","240","164","39360","39360","39360","tc","null","null","null","null","null","null","[1,3]","503.7239730969509","167.01216562651985","500.3117965721652"
"","canvas-keyboard-response","42","72381","0.0-6.0-1.5","533","","","","","clear_screen","null","null","","","critical","t","d","c","240","164","240","164","164","240","spektor","0","w","240","164","164","240","240","164","39360","39360","39360","tc","null","null","null","null","null","null","[1,3]","503.7239730969509","167.01216562651985","500.3117965721652"
"","canvas-keyboard-response","43","72893","0.0-6.0-2.5","533","","","","","rectangles no change","null","null","","","critical","t","d","c","240","164","240","164","164","240","spektor","0","w","240","164","164","240","240","164","39360","39360","39360","tc","null","null","null","null","null","null","[1,3]","503.7239730969509","167.01216562651985","500.3117965721652"
"","canvas-keyboard-response","44","74233","0.0-6.0-3.5","533","","","","","rectangles with change","null","null","","","critical","t","d","c","240","164","240","164","164","240","spektor","0","w","240","164","164","240","240","164","39360","39360","39360","tc","null","null","null","null","null","null","[1,3]","503.7239730969509","167.01216562651985","500.3117965721652"
"","canvas-keyboard-response","45","74253","0.0-6.0-4.5","533","","","","","clear_screen","null","null","","","critical","t","d","c","240","164","240","164","164","240","spektor","0","w","240","164","164","240","240","164","39360","39360","39360","tc","null","null","null","null","null","null","[1,3]","503.7239730969509","167.01216562651985","500.3117965721652"
"","canvas-keyboard-response","46","74282","0.0-6.0-5.5","533","","","","","make choice","22","1","","","critical","t","d","c","240","164","240","164","164","240","spektor","0","w","240","164","164","240","240","164","39360","39360","39360","tc","null","null","null","null","null","null","[1,3]","","",""
"","canvas-keyboard-response","47","74301","0.0-6.0-6.5","533","","","","","clear_screen","null","null","","","critical","t","d","c","240","164","240","164","164","240","spektor","0","w","240","164","164","240","240","164","39360","39360","39360","tc","null","null","null","null","null","null","[1,3]","","",""
"","canvas-keyboard-response","48","74503","0.0-6.0-0.6","533","","","","","pre trial waiting period","null","null","","","critical","c","d","t","164","240","237.1485","162.6685","240","164","spektor","0.02","w","240","164","164","240","237.1485","162.6685","39360","39360","38576.5967","dc","null","null","null","null","null","null","[2,1]","471.65604600578405","183.45105437686044","515.5948018244343"
"","canvas-keyboard-response","49","74525","0.0-6.0-1.6","533","","","","","clear_screen","null","null","","","critical","c","d","t","164","240","237.1485","162.6685","240","164","spektor","0.02","w","240","164","164","240","237.1485","162.6685","39360","39360","38576.5967","dc","null","null","null","null","null","null","[2,1]","471.65604600578405","183.45105437686044","515.5948018244343"
"","canvas-keyboard-response","50","75033","0.0-6.0-2.6","533","","","","","rectangles no change","null","null","","","critical","c","d","t","164","240","237.1485","162.6685","240","164","spektor","0.02","w","240","164","164","240","237.1485","162.6685","39360","39360","38576.5967","dc","null","null","null","null","null","null","[2,1]","471.65604600578405","183.45105437686044","515.5948018244343"
"","canvas-keyboard-response","51","76370","0.0-6.0-3.6","533","","","","","rectangles with change","null","null","","","critical","c","d","t","164","240","237.1485","162.6685","240","164","spektor","0.02","w","240","164","164","240","237.1485","162.6685","39360","39360","38576.5967","dc","null","null","null","null","null","null","[2,1]","471.65604600578405","183.45105437686044","515.5948018244343"
"","canvas-keyboard-response","52","76390","0.0-6.0-4.6","533","","","","","clear_screen","null","null","","","critical","c","d","t","164","240","237.1485","162.6685","240","164","spektor","0.02","w","240","164","164","240","237.1485","162.6685","39360","39360","38576.5967","dc","null","null","null","null","null","null","[2,1]","471.65604600578405","183.45105437686044","515.5948018244343"
"","canvas-keyboard-response","53","76771","0.0-6.0-5.6","533","","","","","make choice","374","2","","","critical","c","d","t","164","240","237.1485","162.6685","240","164","spektor","0.02","w","240","164","164","240","237.1485","162.6685","39360","39360","38576.5967","dc","null","null","null","null","null","null","[2,1]","","",""
"","canvas-keyboard-response","54","76790","0.0-6.0-6.6","533","","","","","clear_screen","null","null","","","critical","c","d","t","164","240","237.1485","162.6685","240","164","spektor","0.02","w","240","164","164","240","237.1485","162.6685","39360","39360","38576.5967","dc","null","null","null","null","null","null","[2,1]","","",""
"","canvas-keyboard-response","55","76990","0.0-6.0-0.7","533","","","","","pre trial waiting period","null","null","","","catch","sw","sh","l","180","200","184","208","189","295","spektor","null","null","null","null","null","null","null","null","null","null","null","","180","200","260","200","36000","52000","[2,3]","478.7162879208793","99.71085205452457","432.1595666412755"
"","canvas-keyboard-response","56","77010","0.0-6.0-1.7","533","","","","","clear_screen","null","null","","","catch","sw","sh","l","180","200","184","208","189","295","spektor","null","null","null","null","null","null","null","null","null","null","null","","180","200","260","200","36000","52000","[2,3]","478.7162879208793","99.71085205452457","432.1595666412755"
"","canvas-keyboard-response","57","77517","0.0-6.0-2.7","533","","","","","rectangles no change","null","null","","","catch","sw","sh","l","180","200","184","208","189","295","spektor","null","null","null","null","null","null","null","null","null","null","null","","180","200","260","200","36000","52000","[2,3]","478.7162879208793","99.71085205452457","432.1595666412755"
"","canvas-keyboard-response","58","78857","0.0-6.0-3.7","533","","","","","rectangles with change","null","null","","","catch","sw","sh","l","180","200","184","208","189","295","spektor","null","null","null","null","null","null","null","null","null","null","null","","180","200","260","200","36000","52000","[2,3]","478.7162879208793","99.71085205452457","432.1595666412755"
"","canvas-keyboard-response","59","78880","0.0-6.0-4.7","533","","","","","clear_screen","null","null","","","catch","sw","sh","l","180","200","184","208","189","295","spektor","null","null","null","null","null","null","null","null","null","null","null","","180","200","260","200","36000","52000","[2,3]","478.7162879208793","99.71085205452457","432.1595666412755"
"","canvas-keyboard-response","60","78955","0.0-6.0-5.7","533","","","","","make choice","68","3","","","catch","sw","sh","l","180","200","184","208","189","295","spektor","null","null","null","null","null","null","null","null","null","null","null","","180","200","260","200","36000","52000","[2,3]","","",""
"","canvas-keyboard-response","61","78973","0.0-6.0-6.7","533","","","","","clear_screen","null","null","","","catch","sw","sh","l","180","200","184","208","189","295","spektor","null","null","null","null","null","null","null","null","null","null","null","","180","200","260","200","36000","52000","[2,3]","","",""
"","canvas-keyboard-response","62","79174","0.0-6.0-0.8","533","","","","","pre trial waiting period","null","null","","","critical","t","d","c","240","164","227.1683","158.0083","164","240","trueblood","0.09","w","240","164","164","240","227.1683","158.0083","39360","39360","35894.4834","dc","null","null","null","null","null","null","[2,3]","514.3942183625392","507.5975792202017","433.23144097020736"
"","canvas-keyboard-response","63","79194","0.0-6.0-1.8","533","","","","","clear_screen","null","null","","","critical","t","d","c","240","164","227.1683","158.0083","164","240","trueblood","0.09","w","240","164","164","240","227.1683","158.0083","39360","39360","35894.4834","dc","null","null","null","null","null","null","[2,3]","514.3942183625392","507.5975792202017","433.23144097020736"
"","canvas-keyboard-response","64","79702","0.0-6.0-2.8","533","","","","","rectangles no change","null","null","","","critical","t","d","c","240","164","227.1683","158.0083","164","240","trueblood","0.09","w","240","164","164","240","227.1683","158.0083","39360","39360","35894.4834","dc","null","null","null","null","null","null","[2,3]","514.3942183625392","507.5975792202017","433.23144097020736"
"","canvas-keyboard-response","65","81033","0.0-6.0-3.8","533","","","","","rectangles with change","null","null","","","critical","t","d","c","240","164","227.1683","158.0083","164","240","trueblood","0.09","w","240","164","164","240","227.1683","158.0083","39360","39360","35894.4834","dc","null","null","null","null","null","null","[2,3]","514.3942183625392","507.5975792202017","433.23144097020736"
"","canvas-keyboard-response","66","81046","0.0-6.0-4.8","533","","","","","clear_screen","1","2","","","critical","t","d","c","240","164","227.1683","158.0083","164","240","trueblood","0.09","w","240","164","164","240","227.1683","158.0083","39360","39360","35894.4834","dc","null","null","null","null","null","null","[2,3]","514.3942183625392","507.5975792202017","433.23144097020736"
"","canvas-keyboard-response","67","81747","0.0-6.0-5.8","533","","","","","make choice","697","2","","","critical","t","d","c","240","164","227.1683","158.0083","164","240","trueblood","0.09","w","240","164","164","240","227.1683","158.0083","39360","39360","35894.4834","dc","null","null","null","null","null","null","[2,3]","","",""
"","canvas-keyboard-response","68","81768","0.0-6.0-6.8","533","","","","","clear_screen","null","null","","","critical","t","d","c","240","164","227.1683","158.0083","164","240","trueblood","0.09","w","240","164","164","240","227.1683","158.0083","39360","39360","35894.4834","dc","null","null","null","null","null","null","[2,3]","","",""
"","canvas-keyboard-response","69","81968","0.0-6.0-0.9","533","","","","","pre trial waiting period","null","null","","","critical","d","t","c","232.8713","160.6713","240","164","164","240","trueblood","0.05","w","240","164","164","240","232.8713","160.6713","39360","39360","37415.7294","dc","null","null","null","null","null","null","[1,3]","478.94902299924263","494.1560969857831","461.5579896656264"
"","canvas-keyboard-response","70","81988","0.0-6.0-1.9","533","","","","","clear_screen","null","null","","","critical","d","t","c","232.8713","160.6713","240","164","164","240","trueblood","0.05","w","240","164","164","240","232.8713","160.6713","39360","39360","37415.7294","dc","null","null","null","null","null","null","[1,3]","478.94902299924263","494.1560969857831","461.5579896656264"
"","canvas-keyboard-response","71","82497","0.0-6.0-2.9","533","","","","","rectangles no change","null","null","","","critical","d","t","c","232.8713","160.6713","240","164","164","240","trueblood","0.05","w","240","164","164","240","232.8713","160.6713","39360","39360","37415.7294","dc","null","null","null","null","null","null","[1,3]","478.94902299924263","494.1560969857831","461.5579896656264"
"","canvas-keyboard-response","72","83832","0.0-6.0-3.9","533","","","","","rectangles with change","null","null","","","critical","d","t","c","232.8713","160.6713","240","164","164","240","trueblood","0.05","w","240","164","164","240","232.8713","160.6713","39360","39360","37415.7294","dc","null","null","null","null","null","null","[1,3]","478.94902299924263","494.1560969857831","461.5579896656264"
"","canvas-keyboard-response","73","83844","0.0-6.0-4.9","533","","","","","clear_screen","1","1","","","critical","d","t","c","232.8713","160.6713","240","164","164","240","trueblood","0.05","w","240","164","164","240","232.8713","160.6713","39360","39360","37415.7294","dc","null","null","null","null","null","null","[1,3]","478.94902299924263","494.1560969857831","461.5579896656264"
"","canvas-keyboard-response","74","84804","0.0-6.0-5.9","533","","","","","make choice","955","1","","","critical","d","t","c","232.8713","160.6713","240","164","164","240","trueblood","0.05","w","240","164","164","240","232.8713","160.6713","39360","39360","37415.7294","dc","null","null","null","null","null","null","[1,3]","","",""
"","canvas-keyboard-response","75","84822","0.0-6.0-6.9","533","","","","","clear_screen","null","null","","","critical","d","t","c","232.8713","160.6713","240","164","164","240","trueblood","0.05","w","240","164","164","240","232.8713","160.6713","39360","39360","37415.7294","dc","null","null","null","null","null","null","[1,3]","","",""
"","canvas-keyboard-response","76","85023","0.0-6.0-0.10","533","","","","","pre trial waiting period","null","null","","","critical","c","d","t","240","164","154.6796","220.0396","164","240","spektor","0.14","h","164","240","240","164","154.6796","220.0396","39360","39360","34035.6388","td","null","null","null","null","null","null","[3,2]","512.9484460955191","142.50326317522735","485.6003089309138"
"","canvas-keyboard-response","77","85049","0.0-6.0-1.10","533","","","","","clear_screen","null","null","","","critical","c","d","t","240","164","154.6796","220.0396","164","240","spektor","0.14","h","164","240","240","164","154.6796","220.0396","39360","39360","34035.6388","td","null","null","null","null","null","null","[3,2]","512.9484460955191","142.50326317522735","485.6003089309138"
"","canvas-keyboard-response","78","85557","0.0-6.0-2.10","533","","","","","rectangles no change","null","null","","","critical","c","d","t","240","164","154.6796","220.0396","164","240","spektor","0.14","h","164","240","240","164","154.6796","220.0396","39360","39360","34035.6388","td","null","null","null","null","null","null","[3,2]","512.9484460955191","142.50326317522735","485.6003089309138"
"","canvas-keyboard-response","79","86896","0.0-6.0-3.10","533","","","","","rectangles with change","null","null","","","critical","c","d","t","240","164","154.6796","220.0396","164","240","spektor","0.14","h","164","240","240","164","154.6796","220.0396","39360","39360","34035.6388","td","null","null","null","null","null","null","[3,2]","512.9484460955191","142.50326317522735","485.6003089309138"
"","canvas-keyboard-response","80","86917","0.0-6.0-4.10","533","","","","","clear_screen","null","null","","","critical","c","d","t","240","164","154.6796","220.0396","164","240","spektor","0.14","h","164","240","240","164","154.6796","220.0396","39360","39360","34035.6388","td","null","null","null","null","null","null","[3,2]","512.9484460955191","142.50326317522735","485.6003089309138"
"","canvas-keyboard-response","81","87355","0.0-6.0-5.10","533","","","","","make choice","431","3","","","critical","c","d","t","240","164","154.6796","220.0396","164","240","spektor","0.14","h","164","240","240","164","154.6796","220.0396","39360","39360","34035.6388","td","null","null","null","null","null","null","[3,2]","","",""
"","canvas-keyboard-response","82","87373","0.0-6.0-6.10","533","","","","","clear_screen","null","null","","","critical","c","d","t","240","164","154.6796","220.0396","164","240","spektor","0.14","h","164","240","240","164","154.6796","220.0396","39360","39360","34035.6388","td","null","null","null","null","null","null","[3,2]","","",""
"","canvas-keyboard-response","83","87575","0.0-6.0-0.11","533","","","","","pre trial waiting period","null","null","","","critical","d","c","t","158.0083","227.1683","240","164","164","240","spektor","0.09","h","164","240","240","164","158.0083","227.1683","39360","39360","35894.4834","dc","null","null","null","null","null","null","[1,2]","499.8083041978382","163.60216785340896","463.3166119719961"
"","canvas-keyboard-response","84","87594","0.0-6.0-1.11","533","","","","","clear_screen","null","null","","","critical","d","c","t","158.0083","227.1683","240","164","164","240","spektor","0.09","h","164","240","240","164","158.0083","227.1683","39360","39360","35894.4834","dc","null","null","null","null","null","null","[1,2]","499.8083041978382","163.60216785340896","463.3166119719961"
"","canvas-keyboard-response","85","88101","0.0-6.0-2.11","533","","","","","rectangles no change","null","null","","","critical","d","c","t","158.0083","227.1683","240","164","164","240","spektor","0.09","h","164","240","240","164","158.0083","227.1683","39360","39360","35894.4834","dc","null","null","null","null","null","null","[1,2]","499.8083041978382","163.60216785340896","463.3166119719961"
"","canvas-keyboard-response","86","89438","0.0-6.0-3.11","533","","","","","rectangles with change","null","null","","","critical","d","c","t","158.0083","227.1683","240","164","164","240","spektor","0.09","h","164","240","240","164","158.0083","227.1683","39360","39360","35894.4834","dc","null","null","null","null","null","null","[1,2]","499.8083041978382","163.60216785340896","463.3166119719961"
"","canvas-keyboard-response","87","89457","0.0-6.0-4.11","533","","","","","clear_screen","null","null","","","critical","d","c","t","158.0083","227.1683","240","164","164","240","spektor","0.09","h","164","240","240","164","158.0083","227.1683","39360","39360","35894.4834","dc","null","null","null","null","null","null","[1,2]","499.8083041978382","163.60216785340896","463.3166119719961"
"","canvas-keyboard-response","88","89851","0.0-6.0-5.11","533","","","","","make choice","386","2","","","critical","d","c","t","158.0083","227.1683","240","164","164","240","spektor","0.09","h","164","240","240","164","158.0083","227.1683","39360","39360","35894.4834","dc","null","null","null","null","null","null","[1,2]","","",""
"","canvas-keyboard-response","89","89868","0.0-6.0-6.11","533","","","","","clear_screen","null","null","","","critical","d","c","t","158.0083","227.1683","240","164","164","240","spektor","0.09","h","164","240","240","164","158.0083","227.1683","39360","39360","35894.4834","dc","null","null","null","null","null","null","[1,2]","","",""
"","canvas-keyboard-response","90","90070","0.0-6.0-0.12","533","","","","","pre trial waiting period","null","null","","","critical","c","d","t","164","240","237.1485","162.6685","240","164","trueblood","0.02","w","240","164","164","240","237.1485","162.6685","39360","39360","38576.5967","td","null","null","null","null","null","null","[3,2]","426.77429982802204","514.1049604034886","515.4503637683578"
"","canvas-keyboard-response","91","90092","0.0-6.0-1.12","533","","","","","clear_screen","null","null","","","critical","c","d","t","164","240","237.1485","162.6685","240","164","trueblood","0.02","w","240","164","164","240","237.1485","162.6685","39360","39360","38576.5967","td","null","null","null","null","null","null","[3,2]","426.77429982802204","514.1049604034886","515.4503637683578"
"","canvas-keyboard-response","92","90601","0.0-6.0-2.12","533","","","","","rectangles no change","null","null","","","critical","c","d","t","164","240","237.1485","162.6685","240","164","trueblood","0.02","w","240","164","164","240","237.1485","162.6685","39360","39360","38576.5967","td","null","null","null","null","null","null","[3,2]","426.77429982802204","514.1049604034886","515.4503637683578"
"","canvas-keyboard-response","93","91938","0.0-6.0-3.12","533","","","","","rectangles with change","null","null","","","critical","c","d","t","164","240","237.1485","162.6685","240","164","trueblood","0.02","w","240","164","164","240","237.1485","162.6685","39360","39360","38576.5967","td","null","null","null","null","null","null","[3,2]","426.77429982802204","514.1049604034886","515.4503637683578"
"","canvas-keyboard-response","94","91957","0.0-6.0-4.12","533","","","","","clear_screen","null","null","","","critical","c","d","t","164","240","237.1485","162.6685","240","164","trueblood","0.02","w","240","164","164","240","237.1485","162.6685","39360","39360","38576.5967","td","null","null","null","null","null","null","[3,2]","426.77429982802204","514.1049604034886","515.4503637683578"
"","canvas-keyboard-response","95","92362","0.0-6.0-5.12","533","","","","","make choice","399","3","","","critical","c","d","t","164","240","237.1485","162.6685","240","164","trueblood","0.02","w","240","164","164","240","237.1485","162.6685","39360","39360","38576.5967","td","null","null","null","null","null","null","[3,2]","","",""
"","canvas-keyboard-response","96","92382","0.0-6.0-6.12","533","","","","","clear_screen","null","null","","","critical","c","d","t","164","240","237.1485","162.6685","240","164","trueblood","0.02","w","240","164","164","240","237.1485","162.6685","39360","39360","38576.5967","td","null","null","null","null","null","null","[3,2]","","",""
"","canvas-keyboard-response","97","92583","0.0-6.0-0.13","533","","","","","pre trial waiting period","null","null","","","critical","t","d","c","164","240","158.0083","227.1683","240","164","spektor","0.09","h","164","240","240","164","158.0083","227.1683","39360","39360","35894.4834","td","null","null","null","null","null","null","[1,2]","475.9391657242555","104.978325968134","511.7262368016063"
"","canvas-keyboard-response","98","92605","0.0-6.0-1.13","533","","","","","clear_screen","null","null","","","critical","t","d","c","164","240","158.0083","227.1683","240","164","spektor","0.09","h","164","240","240","164","158.0083","227.1683","39360","39360","35894.4834","td","null","null","null","null","null","null","[1,2]","475.9391657242555","104.978325968134","511.7262368016063"
"","canvas-keyboard-response","99","93115","0.0-6.0-2.13","533","","","","","rectangles no change","null","null","","","critical","t","d","c","164","240","158.0083","227.1683","240","164","spektor","0.09","h","164","240","240","164","158.0083","227.1683","39360","39360","35894.4834","td","null","null","null","null","null","null","[1,2]","475.9391657242555","104.978325968134","511.7262368016063"
"","canvas-keyboard-response","100","94454","0.0-6.0-3.13","533","","","","","rectangles with change","null","null","","","critical","t","d","c","164","240","158.0083","227.1683","240","164","spektor","0.09","h","164","240","240","164","158.0083","227.1683","39360","39360","35894.4834","td","null","null","null","null","null","null","[1,2]","475.9391657242555","104.978325968134","511.7262368016063"
"","canvas-keyboard-response","101","94471","0.0-6.0-4.13","533","","","","","clear_screen","null","null","","","critical","t","d","c","164","240","158.0083","227.1683","240","164","spektor","0.09","h","164","240","240","164","158.0083","227.1683","39360","39360","35894.4834","td","null","null","null","null","null","null","[1,2]","475.9391657242555","104.978325968134","511.7262368016063"
"","canvas-keyboard-response","102","95075","0.0-6.0-5.13","533","","","","","make choice","599","1","","","critical","t","d","c","164","240","158.0083","227.1683","240","164","spektor","0.09","h","164","240","240","164","158.0083","227.1683","39360","39360","35894.4834","td","null","null","null","null","null","null","[1,2]","","",""
"","canvas-keyboard-response","103","95093","0.0-6.0-6.13","533","","","","","clear_screen","null","null","","","critical","t","d","c","164","240","158.0083","227.1683","240","164","spektor","0.09","h","164","240","240","164","158.0083","227.1683","39360","39360","35894.4834","td","null","null","null","null","null","null","[1,2]","","",""
"","canvas-keyboard-response","104","95294","0.0-6.0-0.14","533","","","","","pre trial waiting period","null","null","","","critical","c","d","t","164","240","232.8713","160.6713","240","164","trueblood","0.05","w","240","164","164","240","232.8713","160.6713","39360","39360","37415.7294","td","null","null","null","null","null","null","[3,2]","420.6812240381272","496.2504678455682","490.2396652718413"
"","canvas-keyboard-response","105","95313","0.0-6.0-1.14","533","","","","","clear_screen","null","null","","","critical","c","d","t","164","240","232.8713","160.6713","240","164","trueblood","0.05","w","240","164","164","240","232.8713","160.6713","39360","39360","37415.7294","td","null","null","null","null","null","null","[3,2]","420.6812240381272","496.2504678455682","490.2396652718413"
"","canvas-keyboard-response","106","95822","0.0-6.0-2.14","533","","","","","rectangles no change","null","null","","","critical","c","d","t","164","240","232.8713","160.6713","240","164","trueblood","0.05","w","240","164","164","240","232.8713","160.6713","39360","39360","37415.7294","td","null","null","null","null","null","null","[3,2]","420.6812240381272","496.2504678455682","490.2396652718413"
"","canvas-keyboard-response","107","97158","0.0-6.0-3.14","533","","","","","rectangles with change","null","null","","","critical","c","d","t","164","240","232.8713","160.6713","240","164","trueblood","0.05","w","240","164","164","240","232.8713","160.6713","39360","39360","37415.7294","td","null","null","null","null","null","null","[3,2]","420.6812240381272","496.2504678455682","490.2396652718413"
"","canvas-keyboard-response","108","97178","0.0-6.0-4.14","533","","","","","clear_screen","null","null","","","critical","c","d","t","164","240","232.8713","160.6713","240","164","trueblood","0.05","w","240","164","164","240","232.8713","160.6713","39360","39360","37415.7294","td","null","null","null","null","null","null","[3,2]","420.6812240381272","496.2504678455682","490.2396652718413"
"","canvas-keyboard-response","109","97979","0.0-6.0-5.14","533","","","","","make choice","794","3","","","critical","c","d","t","164","240","232.8713","160.6713","240","164","trueblood","0.05","w","240","164","164","240","232.8713","160.6713","39360","39360","37415.7294","td","null","null","null","null","null","null","[3,2]","","",""
"","canvas-keyboard-response","110","97997","0.0-6.0-6.14","533","","","","","clear_screen","null","null","","","critical","c","d","t","164","240","232.8713","160.6713","240","164","trueblood","0.05","w","240","164","164","240","232.8713","160.6713","39360","39360","37415.7294","td","null","null","null","null","null","null","[3,2]","","",""
"","canvas-keyboard-response","111","98198","0.0-6.0-0.15","533","","","","","pre trial waiting period","null","null","","","critical","d","t","c","240","164","240","164","164","240","trueblood","0","w","240","164","164","240","240","164","39360","39360","39360","td","null","null","null","null","null","null","[2,1]","500.3089651439985","501.99666351081044","457.59201209111484"
"","canvas-keyboard-response","112","98221","0.0-6.0-1.15","533","","","","","clear_screen","null","null","","","critical","d","t","c","240","164","240","164","164","240","trueblood","0","w","240","164","164","240","240","164","39360","39360","39360","td","null","null","null","null","null","null","[2,1]","500.3089651439985","501.99666351081044","457.59201209111484"
"","canvas-keyboard-response","113","98730","0.0-6.0-2.15","533","","","","","rectangles no change","null","null","","","critical","d","t","c","240","164","240","164","164","240","trueblood","0","w","240","164","164","240","240","164","39360","39360","39360","td","null","null","null","null","null","null","[2,1]","500.3089651439985","501.99666351081044","457.59201209111484"
"","canvas-keyboard-response","114","100067","0.0-6.0-3.15","533","","","","","rectangles with change","null","null","","","critical","d","t","c","240","164","240","164","164","240","trueblood","0","w","240","164","164","240","240","164","39360","39360","39360","td","null","null","null","null","null","null","[2,1]","500.3089651439985","501.99666351081044","457.59201209111484"
"","canvas-keyboard-response","115","100088","0.0-6.0-4.15","533","","","","","clear_screen","null","null","","","critical","d","t","c","240","164","240","164","164","240","trueblood","0","w","240","164","164","240","240","164","39360","39360","39360","td","null","null","null","null","null","null","[2,1]","500.3089651439985","501.99666351081044","457.59201209111484"
"","canvas-keyboard-response","116","100587","0.0-6.0-5.15","533","","","","","make choice","491","1","","","critical","d","t","c","240","164","240","164","164","240","trueblood","0","w","240","164","164","240","240","164","39360","39360","39360","td","null","null","null","null","null","null","[2,1]","","",""
"","canvas-keyboard-response","117","100605","0.0-6.0-6.15","533","","","","","clear_screen","null","null","","","critical","d","t","c","240","164","240","164","164","240","trueblood","0","w","240","164","164","240","240","164","39360","39360","39360","td","null","null","null","null","null","null","[2,1]","","",""
"","canvas-keyboard-response","118","100806","0.0-6.0-0.16","533","","","","","pre trial waiting period","null","null","","","catch","sw","l","sh","180","200","205","263","217","175","trueblood","null","null","null","null","null","null","null","null","null","null","null","","180","200","260","200","36000","52000","[2,3]","494.17509027807165","439.01023613514445","483.7516525444191"
"","canvas-keyboard-response","119","100829","0.0-6.0-1.16","533","","","","","clear_screen","null","null","","","catch","sw","l","sh","180","200","205","263","217","175","trueblood","null","null","null","null","null","null","null","null","null","null","null","","180","200","260","200","36000","52000","[2,3]","494.17509027807165","439.01023613514445","483.7516525444191"
"","canvas-keyboard-response","120","101336","0.0-6.0-2.16","533","","","","","rectangles no change","null","null","","","catch","sw","l","sh","180","200","205","263","217","175","trueblood","null","null","null","null","null","null","null","null","null","null","null","","180","200","260","200","36000","52000","[2,3]","494.17509027807165","439.01023613514445","483.7516525444191"
"","canvas-keyboard-response","121","102674","0.0-6.0-3.16","533","","","","","rectangles with change","null","null","","","catch","sw","l","sh","180","200","205","263","217","175","trueblood","null","null","null","null","null","null","null","null","null","null","null","","180","200","260","200","36000","52000","[2,3]","494.17509027807165","439.01023613514445","483.7516525444191"
"","canvas-keyboard-response","122","102697","0.0-6.0-4.16","533","","","","","clear_screen","null","null","","","catch","sw","l","sh","180","200","205","263","217","175","trueblood","null","null","null","null","null","null","null","null","null","null","null","","180","200","260","200","36000","52000","[2,3]","494.17509027807165","439.01023613514445","483.7516525444191"
"","canvas-keyboard-response","123","103003","0.0-6.0-5.16","533","","","","","make choice","300","2","","","catch","sw","l","sh","180","200","205","263","217","175","trueblood","null","null","null","null","null","null","null","null","null","null","null","","180","200","260","200","36000","52000","[2,3]","","",""
"","canvas-keyboard-response","124","103022","0.0-6.0-6.16","533","","","","","clear_screen","null","null","","","catch","sw","l","sh","180","200","205","263","217","175","trueblood","null","null","null","null","null","null","null","null","null","null","null","","180","200","260","200","36000","52000","[2,3]","","",""
"","canvas-keyboard-response","125","103222","0.0-6.0-0.17","533","","","","","pre trial waiting period","null","null","","","critical","c","d","t","164","240","232.8713","160.6713","240","164","spektor","0.05","w","240","164","164","240","232.8713","160.6713","39360","39360","37415.7294","tc","null","null","null","null","null","null","[3,1]","478.06077491666224","195.23363894614002","493.16313588089145"
"","canvas-keyboard-response","126","103245","0.0-6.0-1.17","533","","","","","clear_screen","null","null","","","critical","c","d","t","164","240","232.8713","160.6713","240","164","spektor","0.05","w","240","164","164","240","232.8713","160.6713","39360","39360","37415.7294","tc","null","null","null","null","null","null","[3,1]","478.06077491666224","195.23363894614002","493.16313588089145"
"","canvas-keyboard-response","127","103753","0.0-6.0-2.17","533","","","","","rectangles no change","null","null","","","critical","c","d","t","164","240","232.8713","160.6713","240","164","spektor","0.05","w","240","164","164","240","232.8713","160.6713","39360","39360","37415.7294","tc","null","null","null","null","null","null","[3,1]","478.06077491666224","195.23363894614002","493.16313588089145"
"","canvas-keyboard-response","128","105093","0.0-6.0-3.17","533","","","","","rectangles with change","null","null","","","critical","c","d","t","164","240","232.8713","160.6713","240","164","spektor","0.05","w","240","164","164","240","232.8713","160.6713","39360","39360","37415.7294","tc","null","null","null","null","null","null","[3,1]","478.06077491666224","195.23363894614002","493.16313588089145"
"","canvas-keyboard-response","129","105117","0.0-6.0-4.17","533","","","","","clear_screen","null","null","","","critical","c","d","t","164","240","232.8713","160.6713","240","164","spektor","0.05","w","240","164","164","240","232.8713","160.6713","39360","39360","37415.7294","tc","null","null","null","null","null","null","[3,1]","478.06077491666224","195.23363894614002","493.16313588089145"
"","canvas-keyboard-response","130","105466","0.0-6.0-5.17","533","","","","","make choice","343","3","","","critical","c","d","t","164","240","232.8713","160.6713","240","164","spektor","0.05","w","240","164","164","240","232.8713","160.6713","39360","39360","37415.7294","tc","null","null","null","null","null","null","[3,1]","","",""
"","canvas-keyboard-response","131","105486","0.0-6.0-6.17","533","","","","","clear_screen","null","null","","","critical","c","d","t","164","240","232.8713","160.6713","240","164","spektor","0.05","w","240","164","164","240","232.8713","160.6713","39360","39360","37415.7294","tc","null","null","null","null","null","null","[3,1]","","",""
"","canvas-keyboard-response","132","105687","0.0-6.0-0.18","533","","","","","pre trial waiting period","null","null","","","critical","t","c","d","164","240","240","164","154.6796","220.0396","trueblood","0.14","h","164","240","240","164","154.6796","220.0396","39360","39360","34035.6388","dc","null","null","null","null","null","null","[3,2]","429.16767825042456","484.4014848790929","447.25292334369396"
"","canvas-keyboard-response","133","105710","0.0-6.0-1.18","533","","","","","clear_screen","null","null","","","critical","t","c","d","164","240","240","164","154.6796","220.0396","trueblood","0.14","h","164","240","240","164","154.6796","220.0396","39360","39360","34035.6388","dc","null","null","null","null","null","null","[3,2]","429.16767825042456","484.4014848790929","447.25292334369396"
"","canvas-keyboard-response","134","106218","0.0-6.0-2.18","533","","","","","rectangles no change","null","null","","","critical","t","c","d","164","240","240","164","154.6796","220.0396","trueblood","0.14","h","164","240","240","164","154.6796","220.0396","39360","39360","34035.6388","dc","null","null","null","null","null","null","[3,2]","429.16767825042456","484.4014848790929","447.25292334369396"
"","canvas-keyboard-response","135","107557","0.0-6.0-3.18","533","","","","","rectangles with change","null","null","","","critical","t","c","d","164","240","240","164","154.6796","220.0396","trueblood","0.14","h","164","240","240","164","154.6796","220.0396","39360","39360","34035.6388","dc","null","null","null","null","null","null","[3,2]","429.16767825042456","484.4014848790929","447.25292334369396"
"","canvas-keyboard-response","136","107580","0.0-6.0-4.18","533","","","","","clear_screen","null","null","","","critical","t","c","d","164","240","240","164","154.6796","220.0396","trueblood","0.14","h","164","240","240","164","154.6796","220.0396","39360","39360","34035.6388","dc","null","null","null","null","null","null","[3,2]","429.16767825042456","484.4014848790929","447.25292334369396"
"","canvas-keyboard-response","137","108131","0.0-6.0-5.18","533","","","","","make choice","544","2","","","critical","t","c","d","164","240","240","164","154.6796","220.0396","trueblood","0.14","h","164","240","240","164","154.6796","220.0396","39360","39360","34035.6388","dc","null","null","null","null","null","null","[3,2]","","",""
"","canvas-keyboard-response","138","108153","0.0-6.0-6.18","533","","","","","clear_screen","null","null","","","critical","t","c","d","164","240","240","164","154.6796","220.0396","trueblood","0.14","h","164","240","240","164","154.6796","220.0396","39360","39360","34035.6388","dc","null","null","null","null","null","null","[3,2]","","",""
"","canvas-keyboard-response","139","108353","0.0-6.0-0.19","533","","","","","pre trial waiting period","null","null","","","catch","l","sw","sh","227","231","197","216","228","167","spektor","null","null","null","null","null","null","null","null","null","null","null","","180","200","260","200","36000","52000","[1,3]","497.90324536603475","132.41415737086038","530.4861151739807"
"","canvas-keyboard-response","140","108377","0.0-6.0-1.19","533","","","","","clear_screen","null","null","","","catch","l","sw","sh","227","231","197","216","228","167","spektor","null","null","null","null","null","null","null","null","null","null","null","","180","200","260","200","36000","52000","[1,3]","497.90324536603475","132.41415737086038","530.4861151739807"
"","canvas-keyboard-response","141","108885","0.0-6.0-2.19","533","","","","","rectangles no change","null","null","","","catch","l","sw","sh","227","231","197","216","228","167","spektor","null","null","null","null","null","null","null","null","null","null","null","","180","200","260","200","36000","52000","[1,3]","497.90324536603475","132.41415737086038","530.4861151739807"
"","canvas-keyboard-response","142","110225","0.0-6.0-3.19","533","","","","","rectangles with change","null","null","","","catch","l","sw","sh","227","231","197","216","228","167","spektor","null","null","null","null","null","null","null","null","null","null","null","","180","200","260","200","36000","52000","[1,3]","497.90324536603475","132.41415737086038","530.4861151739807"
"","canvas-keyboard-response","143","110246","0.0-6.0-4.19","533","","","","","clear_screen","null","null","","","catch","l","sw","sh","227","231","197","216","228","167","spektor","null","null","null","null","null","null","null","null","null","null","null","","180","200","260","200","36000","52000","[1,3]","497.90324536603475","132.41415737086038","530.4861151739807"
"","canvas-keyboard-response","144","110811","0.0-6.0-5.19","533","","","","","make choice","558","1","","","catch","l","sw","sh","227","231","197","216","228","167","spektor","null","null","null","null","null","null","null","null","null","null","null","","180","200","260","200","36000","52000","[1,3]","","",""
"","canvas-keyboard-response","145","110830","0.0-6.0-6.19","533","","","","","clear_screen","null","null","","","catch","l","sw","sh","227","231","197","216","228","167","spektor","null","null","null","null","null","null","null","null","null","null","null","","180","200","260","200","36000","52000","[1,3]","","",""
"","canvas-keyboard-response","146","111031","0.0-6.0-0.20","533","","","","","pre trial waiting period","null","null","","","critical","d","t","c","154.6796","220.0396","164","240","240","164","spektor","0.14","h","164","240","240","164","154.6796","220.0396","39360","39360","34035.6388","tc","null","null","null","null","null","null","[2,3]","478.21029870901543","113.85228443161947","498.1875911484681"
"","canvas-keyboard-response","147","111057","0.0-6.0-1.20","533","","","","","clear_screen","null","null","","","critical","d","t","c","154.6796","220.0396","164","240","240","164","spektor","0.14","h","164","240","240","164","154.6796","220.0396","39360","39360","34035.6388","tc","null","null","null","null","null","null","[2,3]","478.21029870901543","113.85228443161947","498.1875911484681"
"","canvas-keyboard-response","148","111564","0.0-6.0-2.20","533","","","","","rectangles no change","null","null","","","critical","d","t","c","154.6796","220.0396","164","240","240","164","spektor","0.14","h","164","240","240","164","154.6796","220.0396","39360","39360","34035.6388","tc","null","null","null","null","null","null","[2,3]","478.21029870901543","113.85228443161947","498.1875911484681"
"","canvas-keyboard-response","149","112901","0.0-6.0-3.20","533","","","","","rectangles with change","null","null","","","critical","d","t","c","154.6796","220.0396","164","240","240","164","spektor","0.14","h","164","240","240","164","154.6796","220.0396","39360","39360","34035.6388","tc","null","null","null","null","null","null","[2,3]","478.21029870901543","113.85228443161947","498.1875911484681"
"","canvas-keyboard-response","150","112922","0.0-6.0-4.20","533","","","","","clear_screen","null","null","","","critical","d","t","c","154.6796","220.0396","164","240","240","164","spektor","0.14","h","164","240","240","164","154.6796","220.0396","39360","39360","34035.6388","tc","null","null","null","null","null","null","[2,3]","478.21029870901543","113.85228443161947","498.1875911484681"
"","canvas-keyboard-response","151","113427","0.0-6.0-5.20","533","","","","","make choice","498","3","","","critical","d","t","c","154.6796","220.0396","164","240","240","164","spektor","0.14","h","164","240","240","164","154.6796","220.0396","39360","39360","34035.6388","tc","null","null","null","null","null","null","[2,3]","","",""
"","canvas-keyboard-response","152","113448","0.0-6.0-6.20","533","","","","","clear_screen","null","null","","","critical","d","t","c","154.6796","220.0396","164","240","240","164","spektor","0.14","h","164","240","240","164","154.6796","220.0396","39360","39360","34035.6388","tc","null","null","null","null","null","null","[2,3]","","",""
"","canvas-keyboard-response","153","113649","0.0-6.0-0.21","533","","","","","pre trial waiting period","null","null","","","catch","sw","l","sh","180","200","240","230","234","143","trueblood","null","null","null","null","null","null","null","null","null","null","null","","180","200","260","200","36000","52000","[1,2]","448.71480321654616","439.45228972697333","483.4245368191699"
"","canvas-keyboard-response","154","113673","0.0-6.0-1.21","533","","","","","clear_screen","null","null","","","catch","sw","l","sh","180","200","240","230","234","143","trueblood","null","null","null","null","null","null","null","null","null","null","null","","180","200","260","200","36000","52000","[1,2]","448.71480321654616","439.45228972697333","483.4245368191699"
"","canvas-keyboard-response","155","114180","0.0-6.0-2.21","533","","","","","rectangles no change","null","null","","","catch","sw","l","sh","180","200","240","230","234","143","trueblood","null","null","null","null","null","null","null","null","null","null","null","","180","200","260","200","36000","52000","[1,2]","448.71480321654616","439.45228972697333","483.4245368191699"
"","canvas-keyboard-response","156","115516","0.0-6.0-3.21","533","","","","","rectangles with change","null","null","","","catch","sw","l","sh","180","200","240","230","234","143","trueblood","null","null","null","null","null","null","null","null","null","null","null","","180","200","260","200","36000","52000","[1,2]","448.71480321654616","439.45228972697333","483.4245368191699"
"","canvas-keyboard-response","157","115540","0.0-6.0-4.21","533","","","","","clear_screen","null","null","","","catch","sw","l","sh","180","200","240","230","234","143","trueblood","null","null","null","null","null","null","null","null","null","null","null","","180","200","260","200","36000","52000","[1,2]","448.71480321654616","439.45228972697333","483.4245368191699"
"","canvas-keyboard-response","158","115843","0.0-6.0-5.21","533","","","","","make choice","297","2","","","catch","sw","l","sh","180","200","240","230","234","143","trueblood","null","null","null","null","null","null","null","null","null","null","null","","180","200","260","200","36000","52000","[1,2]","","",""
"","canvas-keyboard-response","159","115863","0.0-6.0-6.21","533","","","","","clear_screen","null","null","","","catch","sw","l","sh","180","200","240","230","234","143","trueblood","null","null","null","null","null","null","null","null","null","null","null","","180","200","260","200","36000","52000","[1,2]","","",""
"","canvas-keyboard-response","160","116063","0.0-6.0-0.22","533","","","","","pre trial waiting period","null","null","","","critical","c","t","d","240","164","164","240","158.0083","227.1683","spektor","0.09","h","164","240","240","164","158.0083","227.1683","39360","39360","35894.4834","tc","null","null","null","null","null","null","[2,1]","531.274935983584","108.49465891712515","463.2792979948993"
"","canvas-keyboard-response","161","116082","0.0-6.0-1.22","533","","","","","clear_screen","null","null","","","critical","c","t","d","240","164","164","240","158.0083","227.1683","spektor","0.09","h","164","240","240","164","158.0083","227.1683","39360","39360","35894.4834","tc","null","null","null","null","null","null","[2,1]","531.274935983584","108.49465891712515","463.2792979948993"
"","canvas-keyboard-response","162","116591","0.0-6.0-2.22","533","","","","","rectangles no change","null","null","","","critical","c","t","d","240","164","164","240","158.0083","227.1683","spektor","0.09","h","164","240","240","164","158.0083","227.1683","39360","39360","35894.4834","tc","null","null","null","null","null","null","[2,1]","531.274935983584","108.49465891712515","463.2792979948993"
"","canvas-keyboard-response","163","117930","0.0-6.0-3.22","533","","","","","rectangles with change","null","null","","","critical","c","t","d","240","164","164","240","158.0083","227.1683","spektor","0.09","h","164","240","240","164","158.0083","227.1683","39360","39360","35894.4834","tc","null","null","null","null","null","null","[2,1]","531.274935983584","108.49465891712515","463.2792979948993"
"","canvas-keyboard-response","164","117954","0.0-6.0-4.22","533","","","","","clear_screen","null","null","","","critical","c","t","d","240","164","164","240","158.0083","227.1683","spektor","0.09","h","164","240","240","164","158.0083","227.1683","39360","39360","35894.4834","tc","null","null","null","null","null","null","[2,1]","531.274935983584","108.49465891712515","463.2792979948993"
"","canvas-keyboard-response","165","118539","0.0-6.0-5.22","533","","","","","make choice","579","1","","","critical","c","t","d","240","164","164","240","158.0083","227.1683","spektor","0.09","h","164","240","240","164","158.0083","227.1683","39360","39360","35894.4834","tc","null","null","null","null","null","null","[2,1]","","",""
"","canvas-keyboard-response","166","118559","0.0-6.0-6.22","533","","","","","clear_screen","null","null","","","critical","c","t","d","240","164","164","240","158.0083","227.1683","spektor","0.09","h","164","240","240","164","158.0083","227.1683","39360","39360","35894.4834","tc","null","null","null","null","null","null","[2,1]","","",""
"","canvas-keyboard-response","167","118760","0.0-6.0-0.23","533","","","","","pre trial waiting period","null","null","","","catch","sh","l","sw","163","216","268","206","194","197","spektor","null","null","null","null","null","null","null","null","null","null","null","","180","200","260","200","36000","52000","[2,3]","488.80061034931447","156.97640197895348","484.1930801076142"
"","canvas-keyboard-response","168","118785","0.0-6.0-1.23","533","","","","","clear_screen","null","null","","","catch","sh","l","sw","163","216","268","206","194","197","spektor","null","null","null","null","null","null","null","null","null","null","null","","180","200","260","200","36000","52000","[2,3]","488.80061034931447","156.97640197895348","484.1930801076142"
"","canvas-keyboard-response","169","119293","0.0-6.0-2.23","533","","","","","rectangles no change","null","null","","","catch","sh","l","sw","163","216","268","206","194","197","spektor","null","null","null","null","null","null","null","null","null","null","null","","180","200","260","200","36000","52000","[2,3]","488.80061034931447","156.97640197895348","484.1930801076142"
"","canvas-keyboard-response","170","120635","0.0-6.0-3.23","533","","","","","rectangles with change","null","null","","","catch","sh","l","sw","163","216","268","206","194","197","spektor","null","null","null","null","null","null","null","null","null","null","null","","180","200","260","200","36000","52000","[2,3]","488.80061034931447","156.97640197895348","484.1930801076142"
"","canvas-keyboard-response","171","120658","0.0-6.0-4.23","533","","","","","clear_screen","null","null","","","catch","sh","l","sw","163","216","268","206","194","197","spektor","null","null","null","null","null","null","null","null","null","null","null","","180","200","260","200","36000","52000","[2,3]","488.80061034931447","156.97640197895348","484.1930801076142"
"","canvas-keyboard-response","172","121018","0.0-6.0-5.23","533","","","","","make choice","355","2","","","catch","sh","l","sw","163","216","268","206","194","197","spektor","null","null","null","null","null","null","null","null","null","null","null","","180","200","260","200","36000","52000","[2,3]","","",""
"","canvas-keyboard-response","173","121038","0.0-6.0-6.23","533","","","","","clear_screen","null","null","","","catch","sh","l","sw","163","216","268","206","194","197","spektor","null","null","null","null","null","null","null","null","null","null","null","","180","200","260","200","36000","52000","[2,3]","","",""
"","canvas-keyboard-response","174","121240","0.0-6.0-0.24","533","","","","","pre trial waiting period","null","null","","","catch","sh","sw","l","209","219","146","181","226","174","spektor","null","null","null","null","null","null","null","null","null","null","null","","180","200","260","200","36000","52000","[2,3]","483.5057851785166","200.28214607000328","499.5608402309605"
"","canvas-keyboard-response","175","121262","0.0-6.0-1.24","533","","","","","clear_screen","null","null","","","catch","sh","sw","l","209","219","146","181","226","174","spektor","null","null","null","null","null","null","null","null","null","null","null","","180","200","260","200","36000","52000","[2,3]","483.5057851785166","200.28214607000328","499.5608402309605"
"","canvas-keyboard-response","176","121768","0.0-6.0-2.24","533","","","","","rectangles no change","null","null","","","catch","sh","sw","l","209","219","146","181","226","174","spektor","null","null","null","null","null","null","null","null","null","null","null","","180","200","260","200","36000","52000","[2,3]","483.5057851785166","200.28214607000328","499.5608402309605"
"","canvas-keyboard-response","177","123105","0.0-6.0-3.24","533","","","","","rectangles with change","null","null","","","catch","sh","sw","l","209","219","146","181","226","174","spektor","null","null","null","null","null","null","null","null","null","null","null","","180","200","260","200","36000","52000","[2,3]","483.5057851785166","200.28214607000328","499.5608402309605"
"","canvas-keyboard-response","178","123129","0.0-6.0-4.24","533","","","","","clear_screen","null","null","","","catch","sh","sw","l","209","219","146","181","226","174","spektor","null","null","null","null","null","null","null","null","null","null","null","","180","200","260","200","36000","52000","[2,3]","483.5057851785166","200.28214607000328","499.5608402309605"
"","canvas-keyboard-response","179","123483","0.0-6.0-5.24","533","","","","","make choice","347","3","","","catch","sh","sw","l","209","219","146","181","226","174","spektor","null","null","null","null","null","null","null","null","null","null","null","","180","200","260","200","36000","52000","[2,3]","","",""
"","canvas-keyboard-response","180","123501","0.0-6.0-6.24","533","","","","","clear_screen","null","null","","","catch","sh","sw","l","209","219","146","181","226","174","spektor","null","null","null","null","null","null","null","null","null","null","null","","180","200","260","200","36000","52000","[2,3]","","",""
"","canvas-keyboard-response","181","123703","0.0-6.0-0.25","533","","","","","pre trial waiting period","null","null","","","critical","t","d","c","164","240","158.0083","227.1683","240","164","trueblood","0.09","h","164","240","240","164","158.0083","227.1683","39360","39360","35894.4834","dc","null","null","null","null","null","null","[2,3]","464.2442808040794","456.3974002081186","516.1797211430096"
"","canvas-keyboard-response","182","123722","0.0-6.0-1.25","533","","","","","clear_screen","null","null","","","critical","t","d","c","164","240","158.0083","227.1683","240","164","trueblood","0.09","h","164","240","240","164","158.0083","227.1683","39360","39360","35894.4834","dc","null","null","null","null","null","null","[2,3]","464.2442808040794","456.3974002081186","516.1797211430096"
"","canvas-keyboard-response","183","124229","0.0-6.0-2.25","533","","","","","rectangles no change","null","null","","","critical","t","d","c","164","240","158.0083","227.1683","240","164","trueblood","0.09","h","164","240","240","164","158.0083","227.1683","39360","39360","35894.4834","dc","null","null","null","null","null","null","[2,3]","464.2442808040794","456.3974002081186","516.1797211430096"
"","canvas-keyboard-response","184","125566","0.0-6.0-3.25","533","","","","","rectangles with change","null","null","","","critical","t","d","c","164","240","158.0083","227.1683","240","164","trueblood","0.09","h","164","240","240","164","158.0083","227.1683","39360","39360","35894.4834","dc","null","null","null","null","null","null","[2,3]","464.2442808040794","456.3974002081186","516.1797211430096"
"","canvas-keyboard-response","185","125585","0.0-6.0-4.25","533","","","","","clear_screen","null","null","","","critical","t","d","c","164","240","158.0083","227.1683","240","164","trueblood","0.09","h","164","240","240","164","158.0083","227.1683","39360","39360","35894.4834","dc","null","null","null","null","null","null","[2,3]","464.2442808040794","456.3974002081186","516.1797211430096"
"","canvas-keyboard-response","186","126067","0.0-6.0-5.25","533","","","","","make choice","475","3","","","critical","t","d","c","164","240","158.0083","227.1683","240","164","trueblood","0.09","h","164","240","240","164","158.0083","227.1683","39360","39360","35894.4834","dc","null","null","null","null","null","null","[2,3]","","",""
"","canvas-keyboard-response","187","126086","0.0-6.0-6.25","533","","","","","clear_screen","null","null","","","critical","t","d","c","164","240","158.0083","227.1683","240","164","trueblood","0.09","h","164","240","240","164","158.0083","227.1683","39360","39360","35894.4834","dc","null","null","null","null","null","null","[2,3]","","",""
"","canvas-keyboard-response","188","126287","0.0-6.0-0.26","533","","","","","pre trial waiting period","null","null","","","critical","t","c","d","240","164","164","240","220.0396","154.6796","spektor","0.14","w","240","164","164","240","220.0396","154.6796","39360","39360","34035.6388","td","null","null","null","null","null","null","[1,3]","502.5515987071108","151.66819080937643","530.4574294598658"
"","canvas-keyboard-response","189","126307","0.0-6.0-1.26","533","","","","","clear_screen","null","null","","","critical","t","c","d","240","164","164","240","220.0396","154.6796","spektor","0.14","w","240","164","164","240","220.0396","154.6796","39360","39360","34035.6388","td","null","null","null","null","null","null","[1,3]","502.5515987071108","151.66819080937643","530.4574294598658"
"","canvas-keyboard-response","190","126820","0.0-6.0-2.26","533","","","","","rectangles no change","null","null","","","critical","t","c","d","240","164","164","240","220.0396","154.6796","spektor","0.14","w","240","164","164","240","220.0396","154.6796","39360","39360","34035.6388","td","null","null","null","null","null","null","[1,3]","502.5515987071108","151.66819080937643","530.4574294598658"
"","canvas-keyboard-response","191","128158","0.0-6.0-3.26","533","","","","","rectangles with change","null","null","","","critical","t","c","d","240","164","164","240","220.0396","154.6796","spektor","0.14","w","240","164","164","240","220.0396","154.6796","39360","39360","34035.6388","td","null","null","null","null","null","null","[1,3]","502.5515987071108","151.66819080937643","530.4574294598658"
"","canvas-keyboard-response","192","128181","0.0-6.0-4.26","533","","","","","clear_screen","null","null","","","critical","t","c","d","240","164","164","240","220.0396","154.6796","spektor","0.14","w","240","164","164","240","220.0396","154.6796","39360","39360","34035.6388","td","null","null","null","null","null","null","[1,3]","502.5515987071108","151.66819080937643","530.4574294598658"
"","canvas-keyboard-response","193","128482","0.0-6.0-5.26","533","","","","","make choice","295","1","","","critical","t","c","d","240","164","164","240","220.0396","154.6796","spektor","0.14","w","240","164","164","240","220.0396","154.6796","39360","39360","34035.6388","td","null","null","null","null","null","null","[1,3]","","",""
"","canvas-keyboard-response","194","128501","0.0-6.0-6.26","533","","","","","clear_screen","null","null","","","critical","t","c","d","240","164","164","240","220.0396","154.6796","spektor","0.14","w","240","164","164","240","220.0396","154.6796","39360","39360","34035.6388","td","null","null","null","null","null","null","[1,3]","","",""
"","canvas-keyboard-response","195","128702","0.0-6.0-0.27","533","","","","","pre trial waiting period","null","null","","","critical","c","t","d","164","240","240","164","227.1683","158.0083","spektor","0.09","w","240","164","164","240","227.1683","158.0083","39360","39360","35894.4834","tc","null","null","null","null","null","null","[2,1]","496.96171472020035","189.48309410338132","542.7764961841355"
"","canvas-keyboard-response","196","128726","0.0-6.0-1.27","533","","","","","clear_screen","null","null","","","critical","c","t","d","164","240","240","164","227.1683","158.0083","spektor","0.09","w","240","164","164","240","227.1683","158.0083","39360","39360","35894.4834","tc","null","null","null","null","null","null","[2,1]","496.96171472020035","189.48309410338132","542.7764961841355"
"","canvas-keyboard-response","197","129233","0.0-6.0-2.27","533","","","","","rectangles no change","null","null","","","critical","c","t","d","164","240","240","164","227.1683","158.0083","spektor","0.09","w","240","164","164","240","227.1683","158.0083","39360","39360","35894.4834","tc","null","null","null","null","null","null","[2,1]","496.96171472020035","189.48309410338132","542.7764961841355"
"","canvas-keyboard-response","198","130573","0.0-6.0-3.27","533","","","","","rectangles with change","null","null","","","critical","c","t","d","164","240","240","164","227.1683","158.0083","spektor","0.09","w","240","164","164","240","227.1683","158.0083","39360","39360","35894.4834","tc","null","null","null","null","null","null","[2,1]","496.96171472020035","189.48309410338132","542.7764961841355"
"","canvas-keyboard-response","199","130595","0.0-6.0-4.27","533","","","","","clear_screen","null","null","","","critical","c","t","d","164","240","240","164","227.1683","158.0083","spektor","0.09","w","240","164","164","240","227.1683","158.0083","39360","39360","35894.4834","tc","null","null","null","null","null","null","[2,1]","496.96171472020035","189.48309410338132","542.7764961841355"
"","canvas-keyboard-response","200","130987","0.0-6.0-5.27","533","","","","","make choice","385","2","","","critical","c","t","d","164","240","240","164","227.1683","158.0083","spektor","0.09","w","240","164","164","240","227.1683","158.0083","39360","39360","35894.4834","tc","null","null","null","null","null","null","[2,1]","","",""
"","canvas-keyboard-response","201","131008","0.0-6.0-6.27","533","","","","","clear_screen","null","null","","","critical","c","t","d","164","240","240","164","227.1683","158.0083","spektor","0.09","w","240","164","164","240","227.1683","158.0083","39360","39360","35894.4834","tc","null","null","null","null","null","null","[2,1]","","",""
"","canvas-keyboard-response","202","131209","0.0-6.0-0.28","533","","","","","pre trial waiting period","null","null","","","catch","sh","sw","l","176","215","175","168","174","264","trueblood","null","null","null","null","null","null","null","null","null","null","null","","180","200","260","200","36000","52000","[2,3]","451.07599238415685","507.0004795715926","444.7467844975252"
"","canvas-keyboard-response","203","131229","0.0-6.0-1.28","533","","","","","clear_screen","null","null","","","catch","sh","sw","l","176","215","175","168","174","264","trueblood","null","null","null","null","null","null","null","null","null","null","null","","180","200","260","200","36000","52000","[2,3]","451.07599238415685","507.0004795715926","444.7467844975252"
"","canvas-keyboard-response","204","131736","0.0-6.0-2.28","533","","","","","rectangles no change","null","null","","","catch","sh","sw","l","176","215","175","168","174","264","trueblood","null","null","null","null","null","null","null","null","null","null","null","","180","200","260","200","36000","52000","[2,3]","451.07599238415685","507.0004795715926","444.7467844975252"
"","canvas-keyboard-response","205","133076","0.0-6.0-3.28","533","","","","","rectangles with change","null","null","","","catch","sh","sw","l","176","215","175","168","174","264","trueblood","null","null","null","null","null","null","null","null","null","null","null","","180","200","260","200","36000","52000","[2,3]","451.07599238415685","507.0004795715926","444.7467844975252"
"","canvas-keyboard-response","206","133100","0.0-6.0-4.28","533","","","","","clear_screen","null","null","","","catch","sh","sw","l","176","215","175","168","174","264","trueblood","null","null","null","null","null","null","null","null","null","null","null","","180","200","260","200","36000","52000","[2,3]","451.07599238415685","507.0004795715926","444.7467844975252"
"","canvas-keyboard-response","207","133451","0.0-6.0-5.28","533","","","","","make choice","344","3","","","catch","sh","sw","l","176","215","175","168","174","264","trueblood","null","null","null","null","null","null","null","null","null","null","null","","180","200","260","200","36000","52000","[2,3]","","",""
"","canvas-keyboard-response","208","133470","0.0-6.0-6.28","533","","","","","clear_screen","null","null","","","catch","sh","sw","l","176","215","175","168","174","264","trueblood","null","null","null","null","null","null","null","null","null","null","null","","180","200","260","200","36000","52000","[2,3]","","",""
"","canvas-keyboard-response","209","133672","0.0-6.0-0.29","533","","","","","pre trial waiting period","null","null","","","critical","d","t","c","220.0396","154.6796","240","164","164","240","spektor","0.14","w","240","164","164","240","220.0396","154.6796","39360","39360","34035.6388","tc","null","null","null","null","null","null","[2,3]","503.38372455632435","215.93414084722707","476.37112712509645"
"","canvas-keyboard-response","210","133693","0.0-6.0-1.29","533","","","","","clear_screen","null","null","","","critical","d","t","c","220.0396","154.6796","240","164","164","240","spektor","0.14","w","240","164","164","240","220.0396","154.6796","39360","39360","34035.6388","tc","null","null","null","null","null","null","[2,3]","503.38372455632435","215.93414084722707","476.37112712509645"
"","canvas-keyboard-response","211","134200","0.0-6.0-2.29","533","","","","","rectangles no change","null","null","","","critical","d","t","c","220.0396","154.6796","240","164","164","240","spektor","0.14","w","240","164","164","240","220.0396","154.6796","39360","39360","34035.6388","tc","null","null","null","null","null","null","[2,3]","503.38372455632435","215.93414084722707","476.37112712509645"
"","canvas-keyboard-response","212","135541","0.0-6.0-3.29","533","","","","","rectangles with change","null","null","","","critical","d","t","c","220.0396","154.6796","240","164","164","240","spektor","0.14","w","240","164","164","240","220.0396","154.6796","39360","39360","34035.6388","tc","null","null","null","null","null","null","[2,3]","503.38372455632435","215.93414084722707","476.37112712509645"
"","canvas-keyboard-response","213","135560","0.0-6.0-4.29","533","","","","","clear_screen","null","null","","","critical","d","t","c","220.0396","154.6796","240","164","164","240","spektor","0.14","w","240","164","164","240","220.0396","154.6796","39360","39360","34035.6388","tc","null","null","null","null","null","null","[2,3]","503.38372455632435","215.93414084722707","476.37112712509645"
"","canvas-keyboard-response","214","136003","0.0-6.0-5.29","533","","","","","make choice","437","2","","","critical","d","t","c","220.0396","154.6796","240","164","164","240","spektor","0.14","w","240","164","164","240","220.0396","154.6796","39360","39360","34035.6388","tc","null","null","null","null","null","null","[2,3]","","",""
"","canvas-keyboard-response","215","136025","0.0-6.0-6.29","533","","","","","clear_screen","null","null","","","critical","d","t","c","220.0396","154.6796","240","164","164","240","spektor","0.14","w","240","164","164","240","220.0396","154.6796","39360","39360","34035.6388","tc","null","null","null","null","null","null","[2,3]","","",""
"","canvas-keyboard-response","216","136227","0.0-6.0-0.30","533","","","","","pre trial waiting period","null","null","","","critical","d","t","c","220.0396","154.6796","240","164","164","240","trueblood","0.14","w","240","164","164","240","220.0396","154.6796","39360","39360","34035.6388","tc","null","null","null","null","null","null","[2,3]","511.46243386116333","493.7678352833072","434.65859982813123"
"","canvas-keyboard-response","217","136249","0.0-6.0-1.30","533","","","","","clear_screen","null","null","","","critical","d","t","c","220.0396","154.6796","240","164","164","240","trueblood","0.14","w","240","164","164","240","220.0396","154.6796","39360","39360","34035.6388","tc","null","null","null","null","null","null","[2,3]","511.46243386116333","493.7678352833072","434.65859982813123"
"","canvas-keyboard-response","218","136757","0.0-6.0-2.30","533","","","","","rectangles no change","null","null","","","critical","d","t","c","220.0396","154.6796","240","164","164","240","trueblood","0.14","w","240","164","164","240","220.0396","154.6796","39360","39360","34035.6388","tc","null","null","null","null","null","null","[2,3]","511.46243386116333","493.7678352833072","434.65859982813123"
"","canvas-keyboard-response","219","138096","0.0-6.0-3.30","533","","","","","rectangles with change","null","null","","","critical","d","t","c","220.0396","154.6796","240","164","164","240","trueblood","0.14","w","240","164","164","240","220.0396","154.6796","39360","39360","34035.6388","tc","null","null","null","null","null","null","[2,3]","511.46243386116333","493.7678352833072","434.65859982813123"
"","canvas-keyboard-response","220","138116","0.0-6.0-4.30","533","","","","","clear_screen","null","null","","","critical","d","t","c","220.0396","154.6796","240","164","164","240","trueblood","0.14","w","240","164","164","240","220.0396","154.6796","39360","39360","34035.6388","tc","null","null","null","null","null","null","[2,3]","511.46243386116333","493.7678352833072","434.65859982813123"
"","canvas-keyboard-response","221","138515","0.0-6.0-5.30","533","","","","","make choice","394","2","","","critical","d","t","c","220.0396","154.6796","240","164","164","240","trueblood","0.14","w","240","164","164","240","220.0396","154.6796","39360","39360","34035.6388","tc","null","null","null","null","null","null","[2,3]","","",""
"","canvas-keyboard-response","222","138533","0.0-6.0-6.30","533","","","","","clear_screen","null","null","","","critical","d","t","c","220.0396","154.6796","240","164","164","240","trueblood","0.14","w","240","164","164","240","220.0396","154.6796","39360","39360","34035.6388","tc","null","null","null","null","null","null","[2,3]","","",""
"","canvas-keyboard-response","223","138735","0.0-6.0-0.31","533","","","","","pre trial waiting period","null","null","","","catch","l","sh","sw","188","222","165","213","213","192","spektor","null","null","null","null","null","null","null","null","null","null","null","","180","200","260","200","36000","52000","[1,2]","472.99561927881325","149.6309613989079","481.1906930116349"
"","canvas-keyboard-response","224","138755","0.0-6.0-1.31","533","","","","","clear_screen","null","null","","","catch","l","sh","sw","188","222","165","213","213","192","spektor","null","null","null","null","null","null","null","null","null","null","null","","180","200","260","200","36000","52000","[1,2]","472.99561927881325","149.6309613989079","481.1906930116349"
"","canvas-keyboard-response","225","139265","0.0-6.0-2.31","533","","","","","rectangles no change","null","null","","","catch","l","sh","sw","188","222","165","213","213","192","spektor","null","null","null","null","null","null","null","null","null","null","null","","180","200","260","200","36000","52000","[1,2]","472.99561927881325","149.6309613989079","481.1906930116349"
"","canvas-keyboard-response","226","140605","0.0-6.0-3.31","533","","","","","rectangles with change","null","null","","","catch","l","sh","sw","188","222","165","213","213","192","spektor","null","null","null","null","null","null","null","null","null","null","null","","180","200","260","200","36000","52000","[1,2]","472.99561927881325","149.6309613989079","481.1906930116349"
"","canvas-keyboard-response","227","140624","0.0-6.0-4.31","533","","","","","clear_screen","null","null","","","catch","l","sh","sw","188","222","165","213","213","192","spektor","null","null","null","null","null","null","null","null","null","null","null","","180","200","260","200","36000","52000","[1,2]","472.99561927881325","149.6309613989079","481.1906930116349"
"","canvas-keyboard-response","228","140977","0.0-6.0-5.31","533","","","","","make choice","347","1","","","catch","l","sh","sw","188","222","165","213","213","192","spektor","null","null","null","null","null","null","null","null","null","null","null","","180","200","260","200","36000","52000","[1,2]","","",""
"","canvas-keyboard-response","229","140991","0.0-6.0-6.31","533","","","","","clear_screen","null","null","","","catch","l","sh","sw","188","222","165","213","213","192","spektor","null","null","null","null","null","null","null","null","null","null","null","","180","200","260","200","36000","52000","[1,2]","","",""
"","canvas-keyboard-response","230","141192","0.0-6.0-0.32","533","","","","","pre trial waiting period","null","null","","","catch","l","sw","sh","234","225","194","165","165","154","spektor","null","null","null","null","null","null","null","null","null","null","null","","180","200","260","200","36000","52000","[1,2]","510.96605648348293","217.59432809208658","516.9188006559237"
"","canvas-keyboard-response","231","141213","0.0-6.0-1.32","533","","","","","clear_screen","null","null","","","catch","l","sw","sh","234","225","194","165","165","154","spektor","null","null","null","null","null","null","null","null","null","null","null","","180","200","260","200","36000","52000","[1,2]","510.96605648348293","217.59432809208658","516.9188006559237"
"","canvas-keyboard-response","232","141720","0.0-6.0-2.32","533","","","","","rectangles no change","null","null","","","catch","l","sw","sh","234","225","194","165","165","154","spektor","null","null","null","null","null","null","null","null","null","null","null","","180","200","260","200","36000","52000","[1,2]","510.96605648348293","217.59432809208658","516.9188006559237"
"","canvas-keyboard-response","233","143057","0.0-6.0-3.32","533","","","","","rectangles with change","null","null","","","catch","l","sw","sh","234","225","194","165","165","154","spektor","null","null","null","null","null","null","null","null","null","null","null","","180","200","260","200","36000","52000","[1,2]","510.96605648348293","217.59432809208658","516.9188006559237"
"","canvas-keyboard-response","234","143081","0.0-6.0-4.32","533","","","","","clear_screen","null","null","","","catch","l","sw","sh","234","225","194","165","165","154","spektor","null","null","null","null","null","null","null","null","null","null","null","","180","200","260","200","36000","52000","[1,2]","510.96605648348293","217.59432809208658","516.9188006559237"
"","canvas-keyboard-response","235","143419","0.0-6.0-5.32","533","","","","","make choice","331","1","","","catch","l","sw","sh","234","225","194","165","165","154","spektor","null","null","null","null","null","null","null","null","null","null","null","","180","200","260","200","36000","52000","[1,2]","","",""
"","canvas-keyboard-response","236","143438","0.0-6.0-6.32","533","","","","","clear_screen","null","null","","","catch","l","sw","sh","234","225","194","165","165","154","spektor","null","null","null","null","null","null","null","null","null","null","null","","180","200","260","200","36000","52000","[1,2]","","",""
"","canvas-keyboard-response","237","143639","0.0-6.0-0.33","533","","","","","pre trial waiting period","null","null","","","critical","t","c","d","164","240","240","164","164","240","spektor","0","h","164","240","240","164","164","240","39360","39360","39360","dc","null","null","null","null","null","null","[3,2]","470.5973736954986","157.94906494523806","459.8777254348507"
"","canvas-keyboard-response","238","143659","0.0-6.0-1.33","533","","","","","clear_screen","null","null","","","critical","t","c","d","164","240","240","164","164","240","spektor","0","h","164","240","240","164","164","240","39360","39360","39360","dc","null","null","null","null","null","null","[3,2]","470.5973736954986","157.94906494523806","459.8777254348507"
"","canvas-keyboard-response","239","144166","0.0-6.0-2.33","533","","","","","rectangles no change","null","null","","","critical","t","c","d","164","240","240","164","164","240","spektor","0","h","164","240","240","164","164","240","39360","39360","39360","dc","null","null","null","null","null","null","[3,2]","470.5973736954986","157.94906494523806","459.8777254348507"
"","canvas-keyboard-response","240","145502","0.0-6.0-3.33","533","","","","","rectangles with change","null","null","","","critical","t","c","d","164","240","240","164","164","240","spektor","0","h","164","240","240","164","164","240","39360","39360","39360","dc","null","null","null","null","null","null","[3,2]","470.5973736954986","157.94906494523806","459.8777254348507"
"","canvas-keyboard-response","241","145522","0.0-6.0-4.33","533","","","","","clear_screen","null","null","","","critical","t","c","d","164","240","240","164","164","240","spektor","0","h","164","240","240","164","164","240","39360","39360","39360","dc","null","null","null","null","null","null","[3,2]","470.5973736954986","157.94906494523806","459.8777254348507"
"","canvas-keyboard-response","242","145819","0.0-6.0-5.33","533","","","","","make choice","290","2","","","critical","t","c","d","164","240","240","164","164","240","spektor","0","h","164","240","240","164","164","240","39360","39360","39360","dc","null","null","null","null","null","null","[3,2]","","",""
"","canvas-keyboard-response","243","145838","0.0-6.0-6.33","533","","","","","clear_screen","null","null","","","critical","t","c","d","164","240","240","164","164","240","spektor","0","h","164","240","240","164","164","240","39360","39360","39360","dc","null","null","null","null","null","null","[3,2]","","",""
"","canvas-keyboard-response","244","146039","0.0-6.0-0.34","533","","","","","pre trial waiting period","null","null","","","critical","d","c","t","162.6685","237.1485","240","164","164","240","trueblood","0.02","h","164","240","240","164","162.6685","237.1485","39360","39360","38576.5967","tc","null","null","null","null","null","null","[3,2]","425.9524354366587","511.51845189723804","424.4992689566544"
"","canvas-keyboard-response","245","146061","0.0-6.0-1.34","533","","","","","clear_screen","null","null","","","critical","d","c","t","162.6685","237.1485","240","164","164","240","trueblood","0.02","h","164","240","240","164","162.6685","237.1485","39360","39360","38576.5967","tc","null","null","null","null","null","null","[3,2]","425.9524354366587","511.51845189723804","424.4992689566544"
"","canvas-keyboard-response","246","146574","0.0-6.0-2.34","533","","","","","rectangles no change","null","null","","","critical","d","c","t","162.6685","237.1485","240","164","164","240","trueblood","0.02","h","164","240","240","164","162.6685","237.1485","39360","39360","38576.5967","tc","null","null","null","null","null","null","[3,2]","425.9524354366587","511.51845189723804","424.4992689566544"
"","canvas-keyboard-response","247","147913","0.0-6.0-3.34","533","","","","","rectangles with change","null","null","","","critical","d","c","t","162.6685","237.1485","240","164","164","240","trueblood","0.02","h","164","240","240","164","162.6685","237.1485","39360","39360","38576.5967","tc","null","null","null","null","null","null","[3,2]","425.9524354366587","511.51845189723804","424.4992689566544"
"","canvas-keyboard-response","248","147932","0.0-6.0-4.34","533","","","","","clear_screen","null","null","","","critical","d","c","t","162.6685","237.1485","240","164","164","240","trueblood","0.02","h","164","240","240","164","162.6685","237.1485","39360","39360","38576.5967","tc","null","null","null","null","null","null","[3,2]","425.9524354366587","511.51845189723804","424.4992689566544"
"","canvas-keyboard-response","249","148300","0.0-6.0-5.34","533","","","","","make choice","361","2","","","critical","d","c","t","162.6685","237.1485","240","164","164","240","trueblood","0.02","h","164","240","240","164","162.6685","237.1485","39360","39360","38576.5967","tc","null","null","null","null","null","null","[3,2]","","",""
"","canvas-keyboard-response","250","148320","0.0-6.0-6.34","533","","","","","clear_screen","null","null","","","critical","d","c","t","162.6685","237.1485","240","164","164","240","trueblood","0.02","h","164","240","240","164","162.6685","237.1485","39360","39360","38576.5967","tc","null","null","null","null","null","null","[3,2]","","",""
"","canvas-keyboard-response","251","148521","0.0-6.0-0.35","533","","","","","pre trial waiting period","null","null","","","critical","c","d","t","240","164","164","240","164","240","trueblood","0","h","164","240","240","164","164","240","39360","39360","39360","tc","null","null","null","null","null","null","[3,1]","483.6334788928196","430.43812613729966","442.1087600230895"
"","canvas-keyboard-response","252","148540","0.0-6.0-1.35","533","","","","","clear_screen","null","null","","","critical","c","d","t","240","164","164","240","164","240","trueblood","0","h","164","240","240","164","164","240","39360","39360","39360","tc","null","null","null","null","null","null","[3,1]","483.6334788928196","430.43812613729966","442.1087600230895"
"","canvas-keyboard-response","253","149051","0.0-6.0-2.35","533","","","","","rectangles no change","null","null","","","critical","c","d","t","240","164","164","240","164","240","trueblood","0","h","164","240","240","164","164","240","39360","39360","39360","tc","null","null","null","null","null","null","[3,1]","483.6334788928196","430.43812613729966","442.1087600230895"
"","canvas-keyboard-response","254","150392","0.0-6.0-3.35","533","","","","","rectangles with change","null","null","","","critical","c","d","t","240","164","164","240","164","240","trueblood","0","h","164","240","240","164","164","240","39360","39360","39360","tc","null","null","null","null","null","null","[3,1]","483.6334788928196","430.43812613729966","442.1087600230895"
"","canvas-keyboard-response","255","150413","0.0-6.0-4.35","533","","","","","clear_screen","null","null","","","critical","c","d","t","240","164","164","240","164","240","trueblood","0","h","164","240","240","164","164","240","39360","39360","39360","tc","null","null","null","null","null","null","[3,1]","483.6334788928196","430.43812613729966","442.1087600230895"
"","canvas-keyboard-response","256","150843","0.0-6.0-5.35","533","","","","","make choice","423","1","","","critical","c","d","t","240","164","164","240","164","240","trueblood","0","h","164","240","240","164","164","240","39360","39360","39360","tc","null","null","null","null","null","null","[3,1]","","",""
"","canvas-keyboard-response","257","150861","0.0-6.0-6.35","533","","","","","clear_screen","null","null","","","critical","c","d","t","240","164","164","240","164","240","trueblood","0","h","164","240","240","164","164","240","39360","39360","39360","tc","null","null","null","null","null","null","[3,1]","","",""
"","canvas-keyboard-response","258","151062","0.0-6.0-0.36","533","","","","","pre trial waiting period","null","null","","","critical","c","d","t","164","240","227.1683","158.0083","240","164","spektor","0.09","w","240","164","164","240","227.1683","158.0083","39360","39360","35894.4834","dc","null","null","null","null","null","null","[2,1]","491.95030588097376","178.37769962930375","517.290366377845"
"","canvas-keyboard-response","259","151085","0.0-6.0-1.36","533","","","","","clear_screen","null","null","","","critical","c","d","t","164","240","227.1683","158.0083","240","164","spektor","0.09","w","240","164","164","240","227.1683","158.0083","39360","39360","35894.4834","dc","null","null","null","null","null","null","[2,1]","491.95030588097376","178.37769962930375","517.290366377845"
"","canvas-keyboard-response","260","151594","0.0-6.0-2.36","533","","","","","rectangles no change","null","null","","","critical","c","d","t","164","240","227.1683","158.0083","240","164","spektor","0.09","w","240","164","164","240","227.1683","158.0083","39360","39360","35894.4834","dc","null","null","null","null","null","null","[2,1]","491.95030588097376","178.37769962930375","517.290366377845"
"","canvas-keyboard-response","261","152929","0.0-6.0-3.36","533","","","","","rectangles with change","null","null","","","critical","c","d","t","164","240","227.1683","158.0083","240","164","spektor","0.09","w","240","164","164","240","227.1683","158.0083","39360","39360","35894.4834","dc","null","null","null","null","null","null","[2,1]","491.95030588097376","178.37769962930375","517.290366377845"
"","canvas-keyboard-response","262","152950","0.0-6.0-4.36","533","","","","","clear_screen","null","null","","","critical","c","d","t","164","240","227.1683","158.0083","240","164","spektor","0.09","w","240","164","164","240","227.1683","158.0083","39360","39360","35894.4834","dc","null","null","null","null","null","null","[2,1]","491.95030588097376","178.37769962930375","517.290366377845"
"","canvas-keyboard-response","263","153387","0.0-6.0-5.36","533","","","","","make choice","431","2","","","critical","c","d","t","164","240","227.1683","158.0083","240","164","spektor","0.09","w","240","164","164","240","227.1683","158.0083","39360","39360","35894.4834","dc","null","null","null","null","null","null","[2,1]","","",""
"","canvas-keyboard-response","264","153407","0.0-6.0-6.36","533","","","","","clear_screen","null","null","","","critical","c","d","t","164","240","227.1683","158.0083","240","164","spektor","0.09","w","240","164","164","240","227.1683","158.0083","39360","39360","35894.4834","dc","null","null","null","null","null","null","[2,1]","","",""
"","canvas-keyboard-response","265","153607","0.0-6.0-0.37","533","","","","","pre trial waiting period","null","null","","","critical","c","d","t","240","164","164","240","164","240","trueblood","0","h","164","240","240","164","164","240","39360","39360","39360","dc","null","null","null","null","null","null","[2,1]","518.2094995223384","451.1750620461809","463.8518937008166"
"","canvas-keyboard-response","266","153631","0.0-6.0-1.37","533","","","","","clear_screen","null","null","","","critical","c","d","t","240","164","164","240","164","240","trueblood","0","h","164","240","240","164","164","240","39360","39360","39360","dc","null","null","null","null","null","null","[2,1]","518.2094995223384","451.1750620461809","463.8518937008166"
