"success","trial_type","trial_index","time_elapsed","internal_node_id","sub_n","timeout","failed_images","failed_audio","failed_video","screen_id","rt","response","stimulus","view_history","trial","r1","r2","r3","w1","h1","w2","h2","w3","h3","display","tdd","tdo","tw","th","cw","ch","dw","dh","ta","ca","da","probe","csls","csss","clls","clss","sa","la","probe_rects","r1yloc","r2yloc","r3yloc"
"true","fullscreen","0","1760","0.0-0.0","582","","","","","","","","","","","","","","","","","","","","","","","","","","","","","","","","","","","","","","","","","",""
"true","preload","1","1771","0.0-1.0","582","false","[]","[]","[]","img preload","","","","","","","","","","","","","","","","","","","","","","","","","","","","","","","","","","","","",""
"","survey-html-form","2","5771","0.0-2.0","582","","","","","enter-sub-number","3993","{""response"":""582""}","","","","","","","","","","","","","","","","","","","","","","","","","","","","","","","","","","",""
"","image-button-response","3","33762","0.0-3.0","582","","","","","","27925","0","consent.png","","","","","","","","","","","","","","","","","","","","","","","","","","","","","","","","","",""
"","html-button-response","4","41178","0.0-4.0","582","","","","","intro mssg","7411","0","<div style= ""font-size:25px;"" <p> <strong> Welcome! </strong><br> <p style=""color:#8B0000; font-size:25px;""><strong> Please do NOT exit full screen until you are done with the experiment. </strong> </p><p style=""font-size:25px;color:#8B0000;""> <strong> Your data will be lost <br> if you try to go back or refresh the page after the experiment starts. Feel free to click ""previous"" during the instructions, however.</strong> </p><br><p> <strong> Thanks in advance for your contribution to our research! </strong></p>","","","","","","","","","","","","","","","","","","","","","","","","","","","","","","","","","",""
"","instructions","5","91666","0.0-5.0","582","","","","","instructions","50483","","","[{""page_index"":0,""viewing_time"":8306},{""page_index"":1,""viewing_time"":8033},{""page_index"":2,""viewing_time"":3409},{""page_index"":1,""viewing_time"":1495},{""page_index"":2,""viewing_time"":1280},{""page_index"":3,""viewing_time"":4944},{""page_index"":4,""viewing_time"":10984},{""page_index"":5,""viewing_time"":6343},{""page_index"":6,""viewing_time"":4025},{""page_index"":7,""viewing_time"":1664}]","","","","","","","","","","","","","","","","","","","","","","","","","","","","","","","","",""
"","canvas-keyboard-response","6","91873","0.0-6.0-0.0","582","","","","","pre trial waiting period","null","null","","","catch","sh","sw","l","190","198","170","191","209","284","trueblood","null","null","null","null","null","null","null","null","null","null","null","","180","200","260","200","36000","52000","[1,3]","450.9796969609713","491.6664119454189","406.42017853646666"
"","canvas-keyboard-response","7","91895","0.0-6.0-1.0","582","","","","","clear_screen","null","null","","","catch","sh","sw","l","190","198","170","191","209","284","trueblood","null","null","null","null","null","null","null","null","null","null","null","","180","200","260","200","36000","52000","[1,3]","450.9796969609713","491.6664119454189","406.42017853646666"
"","canvas-keyboard-response","8","92403","0.0-6.0-2.0","582","","","","","rectangles no change","null","null","","","catch","sh","sw","l","190","198","170","191","209","284","trueblood","null","null","null","null","null","null","null","null","null","null","null","","180","200","260","200","36000","52000","[1,3]","450.9796969609713","491.6664119454189","406.42017853646666"
"","canvas-keyboard-response","9","93741","0.0-6.0-3.0","582","","","","","rectangles with change","null","null","","","catch","sh","sw","l","190","198","170","191","209","284","trueblood","null","null","null","null","null","null","null","null","null","null","null","","180","200","260","200","36000","52000","[1,3]","450.9796969609713","491.6664119454189","406.42017853646666"
"","canvas-keyboard-response","10","93762","0.0-6.0-4.0","582","","","","","clear_screen","null","null","","","catch","sh","sw","l","190","198","170","191","209","284","trueblood","null","null","null","null","null","null","null","null","null","null","null","","180","200","260","200","36000","52000","[1,3]","450.9796969609713","491.6664119454189","406.42017853646666"
"","canvas-keyboard-response","11","94921","0.0-6.0-5.0","582","","","","","make choice","1155","3","","","catch","sh","sw","l","190","198","170","191","209","284","trueblood","null","null","null","null","null","null","null","null","null","null","null","","180","200","260","200","36000","52000","[1,3]","","",""
"","canvas-keyboard-response","12","94942","0.0-6.0-6.0","582","","","","","clear_screen","null","null","","","catch","sh","sw","l","190","198","170","191","209","284","trueblood","null","null","null","null","null","null","null","null","null","null","null","","180","200","260","200","36000","52000","[1,3]","","",""
"","canvas-keyboard-response","13","95144","0.0-6.0-0.1","582","","","","","pre trial waiting period","null","null","","","critical","t","d","c","164","240","160.6713","232.8713","240","164","trueblood","0.05","h","164","240","240","164","160.6713","232.8713","39360","39360","37415.7294","dc","null","null","null","null","null","null","[2,3]","457.0752173055718","473.1098540785873","489.9802027705574"
"","canvas-keyboard-response","14","95164","0.0-6.0-1.1","582","","","","","clear_screen","null","null","","","critical","t","d","c","164","240","160.6713","232.8713","240","164","trueblood","0.05","h","164","240","240","164","160.6713","232.8713","39360","39360","37415.7294","dc","null","null","null","null","null","null","[2,3]","457.0752173055718","473.1098540785873","489.9802027705574"
"","canvas-keyboard-response","15","95670","0.0-6.0-2.1","582","","","","","rectangles no change","null","null","","","critical","t","d","c","164","240","160.6713","232.8713","240","164","trueblood","0.05","h","164","240","240","164","160.6713","232.8713","39360","39360","37415.7294","dc","null","null","null","null","null","null","[2,3]","457.0752173055718","473.1098540785873","489.9802027705574"
"","canvas-keyboard-response","16","97011","0.0-6.0-3.1","582","","","","","rectangles with change","null","null","","","critical","t","d","c","164","240","160.6713","232.8713","240","164","trueblood","0.05","h","164","240","240","164","160.6713","232.8713","39360","39360","37415.7294","dc","null","null","null","null","null","null","[2,3]","457.0752173055718","473.1098540785873","489.9802027705574"
"","canvas-keyboard-response","17","97032","0.0-6.0-4.1","582","","","","","clear_screen","null","null","","","critical","t","d","c","164","240","160.6713","232.8713","240","164","trueblood","0.05","h","164","240","240","164","160.6713","232.8713","39360","39360","37415.7294","dc","null","null","null","null","null","null","[2,3]","457.0752173055718","473.1098540785873","489.9802027705574"
"","canvas-keyboard-response","18","99282","0.0-6.0-5.1","582","","","","","make choice","2240","2","","","critical","t","d","c","164","240","160.6713","232.8713","240","164","trueblood","0.05","h","164","240","240","164","160.6713","232.8713","39360","39360","37415.7294","dc","null","null","null","null","null","null","[2,3]","","",""
"","canvas-keyboard-response","19","99300","0.0-6.0-6.1","582","","","","","clear_screen","null","null","","","critical","t","d","c","164","240","160.6713","232.8713","240","164","trueblood","0.05","h","164","240","240","164","160.6713","232.8713","39360","39360","37415.7294","dc","null","null","null","null","null","null","[2,3]","","",""
"","canvas-keyboard-response","20","99500","0.0-6.0-0.2","582","","","","","pre trial waiting period","null","null","","","critical","d","c","t","160.6713","232.8713","240","164","164","240","trueblood","0.05","h","164","240","240","164","160.6713","232.8713","39360","39360","37415.7294","tc","null","null","null","null","null","null","[3,2]","471.52136958091904","512.6095769729807","460.4486147290288"
"","canvas-keyboard-response","21","99522","0.0-6.0-1.2","582","","","","","clear_screen","null","null","","","critical","d","c","t","160.6713","232.8713","240","164","164","240","trueblood","0.05","h","164","240","240","164","160.6713","232.8713","39360","39360","37415.7294","tc","null","null","null","null","null","null","[3,2]","471.52136958091904","512.6095769729807","460.4486147290288"
"","canvas-keyboard-response","22","100031","0.0-6.0-2.2","582","","","","","rectangles no change","null","null","","","critical","d","c","t","160.6713","232.8713","240","164","164","240","trueblood","0.05","h","164","240","240","164","160.6713","232.8713","39360","39360","37415.7294","tc","null","null","null","null","null","null","[3,2]","471.52136958091904","512.6095769729807","460.4486147290288"
"","canvas-keyboard-response","23","101368","0.0-6.0-3.2","582","","","","","rectangles with change","null","null","","","critical","d","c","t","160.6713","232.8713","240","164","164","240","trueblood","0.05","h","164","240","240","164","160.6713","232.8713","39360","39360","37415.7294","tc","null","null","null","null","null","null","[3,2]","471.52136958091904","512.6095769729807","460.4486147290288"
"","canvas-keyboard-response","24","101386","0.0-6.0-4.2","582","","","","","clear_screen","null","null","","","critical","d","c","t","160.6713","232.8713","240","164","164","240","trueblood","0.05","h","164","240","240","164","160.6713","232.8713","39360","39360","37415.7294","tc","null","null","null","null","null","null","[3,2]","471.52136958091904","512.6095769729807","460.4486147290288"
"","canvas-keyboard-response","25","102178","0.0-6.0-5.2","582","","","","","make choice","784","2","","","critical","d","c","t","160.6713","232.8713","240","164","164","240","trueblood","0.05","h","164","240","240","164","160.6713","232.8713","39360","39360","37415.7294","tc","null","null","null","null","null","null","[3,2]","","",""
"","canvas-keyboard-response","26","102196","0.0-6.0-6.2","582","","","","","clear_screen","null","null","","","critical","d","c","t","160.6713","232.8713","240","164","164","240","trueblood","0.05","h","164","240","240","164","160.6713","232.8713","39360","39360","37415.7294","tc","null","null","null","null","null","null","[3,2]","","",""
"","canvas-keyboard-response","27","102398","0.0-6.0-0.3","582","","","","","pre trial waiting period","null","null","","","critical","t","d","c","240","164","227.1683","158.0083","164","240","trueblood","0.09","w","240","164","164","240","227.1683","158.0083","39360","39360","35894.4834","dc","null","null","null","null","null","null","[2,3]","510.02345690178646","498.99231741993316","434.7419120133413"
"","canvas-keyboard-response","28","102417","0.0-6.0-1.3","582","","","","","clear_screen","null","null","","","critical","t","d","c","240","164","227.1683","158.0083","164","240","trueblood","0.09","w","240","164","164","240","227.1683","158.0083","39360","39360","35894.4834","dc","null","null","null","null","null","null","[2,3]","510.02345690178646","498.99231741993316","434.7419120133413"
"","canvas-keyboard-response","29","102923","0.0-6.0-2.3","582","","","","","rectangles no change","null","null","","","critical","t","d","c","240","164","227.1683","158.0083","164","240","trueblood","0.09","w","240","164","164","240","227.1683","158.0083","39360","39360","35894.4834","dc","null","null","null","null","null","null","[2,3]","510.02345690178646","498.99231741993316","434.7419120133413"
"","canvas-keyboard-response","30","104259","0.0-6.0-3.3","582","","","","","rectangles with change","null","null","","","critical","t","d","c","240","164","227.1683","158.0083","164","240","trueblood","0.09","w","240","164","164","240","227.1683","158.0083","39360","39360","35894.4834","dc","null","null","null","null","null","null","[2,3]","510.02345690178646","498.99231741993316","434.7419120133413"
"","canvas-keyboard-response","31","104281","0.0-6.0-4.3","582","","","","","clear_screen","null","null","","","critical","t","d","c","240","164","227.1683","158.0083","164","240","trueblood","0.09","w","240","164","164","240","227.1683","158.0083","39360","39360","35894.4834","dc","null","null","null","null","null","null","[2,3]","510.02345690178646","498.99231741993316","434.7419120133413"
"","canvas-keyboard-response","32","105714","0.0-6.0-5.3","582","","","","","make choice","1425","2","","","critical","t","d","c","240","164","227.1683","158.0083","164","240","trueblood","0.09","w","240","164","164","240","227.1683","158.0083","39360","39360","35894.4834","dc","null","null","null","null","null","null","[2,3]","","",""
"","canvas-keyboard-response","33","105733","0.0-6.0-6.3","582","","","","","clear_screen","null","null","","","critical","t","d","c","240","164","227.1683","158.0083","164","240","trueblood","0.09","w","240","164","164","240","227.1683","158.0083","39360","39360","35894.4834","dc","null","null","null","null","null","null","[2,3]","","",""
"","canvas-keyboard-response","34","105934","0.0-6.0-0.4","582","","","","","pre trial waiting period","null","null","","","critical","d","c","t","164","240","240","164","164","240","spektor","0","h","164","240","240","164","164","240","39360","39360","39360","tc","null","null","null","null","null","null","[3,2]","456.02868256048436","157.73531326441514","471.6642440742341"
"","canvas-keyboard-response","35","105953","0.0-6.0-1.4","582","","","","","clear_screen","null","null","","","critical","d","c","t","164","240","240","164","164","240","spektor","0","h","164","240","240","164","164","240","39360","39360","39360","tc","null","null","null","null","null","null","[3,2]","456.02868256048436","157.73531326441514","471.6642440742341"
"","canvas-keyboard-response","36","106458","0.0-6.0-2.4","582","","","","","rectangles no change","null","null","","","critical","d","c","t","164","240","240","164","164","240","spektor","0","h","164","240","240","164","164","240","39360","39360","39360","tc","null","null","null","null","null","null","[3,2]","456.02868256048436","157.73531326441514","471.6642440742341"
"","canvas-keyboard-response","37","107794","0.0-6.0-3.4","582","","","","","rectangles with change","null","null","","","critical","d","c","t","164","240","240","164","164","240","spektor","0","h","164","240","240","164","164","240","39360","39360","39360","tc","null","null","null","null","null","null","[3,2]","456.02868256048436","157.73531326441514","471.6642440742341"
"","canvas-keyboard-response","38","107812","0.0-6.0-4.4","582","","","","","clear_screen","null","null","","","critical","d","c","t","164","240","240","164","164","240","spektor","0","h","164","240","240","164","164","240","39360","39360","39360","tc","null","null","null","null","null","null","[3,2]","456.02868256048436","157.73531326441514","471.6642440742341"
"","canvas-keyboard-response","39","108601","0.0-6.0-5.4","582","","","","","make choice","783","2","","","critical","d","c","t","164","240","240","164","164","240","spektor","0","h","164","240","240","164","164","240","39360","39360","39360","tc","null","null","null","null","null","null","[3,2]","","",""
"","canvas-keyboard-response","40","108622","0.0-6.0-6.4","582","","","","","clear_screen","null","null","","","critical","d","c","t","164","240","240","164","164","240","spektor","0","h","164","240","240","164","164","240","39360","39360","39360","tc","null","null","null","null","null","null","[3,2]","","",""
"","canvas-keyboard-response","41","108823","0.0-6.0-0.5","582","","","","","pre trial waiting period","null","null","","","critical","d","c","t","162.6685","237.1485","240","164","164","240","trueblood","0.02","h","164","240","240","164","162.6685","237.1485","39360","39360","38576.5967","dc","null","null","null","null","null","null","[1,2]","467.47598032969427","478.17007995666836","429.10352551727135"
"","canvas-keyboard-response","42","108846","0.0-6.0-1.5","582","","","","","clear_screen","null","null","","","critical","d","c","t","162.6685","237.1485","240","164","164","240","trueblood","0.02","h","164","240","240","164","162.6685","237.1485","39360","39360","38576.5967","dc","null","null","null","null","null","null","[1,2]","467.47598032969427","478.17007995666836","429.10352551727135"
"","canvas-keyboard-response","43","109355","0.0-6.0-2.5","582","","","","","rectangles no change","null","null","","","critical","d","c","t","162.6685","237.1485","240","164","164","240","trueblood","0.02","h","164","240","240","164","162.6685","237.1485","39360","39360","38576.5967","dc","null","null","null","null","null","null","[1,2]","467.47598032969427","478.17007995666836","429.10352551727135"
"","canvas-keyboard-response","44","110692","0.0-6.0-3.5","582","","","","","rectangles with change","null","null","","","critical","d","c","t","162.6685","237.1485","240","164","164","240","trueblood","0.02","h","164","240","240","164","162.6685","237.1485","39360","39360","38576.5967","dc","null","null","null","null","null","null","[1,2]","467.47598032969427","478.17007995666836","429.10352551727135"
"","canvas-keyboard-response","45","110712","0.0-6.0-4.5","582","","","","","clear_screen","null","null","","","critical","d","c","t","162.6685","237.1485","240","164","164","240","trueblood","0.02","h","164","240","240","164","162.6685","237.1485","39360","39360","38576.5967","dc","null","null","null","null","null","null","[1,2]","467.47598032969427","478.17007995666836","429.10352551727135"
"","canvas-keyboard-response","46","112041","0.0-6.0-5.5","582","","","","","make choice","1323","2","","","critical","d","c","t","162.6685","237.1485","240","164","164","240","trueblood","0.02","h","164","240","240","164","162.6685","237.1485","39360","39360","38576.5967","dc","null","null","null","null","null","null","[1,2]","","",""
"","canvas-keyboard-response","47","112058","0.0-6.0-6.5","582","","","","","clear_screen","null","null","","","critical","d","c","t","162.6685","237.1485","240","164","164","240","trueblood","0.02","h","164","240","240","164","162.6685","237.1485","39360","39360","38576.5967","dc","null","null","null","null","null","null","[1,2]","","",""
"","canvas-keyboard-response","48","112259","0.0-6.0-0.6","582","","","","","pre trial waiting period","null","null","","","critical","t","d","c","164","240","164","240","240","164","trueblood","0","h","164","240","240","164","164","240","39360","39360","39360","td","null","null","null","null","null","null","[1,2]","443.32892640184843","464.1865735824504","513.8587186708846"
"","canvas-keyboard-response","49","112278","0.0-6.0-1.6","582","","","","","clear_screen","null","null","","","critical","t","d","c","164","240","164","240","240","164","trueblood","0","h","164","240","240","164","164","240","39360","39360","39360","td","null","null","null","null","null","null","[1,2]","443.32892640184843","464.1865735824504","513.8587186708846"
"","canvas-keyboard-response","50","112788","0.0-6.0-2.6","582","","","","","rectangles no change","null","null","","","critical","t","d","c","164","240","164","240","240","164","trueblood","0","h","164","240","240","164","164","240","39360","39360","39360","td","null","null","null","null","null","null","[1,2]","443.32892640184843","464.1865735824504","513.8587186708846"
"","canvas-keyboard-response","51","114122","0.0-6.0-3.6","582","","","","","rectangles with change","null","null","","","critical","t","d","c","164","240","164","240","240","164","trueblood","0","h","164","240","240","164","164","240","39360","39360","39360","td","null","null","null","null","null","null","[1,2]","443.32892640184843","464.1865735824504","513.8587186708846"
"","canvas-keyboard-response","52","114142","0.0-6.0-4.6","582","","","","","clear_screen","null","null","","","critical","t","d","c","164","240","164","240","240","164","trueblood","0","h","164","240","240","164","164","240","39360","39360","39360","td","null","null","null","null","null","null","[1,2]","443.32892640184843","464.1865735824504","513.8587186708846"
"","canvas-keyboard-response","53","117426","0.0-6.0-5.6","582","","","","","make choice","3278","2","","","critical","t","d","c","164","240","164","240","240","164","trueblood","0","h","164","240","240","164","164","240","39360","39360","39360","td","null","null","null","null","null","null","[1,2]","","",""
"","canvas-keyboard-response","54","117443","0.0-6.0-6.6","582","","","","","clear_screen","null","null","","","critical","t","d","c","164","240","164","240","240","164","trueblood","0","h","164","240","240","164","164","240","39360","39360","39360","td","null","null","null","null","null","null","[1,2]","","",""
"","canvas-keyboard-response","55","117644","0.0-6.0-0.7","582","","","","","pre trial waiting period","null","null","","","catch","sw","l","sh","180","200","223","178","186","173","spektor","null","null","null","null","null","null","null","null","null","null","null","","180","200","260","200","36000","52000","[1,2]","502.94826133810574","201.31463631657178","532.3330376440109"
"","canvas-keyboard-response","56","117665","0.0-6.0-1.7","582","","","","","clear_screen","null","null","","","catch","sw","l","sh","180","200","223","178","186","173","spektor","null","null","null","null","null","null","null","null","null","null","null","","180","200","260","200","36000","52000","[1,2]","502.94826133810574","201.31463631657178","532.3330376440109"
"","canvas-keyboard-response","57","118174","0.0-6.0-2.7","582","","","","","rectangles no change","null","null","","","catch","sw","l","sh","180","200","223","178","186","173","spektor","null","null","null","null","null","null","null","null","null","null","null","","180","200","260","200","36000","52000","[1,2]","502.94826133810574","201.31463631657178","532.3330376440109"
"","canvas-keyboard-response","58","119512","0.0-6.0-3.7","582","","","","","rectangles with change","null","null","","","catch","sw","l","sh","180","200","223","178","186","173","spektor","null","null","null","null","null","null","null","null","null","null","null","","180","200","260","200","36000","52000","[1,2]","502.94826133810574","201.31463631657178","532.3330376440109"
"","canvas-keyboard-response","59","119530","0.0-6.0-4.7","582","","","","","clear_screen","null","null","","","catch","sw","l","sh","180","200","223","178","186","173","spektor","null","null","null","null","null","null","null","null","null","null","null","","180","200","260","200","36000","52000","[1,2]","502.94826133810574","201.31463631657178","532.3330376440109"
"","canvas-keyboard-response","60","121049","0.0-6.0-5.7","582","","","","","make choice","1511","2","","","catch","sw","l","sh","180","200","223","178","186","173","spektor","null","null","null","null","null","null","null","null","null","null","null","","180","200","260","200","36000","52000","[1,2]","","",""
"","canvas-keyboard-response","61","121070","0.0-6.0-6.7","582","","","","","clear_screen","null","null","","","catch","sw","l","sh","180","200","223","178","186","173","spektor","null","null","null","null","null","null","null","null","null","null","null","","180","200","260","200","36000","52000","[1,2]","","",""
"","canvas-keyboard-response","62","121270","0.0-6.0-0.8","582","","","","","pre trial waiting period","null","null","","","critical","c","d","t","240","164","162.6685","237.1485","164","240","trueblood","0.02","h","164","240","240","164","162.6685","237.1485","39360","39360","38576.5967","td","null","null","null","null","null","null","[3,2]","481.24126914542296","467.8456677062696","466.88270155846413"
"","canvas-keyboard-response","63","121290","0.0-6.0-1.8","582","","","","","clear_screen","null","null","","","critical","c","d","t","240","164","162.6685","237.1485","164","240","trueblood","0.02","h","164","240","240","164","162.6685","237.1485","39360","39360","38576.5967","td","null","null","null","null","null","null","[3,2]","481.24126914542296","467.8456677062696","466.88270155846413"
"","canvas-keyboard-response","64","121796","0.0-6.0-2.8","582","","","","","rectangles no change","null","null","","","critical","c","d","t","240","164","162.6685","237.1485","164","240","trueblood","0.02","h","164","240","240","164","162.6685","237.1485","39360","39360","38576.5967","td","null","null","null","null","null","null","[3,2]","481.24126914542296","467.8456677062696","466.88270155846413"
"","canvas-keyboard-response","65","123136","0.0-6.0-3.8","582","","","","","rectangles with change","null","null","","","critical","c","d","t","240","164","162.6685","237.1485","164","240","trueblood","0.02","h","164","240","240","164","162.6685","237.1485","39360","39360","38576.5967","td","null","null","null","null","null","null","[3,2]","481.24126914542296","467.8456677062696","466.88270155846413"
"","canvas-keyboard-response","66","123156","0.0-6.0-4.8","582","","","","","clear_screen","null","null","","","critical","c","d","t","240","164","162.6685","237.1485","164","240","trueblood","0.02","h","164","240","240","164","162.6685","237.1485","39360","39360","38576.5967","td","null","null","null","null","null","null","[3,2]","481.24126914542296","467.8456677062696","466.88270155846413"
"","canvas-keyboard-response","67","123833","0.0-6.0-5.8","582","","","","","make choice","672","3","","","critical","c","d","t","240","164","162.6685","237.1485","164","240","trueblood","0.02","h","164","240","240","164","162.6685","237.1485","39360","39360","38576.5967","td","null","null","null","null","null","null","[3,2]","","",""
"","canvas-keyboard-response","68","123853","0.0-6.0-6.8","582","","","","","clear_screen","null","null","","","critical","c","d","t","240","164","162.6685","237.1485","164","240","trueblood","0.02","h","164","240","240","164","162.6685","237.1485","39360","39360","38576.5967","td","null","null","null","null","null","null","[3,2]","","",""
"","canvas-keyboard-response","69","124055","0.0-6.0-0.9","582","","","","","pre trial waiting period","null","null","","","catch","sw","l","sh","180","200","227","230","197","142","spektor","null","null","null","null","null","null","null","null","null","null","null","","180","200","260","200","36000","52000","[1,2]","507.820542575969","145.02108622490798","534.4154428879154"
"","canvas-keyboard-response","70","124077","0.0-6.0-1.9","582","","","","","clear_screen","null","null","","","catch","sw","l","sh","180","200","227","230","197","142","spektor","null","null","null","null","null","null","null","null","null","null","null","","180","200","260","200","36000","52000","[1,2]","507.820542575969","145.02108622490798","534.4154428879154"
"","canvas-keyboard-response","71","124584","0.0-6.0-2.9","582","","","","","rectangles no change","null","null","","","catch","sw","l","sh","180","200","227","230","197","142","spektor","null","null","null","null","null","null","null","null","null","null","null","","180","200","260","200","36000","52000","[1,2]","507.820542575969","145.02108622490798","534.4154428879154"
"","canvas-keyboard-response","72","125921","0.0-6.0-3.9","582","","","","","rectangles with change","null","null","","","catch","sw","l","sh","180","200","227","230","197","142","spektor","null","null","null","null","null","null","null","null","null","null","null","","180","200","260","200","36000","52000","[1,2]","507.820542575969","145.02108622490798","534.4154428879154"
"","canvas-keyboard-response","73","125943","0.0-6.0-4.9","582","","","","","clear_screen","null","null","","","catch","sw","l","sh","180","200","227","230","197","142","spektor","null","null","null","null","null","null","null","null","null","null","null","","180","200","260","200","36000","52000","[1,2]","507.820542575969","145.02108622490798","534.4154428879154"
"","canvas-keyboard-response","74","126610","0.0-6.0-5.9","582","","","","","make choice","662","2","","","catch","sw","l","sh","180","200","227","230","197","142","spektor","null","null","null","null","null","null","null","null","null","null","null","","180","200","260","200","36000","52000","[1,2]","","",""
"","canvas-keyboard-response","75","126628","0.0-6.0-6.9","582","","","","","clear_screen","null","null","","","catch","sw","l","sh","180","200","227","230","197","142","spektor","null","null","null","null","null","null","null","null","null","null","null","","180","200","260","200","36000","52000","[1,2]","","",""
"","canvas-keyboard-response","76","126829","0.0-6.0-0.10","582","","","","","pre trial waiting period","null","null","","","critical","t","c","d","240","164","164","240","232.8713","160.6713","trueblood","0.05","w","240","164","164","240","232.8713","160.6713","39360","39360","37415.7294","tc","null","null","null","null","null","null","[1,2]","510.44718817309473","431.48419776749955","491.6472503308237"
"","canvas-keyboard-response","77","126853","0.0-6.0-1.10","582","","","","","clear_screen","null","null","","","critical","t","c","d","240","164","164","240","232.8713","160.6713","trueblood","0.05","w","240","164","164","240","232.8713","160.6713","39360","39360","37415.7294","tc","null","null","null","null","null","null","[1,2]","510.44718817309473","431.48419776749955","491.6472503308237"
"","canvas-keyboard-response","78","127360","0.0-6.0-2.10","582","","","","","rectangles no change","null","null","","","critical","t","c","d","240","164","164","240","232.8713","160.6713","trueblood","0.05","w","240","164","164","240","232.8713","160.6713","39360","39360","37415.7294","tc","null","null","null","null","null","null","[1,2]","510.44718817309473","431.48419776749955","491.6472503308237"
"","canvas-keyboard-response","79","128701","0.0-6.0-3.10","582","","","","","rectangles with change","null","null","","","critical","t","c","d","240","164","164","240","232.8713","160.6713","trueblood","0.05","w","240","164","164","240","232.8713","160.6713","39360","39360","37415.7294","tc","null","null","null","null","null","null","[1,2]","510.44718817309473","431.48419776749955","491.6472503308237"
"","canvas-keyboard-response","80","128721","0.0-6.0-4.10","582","","","","","clear_screen","null","null","","","critical","t","c","d","240","164","164","240","232.8713","160.6713","trueblood","0.05","w","240","164","164","240","232.8713","160.6713","39360","39360","37415.7294","tc","null","null","null","null","null","null","[1,2]","510.44718817309473","431.48419776749955","491.6472503308237"
"","canvas-keyboard-response","81","129962","0.0-6.0-5.10","582","","","","","make choice","1235","1","","","critical","t","c","d","240","164","164","240","232.8713","160.6713","trueblood","0.05","w","240","164","164","240","232.8713","160.6713","39360","39360","37415.7294","tc","null","null","null","null","null","null","[1,2]","","",""
"","canvas-keyboard-response","82","129978","0.0-6.0-6.10","582","","","","","clear_screen","null","null","","","critical","t","c","d","240","164","164","240","232.8713","160.6713","trueblood","0.05","w","240","164","164","240","232.8713","160.6713","39360","39360","37415.7294","tc","null","null","null","null","null","null","[1,2]","","",""
"","canvas-keyboard-response","83","130179","0.0-6.0-0.11","582","","","","","pre trial waiting period","null","null","","","catch","sw","l","sh","180","200","292","233","189","214","spektor","null","null","null","null","null","null","null","null","null","null","null","","180","200","260","200","36000","52000","[2,3]","496.33996740494086","139.9169980004538","481.14712144084496"
"","canvas-keyboard-response","84","130198","0.0-6.0-1.11","582","","","","","clear_screen","null","null","","","catch","sw","l","sh","180","200","292","233","189","214","spektor","null","null","null","null","null","null","null","null","null","null","null","","180","200","260","200","36000","52000","[2,3]","496.33996740494086","139.9169980004538","481.14712144084496"
"","canvas-keyboard-response","85","130708","0.0-6.0-2.11","582","","","","","rectangles no change","null","null","","","catch","sw","l","sh","180","200","292","233","189","214","spektor","null","null","null","null","null","null","null","null","null","null","null","","180","200","260","200","36000","52000","[2,3]","496.33996740494086","139.9169980004538","481.14712144084496"
"","canvas-keyboard-response","86","132045","0.0-6.0-3.11","582","","","","","rectangles with change","null","null","","","catch","sw","l","sh","180","200","292","233","189","214","spektor","null","null","null","null","null","null","null","null","null","null","null","","180","200","260","200","36000","52000","[2,3]","496.33996740494086","139.9169980004538","481.14712144084496"
"","canvas-keyboard-response","87","132065","0.0-6.0-4.11","582","","","","","clear_screen","null","null","","","catch","sw","l","sh","180","200","292","233","189","214","spektor","null","null","null","null","null","null","null","null","null","null","null","","180","200","260","200","36000","52000","[2,3]","496.33996740494086","139.9169980004538","481.14712144084496"
"","canvas-keyboard-response","88","132208","0.0-6.0-5.11","582","","","","","make choice","136","2","","","catch","sw","l","sh","180","200","292","233","189","214","spektor","null","null","null","null","null","null","null","null","null","null","null","","180","200","260","200","36000","52000","[2,3]","","",""
"","canvas-keyboard-response","89","132227","0.0-6.0-6.11","582","","","","","clear_screen","null","null","","","catch","sw","l","sh","180","200","292","233","189","214","spektor","null","null","null","null","null","null","null","null","null","null","null","","180","200","260","200","36000","52000","[2,3]","","",""
"","canvas-keyboard-response","90","132429","0.0-6.0-0.12","582","","","","","pre trial waiting period","null","null","","","catch","sh","l","sw","210","145","227","203","185","168","spektor","null","null","null","null","null","null","null","null","null","null","null","","180","200","260","200","36000","52000","[2,3]","519.9007924457784","188.23180585100104","500.63362822359176"
"","canvas-keyboard-response","91","132448","0.0-6.0-1.12","582","","","","","clear_screen","null","null","","","catch","sh","l","sw","210","145","227","203","185","168","spektor","null","null","null","null","null","null","null","null","null","null","null","","180","200","260","200","36000","52000","[2,3]","519.9007924457784","188.23180585100104","500.63362822359176"
"","canvas-keyboard-response","92","132959","0.0-6.0-2.12","582","","","","","rectangles no change","null","null","","","catch","sh","l","sw","210","145","227","203","185","168","spektor","null","null","null","null","null","null","null","null","null","null","null","","180","200","260","200","36000","52000","[2,3]","519.9007924457784","188.23180585100104","500.63362822359176"
"","canvas-keyboard-response","93","134299","0.0-6.0-3.12","582","","","","","rectangles with change","null","null","","","catch","sh","l","sw","210","145","227","203","185","168","spektor","null","null","null","null","null","null","null","null","null","null","null","","180","200","260","200","36000","52000","[2,3]","519.9007924457784","188.23180585100104","500.63362822359176"
"","canvas-keyboard-response","94","134318","0.0-6.0-4.12","582","","","","","clear_screen","null","null","","","catch","sh","l","sw","210","145","227","203","185","168","spektor","null","null","null","null","null","null","null","null","null","null","null","","180","200","260","200","36000","52000","[2,3]","519.9007924457784","188.23180585100104","500.63362822359176"
"","canvas-keyboard-response","95","134417","0.0-6.0-5.12","582","","","","","make choice","91","2","","","catch","sh","l","sw","210","145","227","203","185","168","spektor","null","null","null","null","null","null","null","null","null","null","null","","180","200","260","200","36000","52000","[2,3]","","",""
"","canvas-keyboard-response","96","134437","0.0-6.0-6.12","582","","","","","clear_screen","null","null","","","catch","sh","l","sw","210","145","227","203","185","168","spektor","null","null","null","null","null","null","null","null","null","null","null","","180","200","260","200","36000","52000","[2,3]","","",""
"","canvas-keyboard-response","97","134638","0.0-6.0-0.13","582","","","","","pre trial waiting period","null","null","","","catch","l","sh","sw","201","279","224","169","177","161","trueblood","null","null","null","null","null","null","null","null","null","null","null","","180","200","260","200","36000","52000","[1,3]","409.3663464501611","503.59959163539315","494.98365441498726"
"","canvas-keyboard-response","98","134661","0.0-6.0-1.13","582","","","","","clear_screen","null","null","","","catch","l","sh","sw","201","279","224","169","177","161","trueblood","null","null","null","null","null","null","null","null","null","null","null","","180","200","260","200","36000","52000","[1,3]","409.3663464501611","503.59959163539315","494.98365441498726"
"","canvas-keyboard-response","99","135167","0.0-6.0-2.13","582","","","","","rectangles no change","null","null","","","catch","l","sh","sw","201","279","224","169","177","161","trueblood","null","null","null","null","null","null","null","null","null","null","null","","180","200","260","200","36000","52000","[1,3]","409.3663464501611","503.59959163539315","494.98365441498726"
"","canvas-keyboard-response","100","136504","0.0-6.0-3.13","582","","","","","rectangles with change","null","null","","","catch","l","sh","sw","201","279","224","169","177","161","trueblood","null","null","null","null","null","null","null","null","null","null","null","","180","200","260","200","36000","52000","[1,3]","409.3663464501611","503.59959163539315","494.98365441498726"
"","canvas-keyboard-response","101","136523","0.0-6.0-4.13","582","","","","","clear_screen","null","null","","","catch","l","sh","sw","201","279","224","169","177","161","trueblood","null","null","null","null","null","null","null","null","null","null","null","","180","200","260","200","36000","52000","[1,3]","409.3663464501611","503.59959163539315","494.98365441498726"
"","canvas-keyboard-response","102","136849","0.0-6.0-5.13","582","","","","","make choice","322","1","","","catch","l","sh","sw","201","279","224","169","177","161","trueblood","null","null","null","null","null","null","null","null","null","null","null","","180","200","260","200","36000","52000","[1,3]","","",""
"","canvas-keyboard-response","103","136866","0.0-6.0-6.13","582","","","","","clear_screen","null","null","","","catch","l","sh","sw","201","279","224","169","177","161","trueblood","null","null","null","null","null","null","null","null","null","null","null","","180","200","260","200","36000","52000","[1,3]","","",""
"","canvas-keyboard-response","104","137067","0.0-6.0-0.14","582","","","","","pre trial waiting period","null","null","","","critical","c","d","t","240","164","154.6796","220.0396","164","240","spektor","0.14","h","164","240","240","164","154.6796","220.0396","39360","39360","34035.6388","tc","null","null","null","null","null","null","[3,1]","542.6152390249307","155.40377914949096","500.98862075902326"
"","canvas-keyboard-response","105","137088","0.0-6.0-1.14","582","","","","","clear_screen","null","null","","","critical","c","d","t","240","164","154.6796","220.0396","164","240","spektor","0.14","h","164","240","240","164","154.6796","220.0396","39360","39360","34035.6388","tc","null","null","null","null","null","null","[3,1]","542.6152390249307","155.40377914949096","500.98862075902326"
"","canvas-keyboard-response","106","137595","0.0-6.0-2.14","582","","","","","rectangles no change","null","null","","","critical","c","d","t","240","164","154.6796","220.0396","164","240","spektor","0.14","h","164","240","240","164","154.6796","220.0396","39360","39360","34035.6388","tc","null","null","null","null","null","null","[3,1]","542.6152390249307","155.40377914949096","500.98862075902326"
"","canvas-keyboard-response","107","138933","0.0-6.0-3.14","582","","","","","rectangles with change","null","null","","","critical","c","d","t","240","164","154.6796","220.0396","164","240","spektor","0.14","h","164","240","240","164","154.6796","220.0396","39360","39360","34035.6388","tc","null","null","null","null","null","null","[3,1]","542.6152390249307","155.40377914949096","500.98862075902326"
"","canvas-keyboard-response","108","138952","0.0-6.0-4.14","582","","","","","clear_screen","null","null","","","critical","c","d","t","240","164","154.6796","220.0396","164","240","spektor","0.14","h","164","240","240","164","154.6796","220.0396","39360","39360","34035.6388","tc","null","null","null","null","null","null","[3,1]","542.6152390249307","155.40377914949096","500.98862075902326"
"","canvas-keyboard-response","109","140553","0.0-6.0-5.14","582","","","","","make choice","1594","1","","","critical","c","d","t","240","164","154.6796","220.0396","164","240","spektor","0.14","h","164","240","240","164","154.6796","220.0396","39360","39360","34035.6388","tc","null","null","null","null","null","null","[3,1]","","",""
"","canvas-keyboard-response","110","140571","0.0-6.0-6.14","582","","","","","clear_screen","null","null","","","critical","c","d","t","240","164","154.6796","220.0396","164","240","spektor","0.14","h","164","240","240","164","154.6796","220.0396","39360","39360","34035.6388","tc","null","null","null","null","null","null","[3,1]","","",""
"","canvas-keyboard-response","111","140772","0.0-6.0-0.15","582","","","","","pre trial waiting period","null","null","","","critical","c","d","t","164","240","220.0396","154.6796","240","164","spektor","0.14","w","240","164","164","240","220.0396","154.6796","39360","39360","34035.6388","tc","null","null","null","null","null","null","[3,1]","481.2529342768255","206.72854855381019","502.14763176288784"
"","canvas-keyboard-response","112","140792","0.0-6.0-1.15","582","","","","","clear_screen","null","null","","","critical","c","d","t","164","240","220.0396","154.6796","240","164","spektor","0.14","w","240","164","164","240","220.0396","154.6796","39360","39360","34035.6388","tc","null","null","null","null","null","null","[3,1]","481.2529342768255","206.72854855381019","502.14763176288784"
"","canvas-keyboard-response","113","141298","0.0-6.0-2.15","582","","","","","rectangles no change","null","null","","","critical","c","d","t","164","240","220.0396","154.6796","240","164","spektor","0.14","w","240","164","164","240","220.0396","154.6796","39360","39360","34035.6388","tc","null","null","null","null","null","null","[3,1]","481.2529342768255","206.72854855381019","502.14763176288784"
"","canvas-keyboard-response","114","142634","0.0-6.0-3.15","582","","","","","rectangles with change","null","null","","","critical","c","d","t","164","240","220.0396","154.6796","240","164","spektor","0.14","w","240","164","164","240","220.0396","154.6796","39360","39360","34035.6388","tc","null","null","null","null","null","null","[3,1]","481.2529342768255","206.72854855381019","502.14763176288784"
"","canvas-keyboard-response","115","142654","0.0-6.0-4.15","582","","","","","clear_screen","null","null","","","critical","c","d","t","164","240","220.0396","154.6796","240","164","spektor","0.14","w","240","164","164","240","220.0396","154.6796","39360","39360","34035.6388","tc","null","null","null","null","null","null","[3,1]","481.2529342768255","206.72854855381019","502.14763176288784"
"","canvas-keyboard-response","116","143793","0.0-6.0-5.15","582","","","","","make choice","1130","3","","","critical","c","d","t","164","240","220.0396","154.6796","240","164","spektor","0.14","w","240","164","164","240","220.0396","154.6796","39360","39360","34035.6388","tc","null","null","null","null","null","null","[3,1]","","",""
"","canvas-keyboard-response","117","143810","0.0-6.0-6.15","582","","","","","clear_screen","null","null","","","critical","c","d","t","164","240","220.0396","154.6796","240","164","spektor","0.14","w","240","164","164","240","220.0396","154.6796","39360","39360","34035.6388","tc","null","null","null","null","null","null","[3,1]","","",""
"","canvas-keyboard-response","118","144011","0.0-6.0-0.16","582","","","","","pre trial waiting period","null","null","","","critical","d","c","t","227.1683","158.0083","164","240","240","164","trueblood","0.09","w","240","164","164","240","227.1683","158.0083","39360","39360","35894.4834","tc","null","null","null","null","null","null","[3,2]","493.4543894876048","430.7018326168021","485.6786645399969"
"","canvas-keyboard-response","119","144029","0.0-6.0-1.16","582","","","","","clear_screen","null","null","","","critical","d","c","t","227.1683","158.0083","164","240","240","164","trueblood","0.09","w","240","164","164","240","227.1683","158.0083","39360","39360","35894.4834","tc","null","null","null","null","null","null","[3,2]","493.4543894876048","430.7018326168021","485.6786645399969"
"","canvas-keyboard-response","120","144535","0.0-6.0-2.16","582","","","","","rectangles no change","null","null","","","critical","d","c","t","227.1683","158.0083","164","240","240","164","trueblood","0.09","w","240","164","164","240","227.1683","158.0083","39360","39360","35894.4834","tc","null","null","null","null","null","null","[3,2]","493.4543894876048","430.7018326168021","485.6786645399969"
"","canvas-keyboard-response","121","145871","0.0-6.0-3.16","582","","","","","rectangles with change","null","null","","","critical","d","c","t","227.1683","158.0083","164","240","240","164","trueblood","0.09","w","240","164","164","240","227.1683","158.0083","39360","39360","35894.4834","tc","null","null","null","null","null","null","[3,2]","493.4543894876048","430.7018326168021","485.6786645399969"
"","canvas-keyboard-response","122","145891","0.0-6.0-4.16","582","","","","","clear_screen","null","null","","","critical","d","c","t","227.1683","158.0083","164","240","240","164","trueblood","0.09","w","240","164","164","240","227.1683","158.0083","39360","39360","35894.4834","tc","null","null","null","null","null","null","[3,2]","493.4543894876048","430.7018326168021","485.6786645399969"
"","canvas-keyboard-response","123","146464","0.0-6.0-5.16","582","","","","","make choice","568","3","","","critical","d","c","t","227.1683","158.0083","164","240","240","164","trueblood","0.09","w","240","164","164","240","227.1683","158.0083","39360","39360","35894.4834","tc","null","null","null","null","null","null","[3,2]","","",""
"","canvas-keyboard-response","124","146483","0.0-6.0-6.16","582","","","","","clear_screen","null","null","","","critical","d","c","t","227.1683","158.0083","164","240","240","164","trueblood","0.09","w","240","164","164","240","227.1683","158.0083","39360","39360","35894.4834","tc","null","null","null","null","null","null","[3,2]","","",""
"","canvas-keyboard-response","125","146683","0.0-6.0-0.17","582","","","","","pre trial waiting period","null","null","","","critical","d","c","t","158.0083","227.1683","240","164","164","240","spektor","0.09","h","164","240","240","164","158.0083","227.1683","39360","39360","35894.4834","td","null","null","null","null","null","null","[3,1]","477.5347700937337","158.60820686453005","485.5732339481205"
"","canvas-keyboard-response","126","146702","0.0-6.0-1.17","582","","","","","clear_screen","null","null","","","critical","d","c","t","158.0083","227.1683","240","164","164","240","spektor","0.09","h","164","240","240","164","158.0083","227.1683","39360","39360","35894.4834","td","null","null","null","null","null","null","[3,1]","477.5347700937337","158.60820686453005","485.5732339481205"
"","canvas-keyboard-response","127","147208","0.0-6.0-2.17","582","","","","","rectangles no change","null","null","","","critical","d","c","t","158.0083","227.1683","240","164","164","240","spektor","0.09","h","164","240","240","164","158.0083","227.1683","39360","39360","35894.4834","td","null","null","null","null","null","null","[3,1]","477.5347700937337","158.60820686453005","485.5732339481205"
"","canvas-keyboard-response","128","148546","0.0-6.0-3.17","582","","","","","rectangles with change","null","null","","","critical","d","c","t","158.0083","227.1683","240","164","164","240","spektor","0.09","h","164","240","240","164","158.0083","227.1683","39360","39360","35894.4834","td","null","null","null","null","null","null","[3,1]","477.5347700937337","158.60820686453005","485.5732339481205"
"","canvas-keyboard-response","129","148567","0.0-6.0-4.17","582","","","","","clear_screen","null","null","","","critical","d","c","t","158.0083","227.1683","240","164","164","240","spektor","0.09","h","164","240","240","164","158.0083","227.1683","39360","39360","35894.4834","td","null","null","null","null","null","null","[3,1]","477.5347700937337","158.60820686453005","485.5732339481205"
"","canvas-keyboard-response","130","149162","0.0-6.0-5.17","582","","","","","make choice","590","3","","","critical","d","c","t","158.0083","227.1683","240","164","164","240","spektor","0.09","h","164","240","240","164","158.0083","227.1683","39360","39360","35894.4834","td","null","null","null","null","null","null","[3,1]","","",""
"","canvas-keyboard-response","131","149180","0.0-6.0-6.17","582","","","","","clear_screen","null","null","","","critical","d","c","t","158.0083","227.1683","240","164","164","240","spektor","0.09","h","164","240","240","164","158.0083","227.1683","39360","39360","35894.4834","td","null","null","null","null","null","null","[3,1]","","",""
"","canvas-keyboard-response","132","149380","0.0-6.0-0.18","582","","","","","pre trial waiting period","null","null","","","critical","t","c","d","240","164","164","240","227.1683","158.0083","spektor","0.09","w","240","164","164","240","227.1683","158.0083","39360","39360","35894.4834","dc","null","null","null","null","null","null","[3,2]","505.27338639789343","147.6973732507913","503.9660347669236"
"","canvas-keyboard-response","133","149401","0.0-6.0-1.18","582","","","","","clear_screen","null","null","","","critical","t","c","d","240","164","164","240","227.1683","158.0083","spektor","0.09","w","240","164","164","240","227.1683","158.0083","39360","39360","35894.4834","dc","null","null","null","null","null","null","[3,2]","505.27338639789343","147.6973732507913","503.9660347669236"
"","canvas-keyboard-response","134","149906","0.0-6.0-2.18","582","","","","","rectangles no change","null","null","","","critical","t","c","d","240","164","164","240","227.1683","158.0083","spektor","0.09","w","240","164","164","240","227.1683","158.0083","39360","39360","35894.4834","dc","null","null","null","null","null","null","[3,2]","505.27338639789343","147.6973732507913","503.9660347669236"
"","canvas-keyboard-response","135","151245","0.0-6.0-3.18","582","","","","","rectangles with change","null","null","","","critical","t","c","d","240","164","164","240","227.1683","158.0083","spektor","0.09","w","240","164","164","240","227.1683","158.0083","39360","39360","35894.4834","dc","null","null","null","null","null","null","[3,2]","505.27338639789343","147.6973732507913","503.9660347669236"
"","canvas-keyboard-response","136","151267","0.0-6.0-4.18","582","","","","","clear_screen","null","null","","","critical","t","c","d","240","164","164","240","227.1683","158.0083","spektor","0.09","w","240","164","164","240","227.1683","158.0083","39360","39360","35894.4834","dc","null","null","null","null","null","null","[3,2]","505.27338639789343","147.6973732507913","503.9660347669236"
"","canvas-keyboard-response","137","152416","0.0-6.0-5.18","582","","","","","make choice","1146","2","","","critical","t","c","d","240","164","164","240","227.1683","158.0083","spektor","0.09","w","240","164","164","240","227.1683","158.0083","39360","39360","35894.4834","dc","null","null","null","null","null","null","[3,2]","","",""
"","canvas-keyboard-response","138","152435","0.0-6.0-6.18","582","","","","","clear_screen","null","null","","","critical","t","c","d","240","164","164","240","227.1683","158.0083","spektor","0.09","w","240","164","164","240","227.1683","158.0083","39360","39360","35894.4834","dc","null","null","null","null","null","null","[3,2]","","",""
"","canvas-keyboard-response","139","152636","0.0-6.0-0.19","582","","","","","pre trial waiting period","null","null","","","catch","l","sh","sw","277","210","195","165","216","226","trueblood","null","null","null","null","null","null","null","null","null","null","null","","180","200","260","200","36000","52000","[1,3]","477.18847076018403","494.51033989765364","469.84967278208694"
"","canvas-keyboard-response","140","152656","0.0-6.0-1.19","582","","","","","clear_screen","null","null","","","catch","l","sh","sw","277","210","195","165","216","226","trueblood","null","null","null","null","null","null","null","null","null","null","null","","180","200","260","200","36000","52000","[1,3]","477.18847076018403","494.51033989765364","469.84967278208694"
"","canvas-keyboard-response","141","153166","0.0-6.0-2.19","582","","","","","rectangles no change","null","null","","","catch","l","sh","sw","277","210","195","165","216","226","trueblood","null","null","null","null","null","null","null","null","null","null","null","","180","200","260","200","36000","52000","[1,3]","477.18847076018403","494.51033989765364","469.84967278208694"
"","canvas-keyboard-response","142","154502","0.0-6.0-3.19","582","","","","","rectangles with change","null","null","","","catch","l","sh","sw","277","210","195","165","216","226","trueblood","null","null","null","null","null","null","null","null","null","null","null","","180","200","260","200","36000","52000","[1,3]","477.18847076018403","494.51033989765364","469.84967278208694"
"","canvas-keyboard-response","143","154524","0.0-6.0-4.19","582","","","","","clear_screen","null","null","","","catch","l","sh","sw","277","210","195","165","216","226","trueblood","null","null","null","null","null","null","null","null","null","null","null","","180","200","260","200","36000","52000","[1,3]","477.18847076018403","494.51033989765364","469.84967278208694"
"","canvas-keyboard-response","144","154841","0.0-6.0-5.19","582","","","","","make choice","309","1","","","catch","l","sh","sw","277","210","195","165","216","226","trueblood","null","null","null","null","null","null","null","null","null","null","null","","180","200","260","200","36000","52000","[1,3]","","",""
"","canvas-keyboard-response","145","154859","0.0-6.0-6.19","582","","","","","clear_screen","null","null","","","catch","l","sh","sw","277","210","195","165","216","226","trueblood","null","null","null","null","null","null","null","null","null","null","null","","180","200","260","200","36000","52000","[1,3]","","",""
"","canvas-keyboard-response","146","155061","0.0-6.0-0.20","582","","","","","pre trial waiting period","null","null","","","critical","c","t","d","164","240","240","164","240","164","trueblood","0","w","240","164","164","240","240","164","39360","39360","39360","dc","null","null","null","null","null","null","[3,1]","463.6389957803292","509.6391371231528","490.2276642119864"
"","canvas-keyboard-response","147","155079","0.0-6.0-1.20","582","","","","","clear_screen","null","null","","","critical","c","t","d","164","240","240","164","240","164","trueblood","0","w","240","164","164","240","240","164","39360","39360","39360","dc","null","null","null","null","null","null","[3,1]","463.6389957803292","509.6391371231528","490.2276642119864"
"","canvas-keyboard-response","148","155586","0.0-6.0-2.20","582","","","","","rectangles no change","null","null","","","critical","c","t","d","164","240","240","164","240","164","trueblood","0","w","240","164","164","240","240","164","39360","39360","39360","dc","null","null","null","null","null","null","[3,1]","463.6389957803292","509.6391371231528","490.2276642119864"
"","canvas-keyboard-response","149","156922","0.0-6.0-3.20","582","","","","","rectangles with change","null","null","","","critical","c","t","d","164","240","240","164","240","164","trueblood","0","w","240","164","164","240","240","164","39360","39360","39360","dc","null","null","null","null","null","null","[3,1]","463.6389957803292","509.6391371231528","490.2276642119864"
"","canvas-keyboard-response","150","156940","0.0-6.0-4.20","582","","","","","clear_screen","null","null","","","critical","c","t","d","164","240","240","164","240","164","trueblood","0","w","240","164","164","240","240","164","39360","39360","39360","dc","null","null","null","null","null","null","[3,1]","463.6389957803292","509.6391371231528","490.2276642119864"
"","canvas-keyboard-response","151","157930","0.0-6.0-5.20","582","","","","","make choice","982","3","","","critical","c","t","d","164","240","240","164","240","164","trueblood","0","w","240","164","164","240","240","164","39360","39360","39360","dc","null","null","null","null","null","null","[3,1]","","",""
"","canvas-keyboard-response","152","157950","0.0-6.0-6.20","582","","","","","clear_screen","null","null","","","critical","c","t","d","164","240","240","164","240","164","trueblood","0","w","240","164","164","240","240","164","39360","39360","39360","dc","null","null","null","null","null","null","[3,1]","","",""
"","canvas-keyboard-response","153","158153","0.0-6.0-0.21","582","","","","","pre trial waiting period","null","null","","","catch","l","sw","sh","299","212","181","180","183","203","spektor","null","null","null","null","null","null","null","null","null","null","null","","180","200","260","200","36000","52000","[1,2]","475.41459430781936","154.33831713590845","494.19858579434015"
"","canvas-keyboard-response","154","158178","0.0-6.0-1.21","582","","","","","clear_screen","null","null","","","catch","l","sw","sh","299","212","181","180","183","203","spektor","null","null","null","null","null","null","null","null","null","null","null","","180","200","260","200","36000","52000","[1,2]","475.41459430781936","154.33831713590845","494.19858579434015"
"","canvas-keyboard-response","155","158687","0.0-6.0-2.21","582","","","","","rectangles no change","null","null","","","catch","l","sw","sh","299","212","181","180","183","203","spektor","null","null","null","null","null","null","null","null","null","null","null","","180","200","260","200","36000","52000","[1,2]","475.41459430781936","154.33831713590845","494.19858579434015"
"","canvas-keyboard-response","156","160023","0.0-6.0-3.21","582","","","","","rectangles with change","null","null","","","catch","l","sw","sh","299","212","181","180","183","203","spektor","null","null","null","null","null","null","null","null","null","null","null","","180","200","260","200","36000","52000","[1,2]","475.41459430781936","154.33831713590845","494.19858579434015"
"","canvas-keyboard-response","157","160045","0.0-6.0-4.21","582","","","","","clear_screen","null","null","","","catch","l","sw","sh","299","212","181","180","183","203","spektor","null","null","null","null","null","null","null","null","null","null","null","","180","200","260","200","36000","52000","[1,2]","475.41459430781936","154.33831713590845","494.19858579434015"
"","canvas-keyboard-response","158","160545","0.0-6.0-5.21","582","","","","","make choice","495","1","","","catch","l","sw","sh","299","212","181","180","183","203","spektor","null","null","null","null","null","null","null","null","null","null","null","","180","200","260","200","36000","52000","[1,2]","","",""
"","canvas-keyboard-response","159","160566","0.0-6.0-6.21","582","","","","","clear_screen","null","null","","","catch","l","sw","sh","299","212","181","180","183","203","spektor","null","null","null","null","null","null","null","null","null","null","null","","180","200","260","200","36000","52000","[1,2]","","",""
"","canvas-keyboard-response","160","160767","0.0-6.0-0.22","582","","","","","pre trial waiting period","null","null","","","catch","sh","sw","l","229","217","176","211","221","253","trueblood","null","null","null","null","null","null","null","null","null","null","null","","180","200","260","200","36000","52000","[2,3]","435.6862103697655","451.0853778251826","457.6564712257009"
"","canvas-keyboard-response","161","160787","0.0-6.0-1.22","582","","","","","clear_screen","null","null","","","catch","sh","sw","l","229","217","176","211","221","253","trueblood","null","null","null","null","null","null","null","null","null","null","null","","180","200","260","200","36000","52000","[2,3]","435.6862103697655","451.0853778251826","457.6564712257009"
"","canvas-keyboard-response","162","161292","0.0-6.0-2.22","582","","","","","rectangles no change","null","null","","","catch","sh","sw","l","229","217","176","211","221","253","trueblood","null","null","null","null","null","null","null","null","null","null","null","","180","200","260","200","36000","52000","[2,3]","435.6862103697655","451.0853778251826","457.6564712257009"
"","canvas-keyboard-response","163","162632","0.0-6.0-3.22","582","","","","","rectangles with change","null","null","","","catch","sh","sw","l","229","217","176","211","221","253","trueblood","null","null","null","null","null","null","null","null","null","null","null","","180","200","260","200","36000","52000","[2,3]","435.6862103697655","451.0853778251826","457.6564712257009"
"","canvas-keyboard-response","164","162652","0.0-6.0-4.22","582","","","","","clear_screen","null","null","","","catch","sh","sw","l","229","217","176","211","221","253","trueblood","null","null","null","null","null","null","null","null","null","null","null","","180","200","260","200","36000","52000","[2,3]","435.6862103697655","451.0853778251826","457.6564712257009"
"","canvas-keyboard-response","165","163385","0.0-6.0-5.22","582","","","","","make choice","720","3","","","catch","sh","sw","l","229","217","176","211","221","253","trueblood","null","null","null","null","null","null","null","null","null","null","null","","180","200","260","200","36000","52000","[2,3]","","",""
"","canvas-keyboard-response","166","163405","0.0-6.0-6.22","582","","","","","clear_screen","null","null","","","catch","sh","sw","l","229","217","176","211","221","253","trueblood","null","null","null","null","null","null","null","null","null","null","null","","180","200","260","200","36000","52000","[2,3]","","",""
"","canvas-keyboard-response","167","163607","0.0-6.0-0.23","582","","","","","pre trial waiting period","null","null","","","critical","c","t","d","240","164","164","240","154.6796","220.0396","trueblood","0.14","h","164","240","240","164","154.6796","220.0396","39360","39360","34035.6388","td","null","null","null","null","null","null","[2,3]","476.1602676554916","449.16090312956993","458.38165248105054"
"","canvas-keyboard-response","168","163627","0.0-6.0-1.23","582","","","","","clear_screen","null","null","","","critical","c","t","d","240","164","164","240","154.6796","220.0396","trueblood","0.14","h","164","240","240","164","154.6796","220.0396","39360","39360","34035.6388","td","null","null","null","null","null","null","[2,3]","476.1602676554916","449.16090312956993","458.38165248105054"
"","canvas-keyboard-response","169","164135","0.0-6.0-2.23","582","","","","","rectangles no change","null","null","","","critical","c","t","d","240","164","164","240","154.6796","220.0396","trueblood","0.14","h","164","240","240","164","154.6796","220.0396","39360","39360","34035.6388","td","null","null","null","null","null","null","[2,3]","476.1602676554916","449.16090312956993","458.38165248105054"
"","canvas-keyboard-response","170","165470","0.0-6.0-3.23","582","","","","","rectangles with change","null","null","","","critical","c","t","d","240","164","164","240","154.6796","220.0396","trueblood","0.14","h","164","240","240","164","154.6796","220.0396","39360","39360","34035.6388","td","null","null","null","null","null","null","[2,3]","476.1602676554916","449.16090312956993","458.38165248105054"
"","canvas-keyboard-response","171","165490","0.0-6.0-4.23","582","","","","","clear_screen","null","null","","","critical","c","t","d","240","164","164","240","154.6796","220.0396","trueblood","0.14","h","164","240","240","164","154.6796","220.0396","39360","39360","34035.6388","td","null","null","null","null","null","null","[2,3]","476.1602676554916","449.16090312956993","458.38165248105054"
"","canvas-keyboard-response","172","165946","0.0-6.0-5.23","582","","","","","make choice","449","2","","","critical","c","t","d","240","164","164","240","154.6796","220.0396","trueblood","0.14","h","164","240","240","164","154.6796","220.0396","39360","39360","34035.6388","td","null","null","null","null","null","null","[2,3]","","",""
"","canvas-keyboard-response","173","165967","0.0-6.0-6.23","582","","","","","clear_screen","null","null","","","critical","c","t","d","240","164","164","240","154.6796","220.0396","trueblood","0.14","h","164","240","240","164","154.6796","220.0396","39360","39360","34035.6388","td","null","null","null","null","null","null","[2,3]","","",""
"","canvas-keyboard-response","174","166168","0.0-6.0-0.24","582","","","","","pre trial waiting period","null","null","","","critical","d","c","t","154.6796","220.0396","240","164","164","240","trueblood","0.14","h","164","240","240","164","154.6796","220.0396","39360","39360","34035.6388","dc","null","null","null","null","null","null","[1,2]","445.5554936472215","499.83341448248547","430.8569071723158"
"","canvas-keyboard-response","175","166189","0.0-6.0-1.24","582","","","","","clear_screen","null","null","","","critical","d","c","t","154.6796","220.0396","240","164","164","240","trueblood","0.14","h","164","240","240","164","154.6796","220.0396","39360","39360","34035.6388","dc","null","null","null","null","null","null","[1,2]","445.5554936472215","499.83341448248547","430.8569071723158"
"","canvas-keyboard-response","176","166697","0.0-6.0-2.24","582","","","","","rectangles no change","null","null","","","critical","d","c","t","154.6796","220.0396","240","164","164","240","trueblood","0.14","h","164","240","240","164","154.6796","220.0396","39360","39360","34035.6388","dc","null","null","null","null","null","null","[1,2]","445.5554936472215","499.83341448248547","430.8569071723158"
"","canvas-keyboard-response","177","168036","0.0-6.0-3.24","582","","","","","rectangles with change","null","null","","","critical","d","c","t","154.6796","220.0396","240","164","164","240","trueblood","0.14","h","164","240","240","164","154.6796","220.0396","39360","39360","34035.6388","dc","null","null","null","null","null","null","[1,2]","445.5554936472215","499.83341448248547","430.8569071723158"
"","canvas-keyboard-response","178","168056","0.0-6.0-4.24","582","","","","","clear_screen","null","null","","","critical","d","c","t","154.6796","220.0396","240","164","164","240","trueblood","0.14","h","164","240","240","164","154.6796","220.0396","39360","39360","34035.6388","dc","null","null","null","null","null","null","[1,2]","445.5554936472215","499.83341448248547","430.8569071723158"
"","canvas-keyboard-response","179","168497","0.0-6.0-5.24","582","","","","","make choice","438","2","","","critical","d","c","t","154.6796","220.0396","240","164","164","240","trueblood","0.14","h","164","240","240","164","154.6796","220.0396","39360","39360","34035.6388","dc","null","null","null","null","null","null","[1,2]","","",""
"","canvas-keyboard-response","180","168518","0.0-6.0-6.24","582","","","","","clear_screen","null","null","","","critical","d","c","t","154.6796","220.0396","240","164","164","240","trueblood","0.14","h","164","240","240","164","154.6796","220.0396","39360","39360","34035.6388","dc","null","null","null","null","null","null","[1,2]","","",""
"","canvas-keyboard-response","181","168719","0.0-6.0-0.25","582","","","","","pre trial waiting period","null","null","","","critical","d","t","c","237.1485","162.6685","240","164","164","240","trueblood","0.02","w","240","164","164","240","237.1485","162.6685","39360","39360","38576.5967","td","null","null","null","null","null","null","[2,1]","511.57574348978255","498.9385320375977","465.13250211685704"
"","canvas-keyboard-response","182","168738","0.0-6.0-1.25","582","","","","","clear_screen","null","null","","","critical","d","t","c","237.1485","162.6685","240","164","164","240","trueblood","0.02","w","240","164","164","240","237.1485","162.6685","39360","39360","38576.5967","td","null","null","null","null","null","null","[2,1]","511.57574348978255","498.9385320375977","465.13250211685704"
"","canvas-keyboard-response","183","169245","0.0-6.0-2.25","582","","","","","rectangles no change","null","null","","","critical","d","t","c","237.1485","162.6685","240","164","164","240","trueblood","0.02","w","240","164","164","240","237.1485","162.6685","39360","39360","38576.5967","td","null","null","null","null","null","null","[2,1]","511.57574348978255","498.9385320375977","465.13250211685704"
"","canvas-keyboard-response","184","170580","0.0-6.0-3.25","582","","","","","rectangles with change","null","null","","","critical","d","t","c","237.1485","162.6685","240","164","164","240","trueblood","0.02","w","240","164","164","240","237.1485","162.6685","39360","39360","38576.5967","td","null","null","null","null","null","null","[2,1]","511.57574348978255","498.9385320375977","465.13250211685704"
"","canvas-keyboard-response","185","170601","0.0-6.0-4.25","582","","","","","clear_screen","null","null","","","critical","d","t","c","237.1485","162.6685","240","164","164","240","trueblood","0.02","w","240","164","164","240","237.1485","162.6685","39360","39360","38576.5967","td","null","null","null","null","null","null","[2,1]","511.57574348978255","498.9385320375977","465.13250211685704"
"","canvas-keyboard-response","186","172257","0.0-6.0-5.25","582","","","","","make choice","1650","2","","","critical","d","t","c","237.1485","162.6685","240","164","164","240","trueblood","0.02","w","240","164","164","240","237.1485","162.6685","39360","39360","38576.5967","td","null","null","null","null","null","null","[2,1]","","",""
"","canvas-keyboard-response","187","172279","0.0-6.0-6.25","582","","","","","clear_screen","null","null","","","critical","d","t","c","237.1485","162.6685","240","164","164","240","trueblood","0.02","w","240","164","164","240","237.1485","162.6685","39360","39360","38576.5967","td","null","null","null","null","null","null","[2,1]","","",""
"","canvas-keyboard-response","188","172480","0.0-6.0-0.26","582","","","","","pre trial waiting period","null","null","","","critical","c","d","t","164","240","240","164","240","164","trueblood","0","w","240","164","164","240","240","164","39360","39360","39360","td","null","null","null","null","null","null","[3,2]","468.0052770017518","517.3047509999944","494.72930573281155"
"","canvas-keyboard-response","189","172499","0.0-6.0-1.26","582","","","","","clear_screen","null","null","","","critical","c","d","t","164","240","240","164","240","164","trueblood","0","w","240","164","164","240","240","164","39360","39360","39360","td","null","null","null","null","null","null","[3,2]","468.0052770017518","517.3047509999944","494.72930573281155"
"","canvas-keyboard-response","190","173010","0.0-6.0-2.26","582","","","","","rectangles no change","null","null","","","critical","c","d","t","164","240","240","164","240","164","trueblood","0","w","240","164","164","240","240","164","39360","39360","39360","td","null","null","null","null","null","null","[3,2]","468.0052770017518","517.3047509999944","494.72930573281155"
"","canvas-keyboard-response","191","174349","0.0-6.0-3.26","582","","","","","rectangles with change","null","null","","","critical","c","d","t","164","240","240","164","240","164","trueblood","0","w","240","164","164","240","240","164","39360","39360","39360","td","null","null","null","null","null","null","[3,2]","468.0052770017518","517.3047509999944","494.72930573281155"
"","canvas-keyboard-response","192","174367","0.0-6.0-4.26","582","","","","","clear_screen","null","null","","","critical","c","d","t","164","240","240","164","240","164","trueblood","0","w","240","164","164","240","240","164","39360","39360","39360","td","null","null","null","null","null","null","[3,2]","468.0052770017518","517.3047509999944","494.72930573281155"
"","canvas-keyboard-response","193","175041","0.0-6.0-5.26","582","","","","","make choice","669","3","","","critical","c","d","t","164","240","240","164","240","164","trueblood","0","w","240","164","164","240","240","164","39360","39360","39360","td","null","null","null","null","null","null","[3,2]","","",""
"","canvas-keyboard-response","194","175061","0.0-6.0-6.26","582","","","","","clear_screen","null","null","","","critical","c","d","t","164","240","240","164","240","164","trueblood","0","w","240","164","164","240","240","164","39360","39360","39360","td","null","null","null","null","null","null","[3,2]","","",""
"","canvas-keyboard-response","195","175262","0.0-6.0-0.27","582","","","","","pre trial waiting period","null","null","","","critical","t","c","d","240","164","164","240","240","164","spektor","0","w","240","164","164","240","240","164","39360","39360","39360","tc","null","null","null","null","null","null","[1,2]","516.2838765147138","158.65616940396805","530.5452939575473"
"","canvas-keyboard-response","196","175281","0.0-6.0-1.27","582","","","","","clear_screen","null","null","","","critical","t","c","d","240","164","164","240","240","164","spektor","0","w","240","164","164","240","240","164","39360","39360","39360","tc","null","null","null","null","null","null","[1,2]","516.2838765147138","158.65616940396805","530.5452939575473"
"","canvas-keyboard-response","197","175790","0.0-6.0-2.27","582","","","","","rectangles no change","null","null","","","critical","t","c","d","240","164","164","240","240","164","spektor","0","w","240","164","164","240","240","164","39360","39360","39360","tc","null","null","null","null","null","null","[1,2]","516.2838765147138","158.65616940396805","530.5452939575473"
"","canvas-keyboard-response","198","177132","0.0-6.0-3.27","582","","","","","rectangles with change","null","null","","","critical","t","c","d","240","164","164","240","240","164","spektor","0","w","240","164","164","240","240","164","39360","39360","39360","tc","null","null","null","null","null","null","[1,2]","516.2838765147138","158.65616940396805","530.5452939575473"
"","canvas-keyboard-response","199","177151","0.0-6.0-4.27","582","","","","","clear_screen","null","null","","","critical","t","c","d","240","164","164","240","240","164","spektor","0","w","240","164","164","240","240","164","39360","39360","39360","tc","null","null","null","null","null","null","[1,2]","516.2838765147138","158.65616940396805","530.5452939575473"
"","canvas-keyboard-response","200","177720","0.0-6.0-5.27","582","","","","","make choice","564","1","","","critical","t","c","d","240","164","164","240","240","164","spektor","0","w","240","164","164","240","240","164","39360","39360","39360","tc","null","null","null","null","null","null","[1,2]","","",""
"","canvas-keyboard-response","201","177738","0.0-6.0-6.27","582","","","","","clear_screen","null","null","","","critical","t","c","d","240","164","164","240","240","164","spektor","0","w","240","164","164","240","240","164","39360","39360","39360","tc","null","null","null","null","null","null","[1,2]","","",""
"","canvas-keyboard-response","202","177939","0.0-6.0-0.28","582","","","","","pre trial waiting period","null","null","","","catch","sw","l","sh","180","200","228","177","203","142","spektor","null","null","null","null","null","null","null","null","null","null","null","","180","200","260","200","36000","52000","[1,2]","515.8305405638666","196.40749345442663","521.3037932506314"
"","canvas-keyboard-response","203","177958","0.0-6.0-1.28","582","","","","","clear_screen","null","null","","","catch","sw","l","sh","180","200","228","177","203","142","spektor","null","null","null","null","null","null","null","null","null","null","null","","180","200","260","200","36000","52000","[1,2]","515.8305405638666","196.40749345442663","521.3037932506314"
"","canvas-keyboard-response","204","178463","0.0-6.0-2.28","582","","","","","rectangles no change","null","null","","","catch","sw","l","sh","180","200","228","177","203","142","spektor","null","null","null","null","null","null","null","null","null","null","null","","180","200","260","200","36000","52000","[1,2]","515.8305405638666","196.40749345442663","521.3037932506314"
"","canvas-keyboard-response","205","179800","0.0-6.0-3.28","582","","","","","rectangles with change","null","null","","","catch","sw","l","sh","180","200","228","177","203","142","spektor","null","null","null","null","null","null","null","null","null","null","null","","180","200","260","200","36000","52000","[1,2]","515.8305405638666","196.40749345442663","521.3037932506314"
"","canvas-keyboard-response","206","179819","0.0-6.0-4.28","582","","","","","clear_screen","null","null","","","catch","sw","l","sh","180","200","228","177","203","142","spektor","null","null","null","null","null","null","null","null","null","null","null","","180","200","260","200","36000","52000","[1,2]","515.8305405638666","196.40749345442663","521.3037932506314"
"","canvas-keyboard-response","207","180152","0.0-6.0-5.28","582","","","","","make choice","328","2","","","catch","sw","l","sh","180","200","228","177","203","142","spektor","null","null","null","null","null","null","null","null","null","null","null","","180","200","260","200","36000","52000","[1,2]","","",""
"","canvas-keyboard-response","208","180173","0.0-6.0-6.28","582","","","","","clear_screen","null","null","","","catch","sw","l","sh","180","200","228","177","203","142","spektor","null","null","null","null","null","null","null","null","null","null","null","","180","200","260","200","36000","52000","[1,2]","","",""
"","canvas-keyboard-response","209","180374","0.0-6.0-0.29","582","","","","","pre trial waiting period","null","null","","","critical","t","d","c","164","240","162.6685","237.1485","240","164","trueblood","0.02","h","164","240","240","164","162.6685","237.1485","39360","39360","38576.5967","tc","null","null","null","null","null","null","[1,3]","448.4659255184011","470.0771803016154","479.1372329918638"
"","canvas-keyboard-response","210","180395","0.0-6.0-1.29","582","","","","","clear_screen","null","null","","","critical","t","d","c","164","240","162.6685","237.1485","240","164","trueblood","0.02","h","164","240","240","164","162.6685","237.1485","39360","39360","38576.5967","tc","null","null","null","null","null","null","[1,3]","448.4659255184011","470.0771803016154","479.1372329918638"
"","canvas-keyboard-response","211","180904","0.0-6.0-2.29","582","","","","","rectangles no change","null","null","","","critical","t","d","c","164","240","162.6685","237.1485","240","164","trueblood","0.02","h","164","240","240","164","162.6685","237.1485","39360","39360","38576.5967","tc","null","null","null","null","null","null","[1,3]","448.4659255184011","470.0771803016154","479.1372329918638"
"","canvas-keyboard-response","212","182239","0.0-6.0-3.29","582","","","","","rectangles with change","null","null","","","critical","t","d","c","164","240","162.6685","237.1485","240","164","trueblood","0.02","h","164","240","240","164","162.6685","237.1485","39360","39360","38576.5967","tc","null","null","null","null","null","null","[1,3]","448.4659255184011","470.0771803016154","479.1372329918638"
"","canvas-keyboard-response","213","182261","0.0-6.0-4.29","582","","","","","clear_screen","null","null","","","critical","t","d","c","164","240","162.6685","237.1485","240","164","trueblood","0.02","h","164","240","240","164","162.6685","237.1485","39360","39360","38576.5967","tc","null","null","null","null","null","null","[1,3]","448.4659255184011","470.0771803016154","479.1372329918638"
"","canvas-keyboard-response","214","183561","0.0-6.0-5.29","582","","","","","make choice","1294","3","","","critical","t","d","c","164","240","162.6685","237.1485","240","164","trueblood","0.02","h","164","240","240","164","162.6685","237.1485","39360","39360","38576.5967","tc","null","null","null","null","null","null","[1,3]","","",""
"","canvas-keyboard-response","215","183580","0.0-6.0-6.29","582","","","","","clear_screen","null","null","","","critical","t","d","c","164","240","162.6685","237.1485","240","164","trueblood","0.02","h","164","240","240","164","162.6685","237.1485","39360","39360","38576.5967","tc","null","null","null","null","null","null","[1,3]","","",""
"","canvas-keyboard-response","216","183781","0.0-6.0-0.30","582","","","","","pre trial waiting period","null","null","","","catch","sw","sh","l","180","200","212","168","161","260","trueblood","null","null","null","null","null","null","null","null","null","null","null","","180","200","260","200","36000","52000","[2,3]","466.1914398364043","486.73438864944245","426.81299984660006"
"","canvas-keyboard-response","217","183802","0.0-6.0-1.30","582","","","","","clear_screen","null","null","","","catch","sw","sh","l","180","200","212","168","161","260","trueblood","null","null","null","null","null","null","null","null","null","null","null","","180","200","260","200","36000","52000","[2,3]","466.1914398364043","486.73438864944245","426.81299984660006"
"","canvas-keyboard-response","218","184310","0.0-6.0-2.30","582","","","","","rectangles no change","null","null","","","catch","sw","sh","l","180","200","212","168","161","260","trueblood","null","null","null","null","null","null","null","null","null","null","null","","180","200","260","200","36000","52000","[2,3]","466.1914398364043","486.73438864944245","426.81299984660006"
"","canvas-keyboard-response","219","185646","0.0-6.0-3.30","582","","","","","rectangles with change","null","null","","","catch","sw","sh","l","180","200","212","168","161","260","trueblood","null","null","null","null","null","null","null","null","null","null","null","","180","200","260","200","36000","52000","[2,3]","466.1914398364043","486.73438864944245","426.81299984660006"
"","canvas-keyboard-response","220","185669","0.0-6.0-4.30","582","","","","","clear_screen","null","null","","","catch","sw","sh","l","180","200","212","168","161","260","trueblood","null","null","null","null","null","null","null","null","null","null","null","","180","200","260","200","36000","52000","[2,3]","466.1914398364043","486.73438864944245","426.81299984660006"
"","canvas-keyboard-response","221","186057","0.0-6.0-5.30","582","","","","","make choice","383","3","","","catch","sw","sh","l","180","200","212","168","161","260","trueblood","null","null","null","null","null","null","null","null","null","null","null","","180","200","260","200","36000","52000","[2,3]","","",""
"","canvas-keyboard-response","222","186075","0.0-6.0-6.30","582","","","","","clear_screen","null","null","","","catch","sw","sh","l","180","200","212","168","161","260","trueblood","null","null","null","null","null","null","null","null","null","null","null","","180","200","260","200","36000","52000","[2,3]","","",""
"","canvas-keyboard-response","223","186275","0.0-6.0-0.31","582","","","","","pre trial waiting period","null","null","","","critical","t","c","d","240","164","164","240","237.1485","162.6685","trueblood","0.02","w","240","164","164","240","237.1485","162.6685","39360","39360","38576.5967","dc","null","null","null","null","null","null","[3,2]","493.46847485027","432.785377183005","498.2598553612917"
"","canvas-keyboard-response","224","186297","0.0-6.0-1.31","582","","","","","clear_screen","null","null","","","critical","t","c","d","240","164","164","240","237.1485","162.6685","trueblood","0.02","w","240","164","164","240","237.1485","162.6685","39360","39360","38576.5967","dc","null","null","null","null","null","null","[3,2]","493.46847485027","432.785377183005","498.2598553612917"
"","canvas-keyboard-response","225","186805","0.0-6.0-2.31","582","","","","","rectangles no change","null","null","","","critical","t","c","d","240","164","164","240","237.1485","162.6685","trueblood","0.02","w","240","164","164","240","237.1485","162.6685","39360","39360","38576.5967","dc","null","null","null","null","null","null","[3,2]","493.46847485027","432.785377183005","498.2598553612917"
"","canvas-keyboard-response","226","188141","0.0-6.0-3.31","582","","","","","rectangles with change","null","null","","","critical","t","c","d","240","164","164","240","237.1485","162.6685","trueblood","0.02","w","240","164","164","240","237.1485","162.6685","39360","39360","38576.5967","dc","null","null","null","null","null","null","[3,2]","493.46847485027","432.785377183005","498.2598553612917"
"","canvas-keyboard-response","227","188163","0.0-6.0-4.31","582","","","","","clear_screen","null","null","","","critical","t","c","d","240","164","164","240","237.1485","162.6685","trueblood","0.02","w","240","164","164","240","237.1485","162.6685","39360","39360","38576.5967","dc","null","null","null","null","null","null","[3,2]","493.46847485027","432.785377183005","498.2598553612917"
"","canvas-keyboard-response","228","188841","0.0-6.0-5.31","582","","","","","make choice","672","3","","","critical","t","c","d","240","164","164","240","237.1485","162.6685","trueblood","0.02","w","240","164","164","240","237.1485","162.6685","39360","39360","38576.5967","dc","null","null","null","null","null","null","[3,2]","","",""
"","canvas-keyboard-response","229","188861","0.0-6.0-6.31","582","","","","","clear_screen","null","null","","","critical","t","c","d","240","164","164","240","237.1485","162.6685","trueblood","0.02","w","240","164","164","240","237.1485","162.6685","39360","39360","38576.5967","dc","null","null","null","null","null","null","[3,2]","","",""
"","canvas-keyboard-response","230","189062","0.0-6.0-0.32","582","","","","","pre trial waiting period","null","null","","","critical","c","d","t","164","240","220.0396","154.6796","240","164","trueblood","0.14","w","240","164","164","240","220.0396","154.6796","39360","39360","34035.6388","tc","null","null","null","null","null","null","[3,1]","457.2194383582527","477.4078445760419","484.464000131556"
"","canvas-keyboard-response","231","189080","0.0-6.0-1.32","582","","","","","clear_screen","null","null","","","critical","c","d","t","164","240","220.0396","154.6796","240","164","trueblood","0.14","w","240","164","164","240","220.0396","154.6796","39360","39360","34035.6388","tc","null","null","null","null","null","null","[3,1]","457.2194383582527","477.4078445760419","484.464000131556"
"","canvas-keyboard-response","232","189590","0.0-6.0-2.32","582","","","","","rectangles no change","null","null","","","critical","c","d","t","164","240","220.0396","154.6796","240","164","trueblood","0.14","w","240","164","164","240","220.0396","154.6796","39360","39360","34035.6388","tc","null","null","null","null","null","null","[3,1]","457.2194383582527","477.4078445760419","484.464000131556"
"","canvas-keyboard-response","233","190925","0.0-6.0-3.32","582","","","","","rectangles with change","null","null","","","critical","c","d","t","164","240","220.0396","154.6796","240","164","trueblood","0.14","w","240","164","164","240","220.0396","154.6796","39360","39360","34035.6388","tc","null","null","null","null","null","null","[3,1]","457.2194383582527","477.4078445760419","484.464000131556"
"","canvas-keyboard-response","234","190944","0.0-6.0-4.32","582","","","","","clear_screen","null","null","","","critical","c","d","t","164","240","220.0396","154.6796","240","164","trueblood","0.14","w","240","164","164","240","220.0396","154.6796","39360","39360","34035.6388","tc","null","null","null","null","null","null","[3,1]","457.2194383582527","477.4078445760419","484.464000131556"
"","canvas-keyboard-response","235","191297","0.0-6.0-5.32","582","","","","","make choice","348","3","","","critical","c","d","t","164","240","220.0396","154.6796","240","164","trueblood","0.14","w","240","164","164","240","220.0396","154.6796","39360","39360","34035.6388","tc","null","null","null","null","null","null","[3,1]","","",""
"","canvas-keyboard-response","236","191317","0.0-6.0-6.32","582","","","","","clear_screen","null","null","","","critical","c","d","t","164","240","220.0396","154.6796","240","164","trueblood","0.14","w","240","164","164","240","220.0396","154.6796","39360","39360","34035.6388","tc","null","null","null","null","null","null","[3,1]","","",""
"","canvas-keyboard-response","237","191518","0.0-6.0-0.33","582","","","","","pre trial waiting period","null","null","","","catch","sh","l","sw","218","193","252","164","156","222","spektor","null","null","null","null","null","null","null","null","null","null","null","","180","200","260","200","36000","52000","[1,2]","484.820305666445","187.4319262613634","490.4638454938471"
"","canvas-keyboard-response","238","191541","0.0-6.0-1.33","582","","","","","clear_screen","null","null","","","catch","sh","l","sw","218","193","252","164","156","222","spektor","null","null","null","null","null","null","null","null","null","null","null","","180","200","260","200","36000","52000","[1,2]","484.820305666445","187.4319262613634","490.4638454938471"
"","canvas-keyboard-response","239","192051","0.0-6.0-2.33","582","","","","","rectangles no change","null","null","","","catch","sh","l","sw","218","193","252","164","156","222","spektor","null","null","null","null","null","null","null","null","null","null","null","","180","200","260","200","36000","52000","[1,2]","484.820305666445","187.4319262613634","490.4638454938471"
"","canvas-keyboard-response","240","193389","0.0-6.0-3.33","582","","","","","rectangles with change","null","null","","","catch","sh","l","sw","218","193","252","164","156","222","spektor","null","null","null","null","null","null","null","null","null","null","null","","180","200","260","200","36000","52000","[1,2]","484.820305666445","187.4319262613634","490.4638454938471"
"","canvas-keyboard-response","241","193409","0.0-6.0-4.33","582","","","","","clear_screen","null","null","","","catch","sh","l","sw","218","193","252","164","156","222","spektor","null","null","null","null","null","null","null","null","null","null","null","","180","200","260","200","36000","52000","[1,2]","484.820305666445","187.4319262613634","490.4638454938471"
"","canvas-keyboard-response","242","194449","0.0-6.0-5.33","582","","","","","make choice","1034","1","","","catch","sh","l","sw","218","193","252","164","156","222","spektor","null","null","null","null","null","null","null","null","null","null","null","","180","200","260","200","36000","52000","[1,2]","","",""
"","canvas-keyboard-response","243","194468","0.0-6.0-6.33","582","","","","","clear_screen","null","null","","","catch","sh","l","sw","218","193","252","164","156","222","spektor","null","null","null","null","null","null","null","null","null","null","null","","180","200","260","200","36000","52000","[1,2]","","",""
"","canvas-keyboard-response","244","194669","0.0-6.0-0.34","582","","","","","pre trial waiting period","null","null","","","critical","c","t","d","240","164","164","240","160.6713","232.8713","spektor","0.05","h","164","240","240","164","160.6713","232.8713","39360","39360","37415.7294","dc","null","null","null","null","null","null","[3,1]","532.7053183606778","133.19801237552193","490.2715523418815"
"","canvas-keyboard-response","245","194688","0.0-6.0-1.34","582","","","","","clear_screen","null","null","","","critical","c","t","d","240","164","164","240","160.6713","232.8713","spektor","0.05","h","164","240","240","164","160.6713","232.8713","39360","39360","37415.7294","dc","null","null","null","null","null","null","[3,1]","532.7053183606778","133.19801237552193","490.2715523418815"
"","canvas-keyboard-response","246","195197","0.0-6.0-2.34","582","","","","","rectangles no change","null","null","","","critical","c","t","d","240","164","164","240","160.6713","232.8713","spektor","0.05","h","164","240","240","164","160.6713","232.8713","39360","39360","37415.7294","dc","null","null","null","null","null","null","[3,1]","532.7053183606778","133.19801237552193","490.2715523418815"
"","canvas-keyboard-response","247","196537","0.0-6.0-3.34","582","","","","","rectangles with change","null","null","","","critical","c","t","d","240","164","164","240","160.6713","232.8713","spektor","0.05","h","164","240","240","164","160.6713","232.8713","39360","39360","37415.7294","dc","null","null","null","null","null","null","[3,1]","532.7053183606778","133.19801237552193","490.2715523418815"
"","canvas-keyboard-response","248","196559","0.0-6.0-4.34","582","","","","","clear_screen","null","null","","","critical","c","t","d","240","164","164","240","160.6713","232.8713","spektor","0.05","h","164","240","240","164","160.6713","232.8713","39360","39360","37415.7294","dc","null","null","null","null","null","null","[3,1]","532.7053183606778","133.19801237552193","490.2715523418815"
"","canvas-keyboard-response","249","196953","0.0-6.0-5.34","582","","","","","make choice","389","1","","","critical","c","t","d","240","164","164","240","160.6713","232.8713","spektor","0.05","h","164","240","240","164","160.6713","232.8713","39360","39360","37415.7294","dc","null","null","null","null","null","null","[3,1]","","",""
"","canvas-keyboard-response","250","196971","0.0-6.0-6.34","582","","","","","clear_screen","null","null","","","critical","c","t","d","240","164","164","240","160.6713","232.8713","spektor","0.05","h","164","240","240","164","160.6713","232.8713","39360","39360","37415.7294","dc","null","null","null","null","null","null","[3,1]","","",""
"","canvas-keyboard-response","251","197173","0.0-6.0-0.35","582","","","","","pre trial waiting period","null","null","","","critical","d","t","c","237.1485","162.6685","240","164","164","240","spektor","0.02","w","240","164","164","240","237.1485","162.6685","39360","39360","38576.5967","tc","null","null","null","null","null","null","[2,3]","512.2714793965599","179.91448427987024","459.49717380977853"
"","canvas-keyboard-response","252","197197","0.0-6.0-1.35","582","","","","","clear_screen","null","null","","","critical","d","t","c","237.1485","162.6685","240","164","164","240","spektor","0.02","w","240","164","164","240","237.1485","162.6685","39360","39360","38576.5967","tc","null","null","null","null","null","null","[2,3]","512.2714793965599","179.91448427987024","459.49717380977853"
"","canvas-keyboard-response","253","197703","0.0-6.0-2.35","582","","","","","rectangles no change","null","null","","","critical","d","t","c","237.1485","162.6685","240","164","164","240","spektor","0.02","w","240","164","164","240","237.1485","162.6685","39360","39360","38576.5967","tc","null","null","null","null","null","null","[2,3]","512.2714793965599","179.91448427987024","459.49717380977853"
"","canvas-keyboard-response","254","199039","0.0-6.0-3.35","582","","","","","rectangles with change","null","null","","","critical","d","t","c","237.1485","162.6685","240","164","164","240","spektor","0.02","w","240","164","164","240","237.1485","162.6685","39360","39360","38576.5967","tc","null","null","null","null","null","null","[2,3]","512.2714793965599","179.91448427987024","459.49717380977853"
"","canvas-keyboard-response","255","199057","0.0-6.0-4.35","582","","","","","clear_screen","null","null","","","critical","d","t","c","237.1485","162.6685","240","164","164","240","spektor","0.02","w","240","164","164","240","237.1485","162.6685","39360","39360","38576.5967","tc","null","null","null","null","null","null","[2,3]","512.2714793965599","179.91448427987024","459.49717380977853"
"","canvas-keyboard-response","256","199449","0.0-6.0-5.35","582","","","","","make choice","385","2","","","critical","d","t","c","237.1485","162.6685","240","164","164","240","spektor","0.02","w","240","164","164","240","237.1485","162.6685","39360","39360","38576.5967","tc","null","null","null","null","null","null","[2,3]","","",""
"","canvas-keyboard-response","257","199467","0.0-6.0-6.35","582","","","","","clear_screen","null","null","","","critical","d","t","c","237.1485","162.6685","240","164","164","240","spektor","0.02","w","240","164","164","240","237.1485","162.6685","39360","39360","38576.5967","tc","null","null","null","null","null","null","[2,3]","","",""
"","canvas-keyboard-response","258","199668","0.0-6.0-0.36","582","","","","","pre trial waiting period","null","null","","","critical","t","d","c","240","164","237.1485","162.6685","164","240","trueblood","0.02","w","240","164","164","240","237.1485","162.6685","39360","39360","38576.5967","tc","null","null","null","null","null","null","[1,3]","515.7693108975513","503.14025456715393","427.47296499406775"
"","canvas-keyboard-response","259","199686","0.0-6.0-1.36","582","","","","","clear_screen","null","null","","","critical","t","d","c","240","164","237.1485","162.6685","164","240","trueblood","0.02","w","240","164","164","240","237.1485","162.6685","39360","39360","38576.5967","tc","null","null","null","null","null","null","[1,3]","515.7693108975513","503.14025456715393","427.47296499406775"
"","canvas-keyboard-response","260","200196","0.0-6.0-2.36","582","","","","","rectangles no change","null","null","","","critical","t","d","c","240","164","237.1485","162.6685","164","240","trueblood","0.02","w","240","164","164","240","237.1485","162.6685","39360","39360","38576.5967","tc","null","null","null","null","null","null","[1,3]","515.7693108975513","503.14025456715393","427.47296499406775"
"","canvas-keyboard-response","261","201533","0.0-6.0-3.36","582","","","","","rectangles with change","null","null","","","critical","t","d","c","240","164","237.1485","162.6685","164","240","trueblood","0.02","w","240","164","164","240","237.1485","162.6685","39360","39360","38576.5967","tc","null","null","null","null","null","null","[1,3]","515.7693108975513","503.14025456715393","427.47296499406775"
"","canvas-keyboard-response","262","201553","0.0-6.0-4.36","582","","","","","clear_screen","null","null","","","critical","t","d","c","240","164","237.1485","162.6685","164","240","trueblood","0.02","w","240","164","164","240","237.1485","162.6685","39360","39360","38576.5967","tc","null","null","null","null","null","null","[1,3]","515.7693108975513","503.14025456715393","427.47296499406775"
"","canvas-keyboard-response","263","202049","0.0-6.0-5.36","582","","","","","make choice","487","1","","","critical","t","d","c","240","164","237.1485","162.6685","164","240","trueblood","0.02","w","240","164","164","240","237.1485","162.6685","39360","39360","38576.5967","tc","null","null","null","null","null","null","[1,3]","","",""
"","canvas-keyboard-response","264","202069","0.0-6.0-6.36","582","","","","","clear_screen","null","null","","","critical","t","d","c","240","164","237.1485","162.6685","164","240","trueblood","0.02","w","240","164","164","240","237.1485","162.6685","39360","39360","38576.5967","tc","null","null","null","null","null","null","[1,3]","","",""
"","canvas-keyboard-response","265","202271","0.0-6.0-0.37","582","","","","","pre trial waiting period","null","null","","","catch","l","sw","sh","274","194","192","182","172","189","trueblood","null","null","null","null","null","null","null","null","null","null","null","","180","200","260","200","36000","52000","[1,3]","481.85336402488866","479.0862694115189","477.29635438804735"
"","canvas-keyboard-response","266","202293","0.0-6.0-1.37","582","","","","","clear_screen","null","null","","","catch","l","sw","sh","274","194","192","182","172","189","trueblood","null","null","null","null","null","null","null","null","null","null","null","","180","200","260","200","36000","52000","[1,3]","481.85336402488866","479.0862694115189","477.29635438804735"
