"success","trial_type","trial_index","time_elapsed","internal_node_id","sub_n","timeout","failed_images","failed_audio","failed_video","screen_id","rt","response","stimulus","view_history","trial","r1","r2","r3","w1","h1","w2","h2","w3","h3","display","tdd","tdo","tw","th","cw","ch","dw","dh","ta","ca","da","probe","csls","csss","clls","clss","sa","la","probe_rects","r1yloc","r2yloc","r3yloc"
"true","fullscreen","0","2151","0.0-0.0","514","","","","","","","","","","","","","","","","","","","","","","","","","","","","","","","","","","","","","","","","","",""
"true","preload","1","2221","0.0-1.0","514","false","[]","[]","[]","img preload","","","","","","","","","","","","","","","","","","","","","","","","","","","","","","","","","","","","",""
"","survey-html-form","2","6348","0.0-2.0","514","","","","","enter-sub-number","4107","{""response"":""514""}","","","","","","","","","","","","","","","","","","","","","","","","","","","","","","","","","","",""
"","image-button-response","3","69663","0.0-3.0","514","","","","","","63203","0","consent.png","","","","","","","","","","","","","","","","","","","","","","","","","","","","","","","","","",""
"","html-button-response","4","87272","0.0-4.0","514","","","","","intro mssg","17603","0","<div style= ""font-size:25px;"" <p> <strong> Welcome! </strong><br> <p style=""color:#8B0000; font-size:25px;""><strong> Please do NOT exit full screen until you are done with the experiment. </strong> </p><p style=""font-size:25px;color:#8B0000;""> <strong> Your data will be lost <br> if you try to go back or refresh the page after the experiment starts. Feel free to click ""previous"" during the instructions, however.</strong> </p><br><p> <strong> Thanks in advance for your contribution to our research! </strong></p>","","","","","","","","","","","","","","","","","","","","","","","","","","","","","","","","","",""
"","instructions","5","180694","0.0-5.0","514","","","","","instructions","93418","","","[{""page_index"":0,""viewing_time"":9362},{""page_index"":1,""viewing_time"":10704},{""page_index"":2,""viewing_time"":12208},{""page_index"":3,""viewing_time"":35608},{""page_index"":4,""viewing_time"":17200},{""page_index"":5,""viewing_time"":3255},{""page_index"":6,""viewing_time"":2353},{""page_index"":7,""viewing_time"":2728}]","","","","","","","","","","","","","","","","","","","","","","","","","","","","","","","","",""
"","canvas-keyboard-response","6","180898","0.0-6.0-0.0","514","","","","","pre trial waiting period","null","null","","","critical","c","d","t","240","164","164","240","164","240","spektor","0","h","164","240","240","164","164","240","39360","39360","39360","dc","null","null","null","null","null","null","[2,1]","506.4978765632347","136.98065369564733","499.4476964107306"
"","canvas-keyboard-response","7","180921","0.0-6.0-1.0","514","","","","","clear_screen","null","null","","","critical","c","d","t","240","164","164","240","164","240","spektor","0","h","164","240","240","164","164","240","39360","39360","39360","dc","null","null","null","null","null","null","[2,1]","506.4978765632347","136.98065369564733","499.4476964107306"
"","canvas-keyboard-response","8","181437","0.0-6.0-2.0","514","","","","","rectangles no change","null","null","","","critical","c","d","t","240","164","164","240","164","240","spektor","0","h","164","240","240","164","164","240","39360","39360","39360","dc","null","null","null","null","null","null","[2,1]","506.4978765632347","136.98065369564733","499.4476964107306"
"","canvas-keyboard-response","9","182775","0.0-6.0-3.0","514","","","","","rectangles with change","null","null","","","critical","c","d","t","240","164","164","240","164","240","spektor","0","h","164","240","240","164","164","240","39360","39360","39360","dc","null","null","null","null","null","null","[2,1]","506.4978765632347","136.98065369564733","499.4476964107306"
"","canvas-keyboard-response","10","182795","0.0-6.0-4.0","514","","","","","clear_screen","null","null","","","critical","c","d","t","240","164","164","240","164","240","spektor","0","h","164","240","240","164","164","240","39360","39360","39360","dc","null","null","null","null","null","null","[2,1]","506.4978765632347","136.98065369564733","499.4476964107306"
"","canvas-keyboard-response","11","184594","0.0-6.0-5.0","514","","","","","make choice","1789","1","","","critical","c","d","t","240","164","164","240","164","240","spektor","0","h","164","240","240","164","164","240","39360","39360","39360","dc","null","null","null","null","null","null","[2,1]","","",""
"","canvas-keyboard-response","12","184612","0.0-6.0-6.0","514","","","","","clear_screen","null","null","","","critical","c","d","t","240","164","164","240","164","240","spektor","0","h","164","240","240","164","164","240","39360","39360","39360","dc","null","null","null","null","null","null","[2,1]","","",""
"","canvas-keyboard-response","13","184813","0.0-6.0-0.1","514","","","","","pre trial waiting period","null","null","","","critical","t","d","c","164","240","164","240","240","164","spektor","0","h","164","240","240","164","164","240","39360","39360","39360","td","null","null","null","null","null","null","[1,2]","482.07490361669454","91.64338426354794","526.3305167764559"
"","canvas-keyboard-response","14","184833","0.0-6.0-1.1","514","","","","","clear_screen","null","null","","","critical","t","d","c","164","240","164","240","240","164","spektor","0","h","164","240","240","164","164","240","39360","39360","39360","td","null","null","null","null","null","null","[1,2]","482.07490361669454","91.64338426354794","526.3305167764559"
"","canvas-keyboard-response","15","185345","0.0-6.0-2.1","514","","","","","rectangles no change","null","null","","","critical","t","d","c","164","240","164","240","240","164","spektor","0","h","164","240","240","164","164","240","39360","39360","39360","td","null","null","null","null","null","null","[1,2]","482.07490361669454","91.64338426354794","526.3305167764559"
"","canvas-keyboard-response","16","186682","0.0-6.0-3.1","514","","","","","rectangles with change","null","null","","","critical","t","d","c","164","240","164","240","240","164","spektor","0","h","164","240","240","164","164","240","39360","39360","39360","td","null","null","null","null","null","null","[1,2]","482.07490361669454","91.64338426354794","526.3305167764559"
"","canvas-keyboard-response","17","186706","0.0-6.0-4.1","514","","","","","clear_screen","null","null","","","critical","t","d","c","164","240","164","240","240","164","spektor","0","h","164","240","240","164","164","240","39360","39360","39360","td","null","null","null","null","null","null","[1,2]","482.07490361669454","91.64338426354794","526.3305167764559"
"","canvas-keyboard-response","18","187874","0.0-6.0-5.1","514","","","","","make choice","1160","1","","","critical","t","d","c","164","240","164","240","240","164","spektor","0","h","164","240","240","164","164","240","39360","39360","39360","td","null","null","null","null","null","null","[1,2]","","",""
"","canvas-keyboard-response","19","187892","0.0-6.0-6.1","514","","","","","clear_screen","null","null","","","critical","t","d","c","164","240","164","240","240","164","spektor","0","h","164","240","240","164","164","240","39360","39360","39360","td","null","null","null","null","null","null","[1,2]","","",""
"","canvas-keyboard-response","20","188093","0.0-6.0-0.2","514","","","","","pre trial waiting period","null","null","","","critical","t","c","d","240","164","164","240","220.0396","154.6796","trueblood","0.14","w","240","164","164","240","220.0396","154.6796","39360","39360","34035.6388","dc","null","null","null","null","null","null","[3,2]","508.083944131892","459.30280086561544","518.5984276302939"
"","canvas-keyboard-response","21","188113","0.0-6.0-1.2","514","","","","","clear_screen","null","null","","","critical","t","c","d","240","164","164","240","220.0396","154.6796","trueblood","0.14","w","240","164","164","240","220.0396","154.6796","39360","39360","34035.6388","dc","null","null","null","null","null","null","[3,2]","508.083944131892","459.30280086561544","518.5984276302939"
"","canvas-keyboard-response","22","188623","0.0-6.0-2.2","514","","","","","rectangles no change","null","null","","","critical","t","c","d","240","164","164","240","220.0396","154.6796","trueblood","0.14","w","240","164","164","240","220.0396","154.6796","39360","39360","34035.6388","dc","null","null","null","null","null","null","[3,2]","508.083944131892","459.30280086561544","518.5984276302939"
"","canvas-keyboard-response","23","189958","0.0-6.0-3.2","514","","","","","rectangles with change","null","null","","","critical","t","c","d","240","164","164","240","220.0396","154.6796","trueblood","0.14","w","240","164","164","240","220.0396","154.6796","39360","39360","34035.6388","dc","null","null","null","null","null","null","[3,2]","508.083944131892","459.30280086561544","518.5984276302939"
"","canvas-keyboard-response","24","189979","0.0-6.0-4.2","514","","","","","clear_screen","null","null","","","critical","t","c","d","240","164","164","240","220.0396","154.6796","trueblood","0.14","w","240","164","164","240","220.0396","154.6796","39360","39360","34035.6388","dc","null","null","null","null","null","null","[3,2]","508.083944131892","459.30280086561544","518.5984276302939"
"","canvas-keyboard-response","25","192306","0.0-6.0-5.2","514","","","","","make choice","2318","3","","","critical","t","c","d","240","164","164","240","220.0396","154.6796","trueblood","0.14","w","240","164","164","240","220.0396","154.6796","39360","39360","34035.6388","dc","null","null","null","null","null","null","[3,2]","","",""
"","canvas-keyboard-response","26","192323","0.0-6.0-6.2","514","","","","","clear_screen","null","null","","","critical","t","c","d","240","164","164","240","220.0396","154.6796","trueblood","0.14","w","240","164","164","240","220.0396","154.6796","39360","39360","34035.6388","dc","null","null","null","null","null","null","[3,2]","","",""
"","canvas-keyboard-response","27","192525","0.0-6.0-0.3","514","","","","","pre trial waiting period","null","null","","","catch","sw","l","sh","180","200","173","252","175","201","spektor","null","null","null","null","null","null","null","null","null","null","null","","180","200","260","200","36000","52000","[1,2]","477.6886876329164","120.13354236787632","475.1140247122256"
"","canvas-keyboard-response","28","192546","0.0-6.0-1.3","514","","","","","clear_screen","null","null","","","catch","sw","l","sh","180","200","173","252","175","201","spektor","null","null","null","null","null","null","null","null","null","null","null","","180","200","260","200","36000","52000","[1,2]","477.6886876329164","120.13354236787632","475.1140247122256"
"","canvas-keyboard-response","29","193057","0.0-6.0-2.3","514","","","","","rectangles no change","null","null","","","catch","sw","l","sh","180","200","173","252","175","201","spektor","null","null","null","null","null","null","null","null","null","null","null","","180","200","260","200","36000","52000","[1,2]","477.6886876329164","120.13354236787632","475.1140247122256"
"","canvas-keyboard-response","30","194392","0.0-6.0-3.3","514","","","","","rectangles with change","null","null","","","catch","sw","l","sh","180","200","173","252","175","201","spektor","null","null","null","null","null","null","null","null","null","null","null","","180","200","260","200","36000","52000","[1,2]","477.6886876329164","120.13354236787632","475.1140247122256"
"","canvas-keyboard-response","31","194410","0.0-6.0-4.3","514","","","","","clear_screen","null","null","","","catch","sw","l","sh","180","200","173","252","175","201","spektor","null","null","null","null","null","null","null","null","null","null","null","","180","200","260","200","36000","52000","[1,2]","477.6886876329164","120.13354236787632","475.1140247122256"
"","canvas-keyboard-response","32","194825","0.0-6.0-5.3","514","","","","","make choice","407","2","","","catch","sw","l","sh","180","200","173","252","175","201","spektor","null","null","null","null","null","null","null","null","null","null","null","","180","200","260","200","36000","52000","[1,2]","","",""
"","canvas-keyboard-response","33","194842","0.0-6.0-6.3","514","","","","","clear_screen","null","null","","","catch","sw","l","sh","180","200","173","252","175","201","spektor","null","null","null","null","null","null","null","null","null","null","null","","180","200","260","200","36000","52000","[1,2]","","",""
"","canvas-keyboard-response","34","195044","0.0-6.0-0.4","514","","","","","pre trial waiting period","null","null","","","critical","c","d","t","164","240","232.8713","160.6713","240","164","spektor","0.05","w","240","164","164","240","232.8713","160.6713","39360","39360","37415.7294","tc","null","null","null","null","null","null","[3,1]","490.88008605420293","214.35749620511217","536.2457956312128"
"","canvas-keyboard-response","35","195062","0.0-6.0-1.4","514","","","","","clear_screen","null","null","","","critical","c","d","t","164","240","232.8713","160.6713","240","164","spektor","0.05","w","240","164","164","240","232.8713","160.6713","39360","39360","37415.7294","tc","null","null","null","null","null","null","[3,1]","490.88008605420293","214.35749620511217","536.2457956312128"
"","canvas-keyboard-response","36","195575","0.0-6.0-2.4","514","","","","","rectangles no change","null","null","","","critical","c","d","t","164","240","232.8713","160.6713","240","164","spektor","0.05","w","240","164","164","240","232.8713","160.6713","39360","39360","37415.7294","tc","null","null","null","null","null","null","[3,1]","490.88008605420293","214.35749620511217","536.2457956312128"
"","canvas-keyboard-response","37","196910","0.0-6.0-3.4","514","","","","","rectangles with change","null","null","","","critical","c","d","t","164","240","232.8713","160.6713","240","164","spektor","0.05","w","240","164","164","240","232.8713","160.6713","39360","39360","37415.7294","tc","null","null","null","null","null","null","[3,1]","490.88008605420293","214.35749620511217","536.2457956312128"
"","canvas-keyboard-response","38","196928","0.0-6.0-4.4","514","","","","","clear_screen","null","null","","","critical","c","d","t","164","240","232.8713","160.6713","240","164","spektor","0.05","w","240","164","164","240","232.8713","160.6713","39360","39360","37415.7294","tc","null","null","null","null","null","null","[3,1]","490.88008605420293","214.35749620511217","536.2457956312128"
"","canvas-keyboard-response","39","198026","0.0-6.0-5.4","514","","","","","make choice","1088","3","","","critical","c","d","t","164","240","232.8713","160.6713","240","164","spektor","0.05","w","240","164","164","240","232.8713","160.6713","39360","39360","37415.7294","tc","null","null","null","null","null","null","[3,1]","","",""
"","canvas-keyboard-response","40","198044","0.0-6.0-6.4","514","","","","","clear_screen","null","null","","","critical","c","d","t","164","240","232.8713","160.6713","240","164","spektor","0.05","w","240","164","164","240","232.8713","160.6713","39360","39360","37415.7294","tc","null","null","null","null","null","null","[3,1]","","",""
"","canvas-keyboard-response","41","198246","0.0-6.0-0.5","514","","","","","pre trial waiting period","null","null","","","catch","sw","sh","l","180","200","203","193","276","229","trueblood","null","null","null","null","null","null","null","null","null","null","null","","180","200","260","200","36000","52000","[1,3]","492.7670523876408","457.7463779756021","430.1178634656878"
"","canvas-keyboard-response","42","198265","0.0-6.0-1.5","514","","","","","clear_screen","null","null","","","catch","sw","sh","l","180","200","203","193","276","229","trueblood","null","null","null","null","null","null","null","null","null","null","null","","180","200","260","200","36000","52000","[1,3]","492.7670523876408","457.7463779756021","430.1178634656878"
"","canvas-keyboard-response","43","198775","0.0-6.0-2.5","514","","","","","rectangles no change","null","null","","","catch","sw","sh","l","180","200","203","193","276","229","trueblood","null","null","null","null","null","null","null","null","null","null","null","","180","200","260","200","36000","52000","[1,3]","492.7670523876408","457.7463779756021","430.1178634656878"
"","canvas-keyboard-response","44","200110","0.0-6.0-3.5","514","","","","","rectangles with change","null","null","","","catch","sw","sh","l","180","200","203","193","276","229","trueblood","null","null","null","null","null","null","null","null","null","null","null","","180","200","260","200","36000","52000","[1,3]","492.7670523876408","457.7463779756021","430.1178634656878"
"","canvas-keyboard-response","45","200128","0.0-6.0-4.5","514","","","","","clear_screen","null","null","","","catch","sw","sh","l","180","200","203","193","276","229","trueblood","null","null","null","null","null","null","null","null","null","null","null","","180","200","260","200","36000","52000","[1,3]","492.7670523876408","457.7463779756021","430.1178634656878"
"","canvas-keyboard-response","46","200641","0.0-6.0-5.5","514","","","","","make choice","506","3","","","catch","sw","sh","l","180","200","203","193","276","229","trueblood","null","null","null","null","null","null","null","null","null","null","null","","180","200","260","200","36000","52000","[1,3]","","",""
"","canvas-keyboard-response","47","200659","0.0-6.0-6.5","514","","","","","clear_screen","null","null","","","catch","sw","sh","l","180","200","203","193","276","229","trueblood","null","null","null","null","null","null","null","null","null","null","null","","180","200","260","200","36000","52000","[1,3]","","",""
"","canvas-keyboard-response","48","200860","0.0-6.0-0.6","514","","","","","pre trial waiting period","null","null","","","catch","sw","l","sh","180","200","237","220","184","141","spektor","null","null","null","null","null","null","null","null","null","null","null","","180","200","260","200","36000","52000","[1,2]","502.208751347954","156.10024809900878","529.4740155538403"
"","canvas-keyboard-response","49","200879","0.0-6.0-1.6","514","","","","","clear_screen","null","null","","","catch","sw","l","sh","180","200","237","220","184","141","spektor","null","null","null","null","null","null","null","null","null","null","null","","180","200","260","200","36000","52000","[1,2]","502.208751347954","156.10024809900878","529.4740155538403"
"","canvas-keyboard-response","50","201389","0.0-6.0-2.6","514","","","","","rectangles no change","null","null","","","catch","sw","l","sh","180","200","237","220","184","141","spektor","null","null","null","null","null","null","null","null","null","null","null","","180","200","260","200","36000","52000","[1,2]","502.208751347954","156.10024809900878","529.4740155538403"
"","canvas-keyboard-response","51","202725","0.0-6.0-3.6","514","","","","","rectangles with change","null","null","","","catch","sw","l","sh","180","200","237","220","184","141","spektor","null","null","null","null","null","null","null","null","null","null","null","","180","200","260","200","36000","52000","[1,2]","502.208751347954","156.10024809900878","529.4740155538403"
"","canvas-keyboard-response","52","202742","0.0-6.0-4.6","514","","","","","clear_screen","null","null","","","catch","sw","l","sh","180","200","237","220","184","141","spektor","null","null","null","null","null","null","null","null","null","null","null","","180","200","260","200","36000","52000","[1,2]","502.208751347954","156.10024809900878","529.4740155538403"
"","canvas-keyboard-response","53","202802","0.0-6.0-5.6","514","","","","","make choice","52","2","","","catch","sw","l","sh","180","200","237","220","184","141","spektor","null","null","null","null","null","null","null","null","null","null","null","","180","200","260","200","36000","52000","[1,2]","","",""
"","canvas-keyboard-response","54","202819","0.0-6.0-6.6","514","","","","","clear_screen","null","null","","","catch","sw","l","sh","180","200","237","220","184","141","spektor","null","null","null","null","null","null","null","null","null","null","null","","180","200","260","200","36000","52000","[1,2]","","",""
"","canvas-keyboard-response","55","203019","0.0-6.0-0.7","514","","","","","pre trial waiting period","null","null","","","critical","t","c","d","240","164","164","240","240","164","spektor","0","w","240","164","164","240","240","164","39360","39360","39360","td","null","null","null","null","null","null","[1,3]","494.71437236794213","145.57058315063367","541.1044554567666"
"","canvas-keyboard-response","56","203038","0.0-6.0-1.7","514","","","","","clear_screen","null","null","","","critical","t","c","d","240","164","164","240","240","164","spektor","0","w","240","164","164","240","240","164","39360","39360","39360","td","null","null","null","null","null","null","[1,3]","494.71437236794213","145.57058315063367","541.1044554567666"
"","canvas-keyboard-response","57","203549","0.0-6.0-2.7","514","","","","","rectangles no change","null","null","","","critical","t","c","d","240","164","164","240","240","164","spektor","0","w","240","164","164","240","240","164","39360","39360","39360","td","null","null","null","null","null","null","[1,3]","494.71437236794213","145.57058315063367","541.1044554567666"
"","canvas-keyboard-response","58","204884","0.0-6.0-3.7","514","","","","","rectangles with change","null","null","","","critical","t","c","d","240","164","164","240","240","164","spektor","0","w","240","164","164","240","240","164","39360","39360","39360","td","null","null","null","null","null","null","[1,3]","494.71437236794213","145.57058315063367","541.1044554567666"
"","canvas-keyboard-response","59","204901","0.0-6.0-4.7","514","","","","","clear_screen","null","null","","","critical","t","c","d","240","164","164","240","240","164","spektor","0","w","240","164","164","240","240","164","39360","39360","39360","td","null","null","null","null","null","null","[1,3]","494.71437236794213","145.57058315063367","541.1044554567666"
"","canvas-keyboard-response","60","205465","0.0-6.0-5.7","514","","","","","make choice","557","3","","","critical","t","c","d","240","164","164","240","240","164","spektor","0","w","240","164","164","240","240","164","39360","39360","39360","td","null","null","null","null","null","null","[1,3]","","",""
"","canvas-keyboard-response","61","205486","0.0-6.0-6.7","514","","","","","clear_screen","null","null","","","critical","t","c","d","240","164","164","240","240","164","spektor","0","w","240","164","164","240","240","164","39360","39360","39360","td","null","null","null","null","null","null","[1,3]","","",""
"","canvas-keyboard-response","62","205688","0.0-6.0-0.8","514","","","","","pre trial waiting period","null","null","","","critical","d","t","c","162.6685","237.1485","164","240","240","164","trueblood","0.02","h","164","240","240","164","162.6685","237.1485","39360","39360","38576.5967","dc","null","null","null","null","null","null","[1,3]","454.2404915484515","420.6207228173901","504.93670712576477"
"","canvas-keyboard-response","63","205706","0.0-6.0-1.8","514","","","","","clear_screen","null","null","","","critical","d","t","c","162.6685","237.1485","164","240","240","164","trueblood","0.02","h","164","240","240","164","162.6685","237.1485","39360","39360","38576.5967","dc","null","null","null","null","null","null","[1,3]","454.2404915484515","420.6207228173901","504.93670712576477"
"","canvas-keyboard-response","64","206218","0.0-6.0-2.8","514","","","","","rectangles no change","null","null","","","critical","d","t","c","162.6685","237.1485","164","240","240","164","trueblood","0.02","h","164","240","240","164","162.6685","237.1485","39360","39360","38576.5967","dc","null","null","null","null","null","null","[1,3]","454.2404915484515","420.6207228173901","504.93670712576477"
"","canvas-keyboard-response","65","207551","0.0-6.0-3.8","514","","","","","rectangles with change","null","null","","","critical","d","t","c","162.6685","237.1485","164","240","240","164","trueblood","0.02","h","164","240","240","164","162.6685","237.1485","39360","39360","38576.5967","dc","null","null","null","null","null","null","[1,3]","454.2404915484515","420.6207228173901","504.93670712576477"
"","canvas-keyboard-response","66","207571","0.0-6.0-4.8","514","","","","","clear_screen","null","null","","","critical","d","t","c","162.6685","237.1485","164","240","240","164","trueblood","0.02","h","164","240","240","164","162.6685","237.1485","39360","39360","38576.5967","dc","null","null","null","null","null","null","[1,3]","454.2404915484515","420.6207228173901","504.93670712576477"
"","canvas-keyboard-response","67","208665","0.0-6.0-5.8","514","","","","","make choice","1087","1","","","critical","d","t","c","162.6685","237.1485","164","240","240","164","trueblood","0.02","h","164","240","240","164","162.6685","237.1485","39360","39360","38576.5967","dc","null","null","null","null","null","null","[1,3]","","",""
"","canvas-keyboard-response","68","208683","0.0-6.0-6.8","514","","","","","clear_screen","null","null","","","critical","d","t","c","162.6685","237.1485","164","240","240","164","trueblood","0.02","h","164","240","240","164","162.6685","237.1485","39360","39360","38576.5967","dc","null","null","null","null","null","null","[1,3]","","",""
"","canvas-keyboard-response","69","208884","0.0-6.0-0.9","514","","","","","pre trial waiting period","null","null","","","critical","c","t","d","240","164","164","240","158.0083","227.1683","trueblood","0.09","h","164","240","240","164","158.0083","227.1683","39360","39360","35894.4834","tc","null","null","null","null","null","null","[2,1]","468.6048256497571","452.1107927482344","432.98013360935846"
"","canvas-keyboard-response","70","208902","0.0-6.0-1.9","514","","","","","clear_screen","null","null","","","critical","c","t","d","240","164","164","240","158.0083","227.1683","trueblood","0.09","h","164","240","240","164","158.0083","227.1683","39360","39360","35894.4834","tc","null","null","null","null","null","null","[2,1]","468.6048256497571","452.1107927482344","432.98013360935846"
"","canvas-keyboard-response","71","209412","0.0-6.0-2.9","514","","","","","rectangles no change","null","null","","","critical","c","t","d","240","164","164","240","158.0083","227.1683","trueblood","0.09","h","164","240","240","164","158.0083","227.1683","39360","39360","35894.4834","tc","null","null","null","null","null","null","[2,1]","468.6048256497571","452.1107927482344","432.98013360935846"
"","canvas-keyboard-response","72","210746","0.0-6.0-3.9","514","","","","","rectangles with change","null","null","","","critical","c","t","d","240","164","164","240","158.0083","227.1683","trueblood","0.09","h","164","240","240","164","158.0083","227.1683","39360","39360","35894.4834","tc","null","null","null","null","null","null","[2,1]","468.6048256497571","452.1107927482344","432.98013360935846"
"","canvas-keyboard-response","73","210763","0.0-6.0-4.9","514","","","","","clear_screen","null","null","","","critical","c","t","d","240","164","164","240","158.0083","227.1683","trueblood","0.09","h","164","240","240","164","158.0083","227.1683","39360","39360","35894.4834","tc","null","null","null","null","null","null","[2,1]","468.6048256497571","452.1107927482344","432.98013360935846"
"","canvas-keyboard-response","74","211265","0.0-6.0-5.9","514","","","","","make choice","494","1","","","critical","c","t","d","240","164","164","240","158.0083","227.1683","trueblood","0.09","h","164","240","240","164","158.0083","227.1683","39360","39360","35894.4834","tc","null","null","null","null","null","null","[2,1]","","",""
"","canvas-keyboard-response","75","211283","0.0-6.0-6.9","514","","","","","clear_screen","null","null","","","critical","c","t","d","240","164","164","240","158.0083","227.1683","trueblood","0.09","h","164","240","240","164","158.0083","227.1683","39360","39360","35894.4834","tc","null","null","null","null","null","null","[2,1]","","",""
"","canvas-keyboard-response","76","211483","0.0-6.0-0.10","514","","","","","pre trial waiting period","null","null","","","critical","t","c","d","164","240","240","164","162.6685","237.1485","trueblood","0.02","h","164","240","240","164","162.6685","237.1485","39360","39360","38576.5967","tc","null","null","null","null","null","null","[1,2]","450.7725432286405","482.8949299336369","443.86186020606414"
"","canvas-keyboard-response","77","211503","0.0-6.0-1.10","514","","","","","clear_screen","null","null","","","critical","t","c","d","164","240","240","164","162.6685","237.1485","trueblood","0.02","h","164","240","240","164","162.6685","237.1485","39360","39360","38576.5967","tc","null","null","null","null","null","null","[1,2]","450.7725432286405","482.8949299336369","443.86186020606414"
"","canvas-keyboard-response","78","212013","0.0-6.0-2.10","514","","","","","rectangles no change","null","null","","","critical","t","c","d","164","240","240","164","162.6685","237.1485","trueblood","0.02","h","164","240","240","164","162.6685","237.1485","39360","39360","38576.5967","tc","null","null","null","null","null","null","[1,2]","450.7725432286405","482.8949299336369","443.86186020606414"
"","canvas-keyboard-response","79","213349","0.0-6.0-3.10","514","","","","","rectangles with change","null","null","","","critical","t","c","d","164","240","240","164","162.6685","237.1485","trueblood","0.02","h","164","240","240","164","162.6685","237.1485","39360","39360","38576.5967","tc","null","null","null","null","null","null","[1,2]","450.7725432286405","482.8949299336369","443.86186020606414"
"","canvas-keyboard-response","80","213367","0.0-6.0-4.10","514","","","","","clear_screen","null","null","","","critical","t","c","d","164","240","240","164","162.6685","237.1485","trueblood","0.02","h","164","240","240","164","162.6685","237.1485","39360","39360","38576.5967","tc","null","null","null","null","null","null","[1,2]","450.7725432286405","482.8949299336369","443.86186020606414"
"","canvas-keyboard-response","81","215393","0.0-6.0-5.10","514","","","","","make choice","2019","2","","","critical","t","c","d","164","240","240","164","162.6685","237.1485","trueblood","0.02","h","164","240","240","164","162.6685","237.1485","39360","39360","38576.5967","tc","null","null","null","null","null","null","[1,2]","","",""
"","canvas-keyboard-response","82","215411","0.0-6.0-6.10","514","","","","","clear_screen","null","null","","","critical","t","c","d","164","240","240","164","162.6685","237.1485","trueblood","0.02","h","164","240","240","164","162.6685","237.1485","39360","39360","38576.5967","tc","null","null","null","null","null","null","[1,2]","","",""
"","canvas-keyboard-response","83","215613","0.0-6.0-0.11","514","","","","","pre trial waiting period","null","null","","","catch","l","sw","sh","292","200","173","209","179","209","spektor","null","null","null","null","null","null","null","null","null","null","null","","180","200","260","200","36000","52000","[1,2]","479.97276700015186","139.3080233042842","493.5919129348297"
"","canvas-keyboard-response","84","215631","0.0-6.0-1.11","514","","","","","clear_screen","null","null","","","catch","l","sw","sh","292","200","173","209","179","209","spektor","null","null","null","null","null","null","null","null","null","null","null","","180","200","260","200","36000","52000","[1,2]","479.97276700015186","139.3080233042842","493.5919129348297"
"","canvas-keyboard-response","85","216145","0.0-6.0-2.11","514","","","","","rectangles no change","null","null","","","catch","l","sw","sh","292","200","173","209","179","209","spektor","null","null","null","null","null","null","null","null","null","null","null","","180","200","260","200","36000","52000","[1,2]","479.97276700015186","139.3080233042842","493.5919129348297"
"","canvas-keyboard-response","86","217480","0.0-6.0-3.11","514","","","","","rectangles with change","null","null","","","catch","l","sw","sh","292","200","173","209","179","209","spektor","null","null","null","null","null","null","null","null","null","null","null","","180","200","260","200","36000","52000","[1,2]","479.97276700015186","139.3080233042842","493.5919129348297"
"","canvas-keyboard-response","87","217499","0.0-6.0-4.11","514","","","","","clear_screen","null","null","","","catch","l","sw","sh","292","200","173","209","179","209","spektor","null","null","null","null","null","null","null","null","null","null","null","","180","200","260","200","36000","52000","[1,2]","479.97276700015186","139.3080233042842","493.5919129348297"
"","canvas-keyboard-response","88","217937","0.0-6.0-5.11","514","","","","","make choice","432","1","","","catch","l","sw","sh","292","200","173","209","179","209","spektor","null","null","null","null","null","null","null","null","null","null","null","","180","200","260","200","36000","52000","[1,2]","","",""
"","canvas-keyboard-response","89","217955","0.0-6.0-6.11","514","","","","","clear_screen","null","null","","","catch","l","sw","sh","292","200","173","209","179","209","spektor","null","null","null","null","null","null","null","null","null","null","null","","180","200","260","200","36000","52000","[1,2]","","",""
"","canvas-keyboard-response","90","218156","0.0-6.0-0.12","514","","","","","pre trial waiting period","null","null","","","critical","t","c","d","240","164","164","240","240","164","spektor","0","w","240","164","164","240","240","164","39360","39360","39360","tc","null","null","null","null","null","null","[1,2]","493.7637316903987","155.17627565170463","506.3022430227647"
"","canvas-keyboard-response","91","218175","0.0-6.0-1.12","514","","","","","clear_screen","null","null","","","critical","t","c","d","240","164","164","240","240","164","spektor","0","w","240","164","164","240","240","164","39360","39360","39360","tc","null","null","null","null","null","null","[1,2]","493.7637316903987","155.17627565170463","506.3022430227647"
"","canvas-keyboard-response","92","218685","0.0-6.0-2.12","514","","","","","rectangles no change","null","null","","","critical","t","c","d","240","164","164","240","240","164","spektor","0","w","240","164","164","240","240","164","39360","39360","39360","tc","null","null","null","null","null","null","[1,2]","493.7637316903987","155.17627565170463","506.3022430227647"
"","canvas-keyboard-response","93","220020","0.0-6.0-3.12","514","","","","","rectangles with change","null","null","","","critical","t","c","d","240","164","164","240","240","164","spektor","0","w","240","164","164","240","240","164","39360","39360","39360","tc","null","null","null","null","null","null","[1,2]","493.7637316903987","155.17627565170463","506.3022430227647"
"","canvas-keyboard-response","94","220038","0.0-6.0-4.12","514","","","","","clear_screen","null","null","","","critical","t","c","d","240","164","164","240","240","164","spektor","0","w","240","164","164","240","240","164","39360","39360","39360","tc","null","null","null","null","null","null","[1,2]","493.7637316903987","155.17627565170463","506.3022430227647"
"","canvas-keyboard-response","95","220441","0.0-6.0-5.12","514","","","","","make choice","395","1","","","critical","t","c","d","240","164","164","240","240","164","spektor","0","w","240","164","164","240","240","164","39360","39360","39360","tc","null","null","null","null","null","null","[1,2]","","",""
"","canvas-keyboard-response","96","220459","0.0-6.0-6.12","514","","","","","clear_screen","null","null","","","critical","t","c","d","240","164","164","240","240","164","spektor","0","w","240","164","164","240","240","164","39360","39360","39360","tc","null","null","null","null","null","null","[1,2]","","",""
"","canvas-keyboard-response","97","220660","0.0-6.0-0.13","514","","","","","pre trial waiting period","null","null","","","critical","d","t","c","162.6685","237.1485","164","240","240","164","spektor","0.02","h","164","240","240","164","162.6685","237.1485","39360","39360","38576.5967","dc","null","null","null","null","null","null","[1,3]","466.7533002761314","133.08738099190558","515.2280960114064"
"","canvas-keyboard-response","98","220679","0.0-6.0-1.13","514","","","","","clear_screen","null","null","","","critical","d","t","c","162.6685","237.1485","164","240","240","164","spektor","0.02","h","164","240","240","164","162.6685","237.1485","39360","39360","38576.5967","dc","null","null","null","null","null","null","[1,3]","466.7533002761314","133.08738099190558","515.2280960114064"
"","canvas-keyboard-response","99","221189","0.0-6.0-2.13","514","","","","","rectangles no change","null","null","","","critical","d","t","c","162.6685","237.1485","164","240","240","164","spektor","0.02","h","164","240","240","164","162.6685","237.1485","39360","39360","38576.5967","dc","null","null","null","null","null","null","[1,3]","466.7533002761314","133.08738099190558","515.2280960114064"
"","canvas-keyboard-response","100","222524","0.0-6.0-3.13","514","","","","","rectangles with change","null","null","","","critical","d","t","c","162.6685","237.1485","164","240","240","164","spektor","0.02","h","164","240","240","164","162.6685","237.1485","39360","39360","38576.5967","dc","null","null","null","null","null","null","[1,3]","466.7533002761314","133.08738099190558","515.2280960114064"
"","canvas-keyboard-response","101","222543","0.0-6.0-4.13","514","","","","","clear_screen","null","null","","","critical","d","t","c","162.6685","237.1485","164","240","240","164","spektor","0.02","h","164","240","240","164","162.6685","237.1485","39360","39360","38576.5967","dc","null","null","null","null","null","null","[1,3]","466.7533002761314","133.08738099190558","515.2280960114064"
"","canvas-keyboard-response","102","223537","0.0-6.0-5.13","514","","","","","make choice","988","3","","","critical","d","t","c","162.6685","237.1485","164","240","240","164","spektor","0.02","h","164","240","240","164","162.6685","237.1485","39360","39360","38576.5967","dc","null","null","null","null","null","null","[1,3]","","",""
"","canvas-keyboard-response","103","223555","0.0-6.0-6.13","514","","","","","clear_screen","null","null","","","critical","d","t","c","162.6685","237.1485","164","240","240","164","spektor","0.02","h","164","240","240","164","162.6685","237.1485","39360","39360","38576.5967","dc","null","null","null","null","null","null","[1,3]","","",""
"","canvas-keyboard-response","104","223757","0.0-6.0-0.14","514","","","","","pre trial waiting period","null","null","","","critical","c","d","t","240","164","160.6713","232.8713","164","240","spektor","0.05","h","164","240","240","164","160.6713","232.8713","39360","39360","37415.7294","tc","null","null","null","null","null","null","[3,1]","504.84093739761585","125.4262173274432","484.0627166251301"
"","canvas-keyboard-response","105","223776","0.0-6.0-1.14","514","","","","","clear_screen","null","null","","","critical","c","d","t","240","164","160.6713","232.8713","164","240","spektor","0.05","h","164","240","240","164","160.6713","232.8713","39360","39360","37415.7294","tc","null","null","null","null","null","null","[3,1]","504.84093739761585","125.4262173274432","484.0627166251301"
"","canvas-keyboard-response","106","224286","0.0-6.0-2.14","514","","","","","rectangles no change","null","null","","","critical","c","d","t","240","164","160.6713","232.8713","164","240","spektor","0.05","h","164","240","240","164","160.6713","232.8713","39360","39360","37415.7294","tc","null","null","null","null","null","null","[3,1]","504.84093739761585","125.4262173274432","484.0627166251301"
"","canvas-keyboard-response","107","225622","0.0-6.0-3.14","514","","","","","rectangles with change","null","null","","","critical","c","d","t","240","164","160.6713","232.8713","164","240","spektor","0.05","h","164","240","240","164","160.6713","232.8713","39360","39360","37415.7294","tc","null","null","null","null","null","null","[3,1]","504.84093739761585","125.4262173274432","484.0627166251301"
"","canvas-keyboard-response","108","225643","0.0-6.0-4.14","514","","","","","clear_screen","null","null","","","critical","c","d","t","240","164","160.6713","232.8713","164","240","spektor","0.05","h","164","240","240","164","160.6713","232.8713","39360","39360","37415.7294","tc","null","null","null","null","null","null","[3,1]","504.84093739761585","125.4262173274432","484.0627166251301"
"","canvas-keyboard-response","109","226153","0.0-6.0-5.14","514","","","","","make choice","503","1","","","critical","c","d","t","240","164","160.6713","232.8713","164","240","spektor","0.05","h","164","240","240","164","160.6713","232.8713","39360","39360","37415.7294","tc","null","null","null","null","null","null","[3,1]","","",""
"","canvas-keyboard-response","110","226173","0.0-6.0-6.14","514","","","","","clear_screen","null","null","","","critical","c","d","t","240","164","160.6713","232.8713","164","240","spektor","0.05","h","164","240","240","164","160.6713","232.8713","39360","39360","37415.7294","tc","null","null","null","null","null","null","[3,1]","","",""
"","canvas-keyboard-response","111","226375","0.0-6.0-0.15","514","","","","","pre trial waiting period","null","null","","","critical","d","c","t","240","164","164","240","240","164","trueblood","0","w","240","164","164","240","240","164","39360","39360","39360","tc","null","null","null","null","null","null","[3,2]","515.967023205716","452.44080197420016","504.9884646490909"
"","canvas-keyboard-response","112","226397","0.0-6.0-1.15","514","","","","","clear_screen","null","null","","","critical","d","c","t","240","164","164","240","240","164","trueblood","0","w","240","164","164","240","240","164","39360","39360","39360","tc","null","null","null","null","null","null","[3,2]","515.967023205716","452.44080197420016","504.9884646490909"
"","canvas-keyboard-response","113","226907","0.0-6.0-2.15","514","","","","","rectangles no change","null","null","","","critical","d","c","t","240","164","164","240","240","164","trueblood","0","w","240","164","164","240","240","164","39360","39360","39360","tc","null","null","null","null","null","null","[3,2]","515.967023205716","452.44080197420016","504.9884646490909"
"","canvas-keyboard-response","114","228242","0.0-6.0-3.15","514","","","","","rectangles with change","null","null","","","critical","d","c","t","240","164","164","240","240","164","trueblood","0","w","240","164","164","240","240","164","39360","39360","39360","tc","null","null","null","null","null","null","[3,2]","515.967023205716","452.44080197420016","504.9884646490909"
"","canvas-keyboard-response","115","228261","0.0-6.0-4.15","514","","","","","clear_screen","null","null","","","critical","d","c","t","240","164","164","240","240","164","trueblood","0","w","240","164","164","240","240","164","39360","39360","39360","tc","null","null","null","null","null","null","[3,2]","515.967023205716","452.44080197420016","504.9884646490909"
"","canvas-keyboard-response","116","229449","0.0-6.0-5.15","514","","","","","make choice","1181","3","","","critical","d","c","t","240","164","164","240","240","164","trueblood","0","w","240","164","164","240","240","164","39360","39360","39360","tc","null","null","null","null","null","null","[3,2]","","",""
"","canvas-keyboard-response","117","229468","0.0-6.0-6.15","514","","","","","clear_screen","null","null","","","critical","d","c","t","240","164","164","240","240","164","trueblood","0","w","240","164","164","240","240","164","39360","39360","39360","tc","null","null","null","null","null","null","[3,2]","","",""
"","canvas-keyboard-response","118","229669","0.0-6.0-0.16","514","","","","","pre trial waiting period","null","null","","","catch","sw","sh","l","180","200","166","198","199","221","spektor","null","null","null","null","null","null","null","null","null","null","null","","180","200","260","200","36000","52000","[1,3]","511.84403689344094","147.71105016959518","468.6169949147476"
"","canvas-keyboard-response","119","229690","0.0-6.0-1.16","514","","","","","clear_screen","null","null","","","catch","sw","sh","l","180","200","166","198","199","221","spektor","null","null","null","null","null","null","null","null","null","null","null","","180","200","260","200","36000","52000","[1,3]","511.84403689344094","147.71105016959518","468.6169949147476"
"","canvas-keyboard-response","120","230201","0.0-6.0-2.16","514","","","","","rectangles no change","null","null","","","catch","sw","sh","l","180","200","166","198","199","221","spektor","null","null","null","null","null","null","null","null","null","null","null","","180","200","260","200","36000","52000","[1,3]","511.84403689344094","147.71105016959518","468.6169949147476"
"","canvas-keyboard-response","121","231536","0.0-6.0-3.16","514","","","","","rectangles with change","null","null","","","catch","sw","sh","l","180","200","166","198","199","221","spektor","null","null","null","null","null","null","null","null","null","null","null","","180","200","260","200","36000","52000","[1,3]","511.84403689344094","147.71105016959518","468.6169949147476"
"","canvas-keyboard-response","122","231555","0.0-6.0-4.16","514","","","","","clear_screen","null","null","","","catch","sw","sh","l","180","200","166","198","199","221","spektor","null","null","null","null","null","null","null","null","null","null","null","","180","200","260","200","36000","52000","[1,3]","511.84403689344094","147.71105016959518","468.6169949147476"
"","canvas-keyboard-response","123","232049","0.0-6.0-5.16","514","","","","","make choice","487","3","","","catch","sw","sh","l","180","200","166","198","199","221","spektor","null","null","null","null","null","null","null","null","null","null","null","","180","200","260","200","36000","52000","[1,3]","","",""
"","canvas-keyboard-response","124","232067","0.0-6.0-6.16","514","","","","","clear_screen","null","null","","","catch","sw","sh","l","180","200","166","198","199","221","spektor","null","null","null","null","null","null","null","null","null","null","null","","180","200","260","200","36000","52000","[1,3]","","",""
"","canvas-keyboard-response","125","232269","0.0-6.0-0.17","514","","","","","pre trial waiting period","null","null","","","critical","c","d","t","240","164","154.6796","220.0396","164","240","trueblood","0.14","h","164","240","240","164","154.6796","220.0396","39360","39360","34035.6388","td","null","null","null","null","null","null","[3,2]","482.0377088118987","450.49992294589345","450.8596592937783"
"","canvas-keyboard-response","126","232288","0.0-6.0-1.17","514","","","","","clear_screen","null","null","","","critical","c","d","t","240","164","154.6796","220.0396","164","240","trueblood","0.14","h","164","240","240","164","154.6796","220.0396","39360","39360","34035.6388","td","null","null","null","null","null","null","[3,2]","482.0377088118987","450.49992294589345","450.8596592937783"
"","canvas-keyboard-response","127","232798","0.0-6.0-2.17","514","","","","","rectangles no change","null","null","","","critical","c","d","t","240","164","154.6796","220.0396","164","240","trueblood","0.14","h","164","240","240","164","154.6796","220.0396","39360","39360","34035.6388","td","null","null","null","null","null","null","[3,2]","482.0377088118987","450.49992294589345","450.8596592937783"
"","canvas-keyboard-response","128","234132","0.0-6.0-3.17","514","","","","","rectangles with change","null","null","","","critical","c","d","t","240","164","154.6796","220.0396","164","240","trueblood","0.14","h","164","240","240","164","154.6796","220.0396","39360","39360","34035.6388","td","null","null","null","null","null","null","[3,2]","482.0377088118987","450.49992294589345","450.8596592937783"
"","canvas-keyboard-response","129","234150","0.0-6.0-4.17","514","","","","","clear_screen","null","null","","","critical","c","d","t","240","164","154.6796","220.0396","164","240","trueblood","0.14","h","164","240","240","164","154.6796","220.0396","39360","39360","34035.6388","td","null","null","null","null","null","null","[3,2]","482.0377088118987","450.49992294589345","450.8596592937783"
"","canvas-keyboard-response","130","234801","0.0-6.0-5.17","514","","","","","make choice","644","3","","","critical","c","d","t","240","164","154.6796","220.0396","164","240","trueblood","0.14","h","164","240","240","164","154.6796","220.0396","39360","39360","34035.6388","td","null","null","null","null","null","null","[3,2]","","",""
"","canvas-keyboard-response","131","234820","0.0-6.0-6.17","514","","","","","clear_screen","null","null","","","critical","c","d","t","240","164","154.6796","220.0396","164","240","trueblood","0.14","h","164","240","240","164","154.6796","220.0396","39360","39360","34035.6388","td","null","null","null","null","null","null","[3,2]","","",""
"","canvas-keyboard-response","132","235021","0.0-6.0-0.18","514","","","","","pre trial waiting period","null","null","","","catch","l","sh","sw","274","175","216","192","151","201","trueblood","null","null","null","null","null","null","null","null","null","null","null","","180","200","260","200","36000","52000","[1,3]","474.0815177415181","453.647609860798","493.1717569299027"
"","canvas-keyboard-response","133","235041","0.0-6.0-1.18","514","","","","","clear_screen","null","null","","","catch","l","sh","sw","274","175","216","192","151","201","trueblood","null","null","null","null","null","null","null","null","null","null","null","","180","200","260","200","36000","52000","[1,3]","474.0815177415181","453.647609860798","493.1717569299027"
"","canvas-keyboard-response","134","235551","0.0-6.0-2.18","514","","","","","rectangles no change","null","null","","","catch","l","sh","sw","274","175","216","192","151","201","trueblood","null","null","null","null","null","null","null","null","null","null","null","","180","200","260","200","36000","52000","[1,3]","474.0815177415181","453.647609860798","493.1717569299027"
"","canvas-keyboard-response","135","236885","0.0-6.0-3.18","514","","","","","rectangles with change","null","null","","","catch","l","sh","sw","274","175","216","192","151","201","trueblood","null","null","null","null","null","null","null","null","null","null","null","","180","200","260","200","36000","52000","[1,3]","474.0815177415181","453.647609860798","493.1717569299027"
"","canvas-keyboard-response","136","236903","0.0-6.0-4.18","514","","","","","clear_screen","null","null","","","catch","l","sh","sw","274","175","216","192","151","201","trueblood","null","null","null","null","null","null","null","null","null","null","null","","180","200","260","200","36000","52000","[1,3]","474.0815177415181","453.647609860798","493.1717569299027"
"","canvas-keyboard-response","137","237722","0.0-6.0-5.18","514","","","","","make choice","811","1","","","catch","l","sh","sw","274","175","216","192","151","201","trueblood","null","null","null","null","null","null","null","null","null","null","null","","180","200","260","200","36000","52000","[1,3]","","",""
"","canvas-keyboard-response","138","237741","0.0-6.0-6.18","514","","","","","clear_screen","null","null","","","catch","l","sh","sw","274","175","216","192","151","201","trueblood","null","null","null","null","null","null","null","null","null","null","null","","180","200","260","200","36000","52000","[1,3]","","",""
"","canvas-keyboard-response","139","237942","0.0-6.0-0.19","514","","","","","pre trial waiting period","null","null","","","catch","sh","sw","l","223","196","195","196","294","205","trueblood","null","null","null","null","null","null","null","null","null","null","null","","180","200","260","200","36000","52000","[2,3]","448.53124820075266","495.61646060075645","466.85817034248095"
"","canvas-keyboard-response","140","237962","0.0-6.0-1.19","514","","","","","clear_screen","null","null","","","catch","sh","sw","l","223","196","195","196","294","205","trueblood","null","null","null","null","null","null","null","null","null","null","null","","180","200","260","200","36000","52000","[2,3]","448.53124820075266","495.61646060075645","466.85817034248095"
"","canvas-keyboard-response","141","238472","0.0-6.0-2.19","514","","","","","rectangles no change","null","null","","","catch","sh","sw","l","223","196","195","196","294","205","trueblood","null","null","null","null","null","null","null","null","null","null","null","","180","200","260","200","36000","52000","[2,3]","448.53124820075266","495.61646060075645","466.85817034248095"
"","canvas-keyboard-response","142","239806","0.0-6.0-3.19","514","","","","","rectangles with change","null","null","","","catch","sh","sw","l","223","196","195","196","294","205","trueblood","null","null","null","null","null","null","null","null","null","null","null","","180","200","260","200","36000","52000","[2,3]","448.53124820075266","495.61646060075645","466.85817034248095"
"","canvas-keyboard-response","143","239826","0.0-6.0-4.19","514","","","","","clear_screen","null","null","","","catch","sh","sw","l","223","196","195","196","294","205","trueblood","null","null","null","null","null","null","null","null","null","null","null","","180","200","260","200","36000","52000","[2,3]","448.53124820075266","495.61646060075645","466.85817034248095"
"","canvas-keyboard-response","144","240721","0.0-6.0-5.19","514","","","","","make choice","888","3","","","catch","sh","sw","l","223","196","195","196","294","205","trueblood","null","null","null","null","null","null","null","null","null","null","null","","180","200","260","200","36000","52000","[2,3]","","",""
"","canvas-keyboard-response","145","240739","0.0-6.0-6.19","514","","","","","clear_screen","null","null","","","catch","sh","sw","l","223","196","195","196","294","205","trueblood","null","null","null","null","null","null","null","null","null","null","null","","180","200","260","200","36000","52000","[2,3]","","",""
"","canvas-keyboard-response","146","240940","0.0-6.0-0.20","514","","","","","pre trial waiting period","null","null","","","catch","l","sw","sh","289","211","161","224","227","190","trueblood","null","null","null","null","null","null","null","null","null","null","null","","180","200","260","200","36000","52000","[1,2]","465.5816716294269","434.5360026097334","468.2975794997311"
"","canvas-keyboard-response","147","240959","0.0-6.0-1.20","514","","","","","clear_screen","null","null","","","catch","l","sw","sh","289","211","161","224","227","190","trueblood","null","null","null","null","null","null","null","null","null","null","null","","180","200","260","200","36000","52000","[1,2]","465.5816716294269","434.5360026097334","468.2975794997311"
"","canvas-keyboard-response","148","241470","0.0-6.0-2.20","514","","","","","rectangles no change","null","null","","","catch","l","sw","sh","289","211","161","224","227","190","trueblood","null","null","null","null","null","null","null","null","null","null","null","","180","200","260","200","36000","52000","[1,2]","465.5816716294269","434.5360026097334","468.2975794997311"
"","canvas-keyboard-response","149","242804","0.0-6.0-3.20","514","","","","","rectangles with change","null","null","","","catch","l","sw","sh","289","211","161","224","227","190","trueblood","null","null","null","null","null","null","null","null","null","null","null","","180","200","260","200","36000","52000","[1,2]","465.5816716294269","434.5360026097334","468.2975794997311"
"","canvas-keyboard-response","150","242821","0.0-6.0-4.20","514","","","","","clear_screen","null","null","","","catch","l","sw","sh","289","211","161","224","227","190","trueblood","null","null","null","null","null","null","null","null","null","null","null","","180","200","260","200","36000","52000","[1,2]","465.5816716294269","434.5360026097334","468.2975794997311"
"","canvas-keyboard-response","151","243337","0.0-6.0-5.20","514","","","","","make choice","508","1","","","catch","l","sw","sh","289","211","161","224","227","190","trueblood","null","null","null","null","null","null","null","null","null","null","null","","180","200","260","200","36000","52000","[1,2]","","",""
"","canvas-keyboard-response","152","243356","0.0-6.0-6.20","514","","","","","clear_screen","null","null","","","catch","l","sw","sh","289","211","161","224","227","190","trueblood","null","null","null","null","null","null","null","null","null","null","null","","180","200","260","200","36000","52000","[1,2]","","",""
"","canvas-keyboard-response","153","243557","0.0-6.0-0.21","514","","","","","pre trial waiting period","null","null","","","critical","t","d","c","164","240","158.0083","227.1683","240","164","trueblood","0.09","h","164","240","240","164","158.0083","227.1683","39360","39360","35894.4834","td","null","null","null","null","null","null","[1,2]","451.7495038837046","447.1278396504661","478.53647040470827"
"","canvas-keyboard-response","154","243577","0.0-6.0-1.21","514","","","","","clear_screen","null","null","","","critical","t","d","c","164","240","158.0083","227.1683","240","164","trueblood","0.09","h","164","240","240","164","158.0083","227.1683","39360","39360","35894.4834","td","null","null","null","null","null","null","[1,2]","451.7495038837046","447.1278396504661","478.53647040470827"
"","canvas-keyboard-response","155","244091","0.0-6.0-2.21","514","","","","","rectangles no change","null","null","","","critical","t","d","c","164","240","158.0083","227.1683","240","164","trueblood","0.09","h","164","240","240","164","158.0083","227.1683","39360","39360","35894.4834","td","null","null","null","null","null","null","[1,2]","451.7495038837046","447.1278396504661","478.53647040470827"
"","canvas-keyboard-response","156","245425","0.0-6.0-3.21","514","","","","","rectangles with change","null","null","","","critical","t","d","c","164","240","158.0083","227.1683","240","164","trueblood","0.09","h","164","240","240","164","158.0083","227.1683","39360","39360","35894.4834","td","null","null","null","null","null","null","[1,2]","451.7495038837046","447.1278396504661","478.53647040470827"
"","canvas-keyboard-response","157","245443","0.0-6.0-4.21","514","","","","","clear_screen","null","null","","","critical","t","d","c","164","240","158.0083","227.1683","240","164","trueblood","0.09","h","164","240","240","164","158.0083","227.1683","39360","39360","35894.4834","td","null","null","null","null","null","null","[1,2]","451.7495038837046","447.1278396504661","478.53647040470827"
"","canvas-keyboard-response","158","246113","0.0-6.0-5.21","514","","","","","make choice","665","1","","","critical","t","d","c","164","240","158.0083","227.1683","240","164","trueblood","0.09","h","164","240","240","164","158.0083","227.1683","39360","39360","35894.4834","td","null","null","null","null","null","null","[1,2]","","",""
"","canvas-keyboard-response","159","246131","0.0-6.0-6.21","514","","","","","clear_screen","null","null","","","critical","t","d","c","164","240","158.0083","227.1683","240","164","trueblood","0.09","h","164","240","240","164","158.0083","227.1683","39360","39360","35894.4834","td","null","null","null","null","null","null","[1,2]","","",""
"","canvas-keyboard-response","160","246332","0.0-6.0-0.22","514","","","","","pre trial waiting period","null","null","","","catch","sw","sh","l","180","200","224","218","204","245","spektor","null","null","null","null","null","null","null","null","null","null","null","","180","200","260","200","36000","52000","[2,3]","521.8088852295554","149.29346179478944","479.3324990647401"
"","canvas-keyboard-response","161","246352","0.0-6.0-1.22","514","","","","","clear_screen","null","null","","","catch","sw","sh","l","180","200","224","218","204","245","spektor","null","null","null","null","null","null","null","null","null","null","null","","180","200","260","200","36000","52000","[2,3]","521.8088852295554","149.29346179478944","479.3324990647401"
"","canvas-keyboard-response","162","246862","0.0-6.0-2.22","514","","","","","rectangles no change","null","null","","","catch","sw","sh","l","180","200","224","218","204","245","spektor","null","null","null","null","null","null","null","null","null","null","null","","180","200","260","200","36000","52000","[2,3]","521.8088852295554","149.29346179478944","479.3324990647401"
"","canvas-keyboard-response","163","248198","0.0-6.0-3.22","514","","","","","rectangles with change","null","null","","","catch","sw","sh","l","180","200","224","218","204","245","spektor","null","null","null","null","null","null","null","null","null","null","null","","180","200","260","200","36000","52000","[2,3]","521.8088852295554","149.29346179478944","479.3324990647401"
"","canvas-keyboard-response","164","248216","0.0-6.0-4.22","514","","","","","clear_screen","null","null","","","catch","sw","sh","l","180","200","224","218","204","245","spektor","null","null","null","null","null","null","null","null","null","null","null","","180","200","260","200","36000","52000","[2,3]","521.8088852295554","149.29346179478944","479.3324990647401"
"","canvas-keyboard-response","165","250161","0.0-6.0-5.22","514","","","","","make choice","1937","3","","","catch","sw","sh","l","180","200","224","218","204","245","spektor","null","null","null","null","null","null","null","null","null","null","null","","180","200","260","200","36000","52000","[2,3]","","",""
"","canvas-keyboard-response","166","250178","0.0-6.0-6.22","514","","","","","clear_screen","null","null","","","catch","sw","sh","l","180","200","224","218","204","245","spektor","null","null","null","null","null","null","null","null","null","null","null","","180","200","260","200","36000","52000","[2,3]","","",""
"","canvas-keyboard-response","167","250380","0.0-6.0-0.23","514","","","","","pre trial waiting period","null","null","","","catch","sw","sh","l","180","200","178","183","200","289","spektor","null","null","null","null","null","null","null","null","null","null","null","","180","200","260","200","36000","52000","[2,3]","504.9881868233066","129.4680265468188","465.1828375335108"
"","canvas-keyboard-response","168","250398","0.0-6.0-1.23","514","","","","","clear_screen","null","null","","","catch","sw","sh","l","180","200","178","183","200","289","spektor","null","null","null","null","null","null","null","null","null","null","null","","180","200","260","200","36000","52000","[2,3]","504.9881868233066","129.4680265468188","465.1828375335108"
"","canvas-keyboard-response","169","250909","0.0-6.0-2.23","514","","","","","rectangles no change","null","null","","","catch","sw","sh","l","180","200","178","183","200","289","spektor","null","null","null","null","null","null","null","null","null","null","null","","180","200","260","200","36000","52000","[2,3]","504.9881868233066","129.4680265468188","465.1828375335108"
"","canvas-keyboard-response","170","252244","0.0-6.0-3.23","514","","","","","rectangles with change","null","null","","","catch","sw","sh","l","180","200","178","183","200","289","spektor","null","null","null","null","null","null","null","null","null","null","null","","180","200","260","200","36000","52000","[2,3]","504.9881868233066","129.4680265468188","465.1828375335108"
"","canvas-keyboard-response","171","252263","0.0-6.0-4.23","514","","","","","clear_screen","null","null","","","catch","sw","sh","l","180","200","178","183","200","289","spektor","null","null","null","null","null","null","null","null","null","null","null","","180","200","260","200","36000","52000","[2,3]","504.9881868233066","129.4680265468188","465.1828375335108"
"","canvas-keyboard-response","172","254297","0.0-6.0-5.23","514","","","","","make choice","2028","3","","","catch","sw","sh","l","180","200","178","183","200","289","spektor","null","null","null","null","null","null","null","null","null","null","null","","180","200","260","200","36000","52000","[2,3]","","",""
"","canvas-keyboard-response","173","254319","0.0-6.0-6.23","514","","","","","clear_screen","null","null","","","catch","sw","sh","l","180","200","178","183","200","289","spektor","null","null","null","null","null","null","null","null","null","null","null","","180","200","260","200","36000","52000","[2,3]","","",""
"","canvas-keyboard-response","174","254520","0.0-6.0-0.24","514","","","","","pre trial waiting period","null","null","","","critical","t","c","d","164","240","240","164","164","240","trueblood","0","h","164","240","240","164","164","240","39360","39360","39360","td","null","null","null","null","null","null","[1,3]","462.4620473791842","487.34398044754494","448.2246670432202"
"","canvas-keyboard-response","175","254540","0.0-6.0-1.24","514","","","","","clear_screen","null","null","","","critical","t","c","d","164","240","240","164","164","240","trueblood","0","h","164","240","240","164","164","240","39360","39360","39360","td","null","null","null","null","null","null","[1,3]","462.4620473791842","487.34398044754494","448.2246670432202"
"","canvas-keyboard-response","176","255050","0.0-6.0-2.24","514","","","","","rectangles no change","null","null","","","critical","t","c","d","164","240","240","164","164","240","trueblood","0","h","164","240","240","164","164","240","39360","39360","39360","td","null","null","null","null","null","null","[1,3]","462.4620473791842","487.34398044754494","448.2246670432202"
"","canvas-keyboard-response","177","256385","0.0-6.0-3.24","514","","","","","rectangles with change","null","null","","","critical","t","c","d","164","240","240","164","164","240","trueblood","0","h","164","240","240","164","164","240","39360","39360","39360","td","null","null","null","null","null","null","[1,3]","462.4620473791842","487.34398044754494","448.2246670432202"
"","canvas-keyboard-response","178","256403","0.0-6.0-4.24","514","","","","","clear_screen","null","null","","","critical","t","c","d","164","240","240","164","164","240","trueblood","0","h","164","240","240","164","164","240","39360","39360","39360","td","null","null","null","null","null","null","[1,3]","462.4620473791842","487.34398044754494","448.2246670432202"
"","canvas-keyboard-response","179","257289","0.0-6.0-5.24","514","","","","","make choice","878","1","","","critical","t","c","d","164","240","240","164","164","240","trueblood","0","h","164","240","240","164","164","240","39360","39360","39360","td","null","null","null","null","null","null","[1,3]","","",""
"","canvas-keyboard-response","180","257308","0.0-6.0-6.24","514","","","","","clear_screen","null","null","","","critical","t","c","d","164","240","240","164","164","240","trueblood","0","h","164","240","240","164","164","240","39360","39360","39360","td","null","null","null","null","null","null","[1,3]","","",""
"","canvas-keyboard-response","181","257508","0.0-6.0-0.25","514","","","","","pre trial waiting period","null","null","","","critical","d","c","t","227.1683","158.0083","164","240","240","164","trueblood","0.09","w","240","164","164","240","227.1683","158.0083","39360","39360","35894.4834","dc","null","null","null","null","null","null","[1,2]","519.5239838367781","467.48606563454155","504.16338189673235"
"","canvas-keyboard-response","182","257527","0.0-6.0-1.25","514","","","","","clear_screen","null","null","","","critical","d","c","t","227.1683","158.0083","164","240","240","164","trueblood","0.09","w","240","164","164","240","227.1683","158.0083","39360","39360","35894.4834","dc","null","null","null","null","null","null","[1,2]","519.5239838367781","467.48606563454155","504.16338189673235"
"","canvas-keyboard-response","183","258038","0.0-6.0-2.25","514","","","","","rectangles no change","null","null","","","critical","d","c","t","227.1683","158.0083","164","240","240","164","trueblood","0.09","w","240","164","164","240","227.1683","158.0083","39360","39360","35894.4834","dc","null","null","null","null","null","null","[1,2]","519.5239838367781","467.48606563454155","504.16338189673235"
"","canvas-keyboard-response","184","259373","0.0-6.0-3.25","514","","","","","rectangles with change","null","null","","","critical","d","c","t","227.1683","158.0083","164","240","240","164","trueblood","0.09","w","240","164","164","240","227.1683","158.0083","39360","39360","35894.4834","dc","null","null","null","null","null","null","[1,2]","519.5239838367781","467.48606563454155","504.16338189673235"
"","canvas-keyboard-response","185","259391","0.0-6.0-4.25","514","","","","","clear_screen","null","null","","","critical","d","c","t","227.1683","158.0083","164","240","240","164","trueblood","0.09","w","240","164","164","240","227.1683","158.0083","39360","39360","35894.4834","dc","null","null","null","null","null","null","[1,2]","519.5239838367781","467.48606563454155","504.16338189673235"
"","canvas-keyboard-response","186","260497","0.0-6.0-5.25","514","","","","","make choice","1097","2","","","critical","d","c","t","227.1683","158.0083","164","240","240","164","trueblood","0.09","w","240","164","164","240","227.1683","158.0083","39360","39360","35894.4834","dc","null","null","null","null","null","null","[1,2]","","",""
"","canvas-keyboard-response","187","260518","0.0-6.0-6.25","514","","","","","clear_screen","null","null","","","critical","d","c","t","227.1683","158.0083","164","240","240","164","trueblood","0.09","w","240","164","164","240","227.1683","158.0083","39360","39360","35894.4834","dc","null","null","null","null","null","null","[1,2]","","",""
"","canvas-keyboard-response","188","260720","0.0-6.0-0.26","514","","","","","pre trial waiting period","null","null","","","critical","t","c","d","240","164","164","240","227.1683","158.0083","spektor","0.09","w","240","164","164","240","227.1683","158.0083","39360","39360","35894.4834","td","null","null","null","null","null","null","[1,3]","503.90494470473686","126.89773368337185","512.6707339911922"
"","canvas-keyboard-response","189","260743","0.0-6.0-1.26","514","","","","","clear_screen","null","null","","","critical","t","c","d","240","164","164","240","227.1683","158.0083","spektor","0.09","w","240","164","164","240","227.1683","158.0083","39360","39360","35894.4834","td","null","null","null","null","null","null","[1,3]","503.90494470473686","126.89773368337185","512.6707339911922"
"","canvas-keyboard-response","190","261252","0.0-6.0-2.26","514","","","","","rectangles no change","null","null","","","critical","t","c","d","240","164","164","240","227.1683","158.0083","spektor","0.09","w","240","164","164","240","227.1683","158.0083","39360","39360","35894.4834","td","null","null","null","null","null","null","[1,3]","503.90494470473686","126.89773368337185","512.6707339911922"
"","canvas-keyboard-response","191","262588","0.0-6.0-3.26","514","","","","","rectangles with change","null","null","","","critical","t","c","d","240","164","164","240","227.1683","158.0083","spektor","0.09","w","240","164","164","240","227.1683","158.0083","39360","39360","35894.4834","td","null","null","null","null","null","null","[1,3]","503.90494470473686","126.89773368337185","512.6707339911922"
"","canvas-keyboard-response","192","262606","0.0-6.0-4.26","514","","","","","clear_screen","null","null","","","critical","t","c","d","240","164","164","240","227.1683","158.0083","spektor","0.09","w","240","164","164","240","227.1683","158.0083","39360","39360","35894.4834","td","null","null","null","null","null","null","[1,3]","503.90494470473686","126.89773368337185","512.6707339911922"
"","canvas-keyboard-response","193","263490","0.0-6.0-5.26","514","","","","","make choice","872","1","","","critical","t","c","d","240","164","164","240","227.1683","158.0083","spektor","0.09","w","240","164","164","240","227.1683","158.0083","39360","39360","35894.4834","td","null","null","null","null","null","null","[1,3]","","",""
"","canvas-keyboard-response","194","263510","0.0-6.0-6.26","514","","","","","clear_screen","null","null","","","critical","t","c","d","240","164","164","240","227.1683","158.0083","spektor","0.09","w","240","164","164","240","227.1683","158.0083","39360","39360","35894.4834","td","null","null","null","null","null","null","[1,3]","","",""
"","canvas-keyboard-response","195","263711","0.0-6.0-0.27","514","","","","","pre trial waiting period","null","null","","","catch","l","sh","sw","223","190","163","167","212","195","trueblood","null","null","null","null","null","null","null","null","null","null","null","","180","200","260","200","36000","52000","[1,2]","463.8380323826852","499.39030661992405","452.34498297262195"
"","canvas-keyboard-response","196","263731","0.0-6.0-1.27","514","","","","","clear_screen","null","null","","","catch","l","sh","sw","223","190","163","167","212","195","trueblood","null","null","null","null","null","null","null","null","null","null","null","","180","200","260","200","36000","52000","[1,2]","463.8380323826852","499.39030661992405","452.34498297262195"
"","canvas-keyboard-response","197","264240","0.0-6.0-2.27","514","","","","","rectangles no change","null","null","","","catch","l","sh","sw","223","190","163","167","212","195","trueblood","null","null","null","null","null","null","null","null","null","null","null","","180","200","260","200","36000","52000","[1,2]","463.8380323826852","499.39030661992405","452.34498297262195"
"","canvas-keyboard-response","198","265575","0.0-6.0-3.27","514","","","","","rectangles with change","null","null","","","catch","l","sh","sw","223","190","163","167","212","195","trueblood","null","null","null","null","null","null","null","null","null","null","null","","180","200","260","200","36000","52000","[1,2]","463.8380323826852","499.39030661992405","452.34498297262195"
"","canvas-keyboard-response","199","265598","0.0-6.0-4.27","514","","","","","clear_screen","null","null","","","catch","l","sh","sw","223","190","163","167","212","195","trueblood","null","null","null","null","null","null","null","null","null","null","null","","180","200","260","200","36000","52000","[1,2]","463.8380323826852","499.39030661992405","452.34498297262195"
"","canvas-keyboard-response","200","266313","0.0-6.0-5.27","514","","","","","make choice","709","1","","","catch","l","sh","sw","223","190","163","167","212","195","trueblood","null","null","null","null","null","null","null","null","null","null","null","","180","200","260","200","36000","52000","[1,2]","","",""
"","canvas-keyboard-response","201","266331","0.0-6.0-6.27","514","","","","","clear_screen","null","null","","","catch","l","sh","sw","223","190","163","167","212","195","trueblood","null","null","null","null","null","null","null","null","null","null","null","","180","200","260","200","36000","52000","[1,2]","","",""
"","canvas-keyboard-response","202","266531","0.0-6.0-0.28","514","","","","","pre trial waiting period","null","null","","","catch","sw","l","sh","180","200","214","222","207","156","trueblood","null","null","null","null","null","null","null","null","null","null","null","","180","200","260","200","36000","52000","[1,2]","458.3764676907884","440.6083208353153","496.01586307886834"
"","canvas-keyboard-response","203","266551","0.0-6.0-1.28","514","","","","","clear_screen","null","null","","","catch","sw","l","sh","180","200","214","222","207","156","trueblood","null","null","null","null","null","null","null","null","null","null","null","","180","200","260","200","36000","52000","[1,2]","458.3764676907884","440.6083208353153","496.01586307886834"
"","canvas-keyboard-response","204","267064","0.0-6.0-2.28","514","","","","","rectangles no change","null","null","","","catch","sw","l","sh","180","200","214","222","207","156","trueblood","null","null","null","null","null","null","null","null","null","null","null","","180","200","260","200","36000","52000","[1,2]","458.3764676907884","440.6083208353153","496.01586307886834"
"","canvas-keyboard-response","205","268397","0.0-6.0-3.28","514","","","","","rectangles with change","null","null","","","catch","sw","l","sh","180","200","214","222","207","156","trueblood","null","null","null","null","null","null","null","null","null","null","null","","180","200","260","200","36000","52000","[1,2]","458.3764676907884","440.6083208353153","496.01586307886834"
"","canvas-keyboard-response","206","268418","0.0-6.0-4.28","514","","","","","clear_screen","null","null","","","catch","sw","l","sh","180","200","214","222","207","156","trueblood","null","null","null","null","null","null","null","null","null","null","null","","180","200","260","200","36000","52000","[1,2]","458.3764676907884","440.6083208353153","496.01586307886834"
"","canvas-keyboard-response","207","268428","0.0-6.0-5.28","514","","","","","make choice","1","2","","","catch","sw","l","sh","180","200","214","222","207","156","trueblood","null","null","null","null","null","null","null","null","null","null","null","","180","200","260","200","36000","52000","[1,2]","","",""
"","canvas-keyboard-response","208","268444","0.0-6.0-6.28","514","","","","","clear_screen","null","null","","","catch","sw","l","sh","180","200","214","222","207","156","trueblood","null","null","null","null","null","null","null","null","null","null","null","","180","200","260","200","36000","52000","[1,2]","","",""
"","canvas-keyboard-response","209","268646","0.0-6.0-0.29","514","","","","","pre trial waiting period","null","null","","","critical","d","t","c","160.6713","232.8713","164","240","240","164","trueblood","0.05","h","164","240","240","164","160.6713","232.8713","39360","39360","37415.7294","tc","null","null","null","null","null","null","[2,3]","459.33397783338916","427.16832527430233","472.1647328024035"
"","canvas-keyboard-response","210","268666","0.0-6.0-1.29","514","","","","","clear_screen","null","null","","","critical","d","t","c","160.6713","232.8713","164","240","240","164","trueblood","0.05","h","164","240","240","164","160.6713","232.8713","39360","39360","37415.7294","tc","null","null","null","null","null","null","[2,3]","459.33397783338916","427.16832527430233","472.1647328024035"
"","canvas-keyboard-response","211","269176","0.0-6.0-2.29","514","","","","","rectangles no change","null","null","","","critical","d","t","c","160.6713","232.8713","164","240","240","164","trueblood","0.05","h","164","240","240","164","160.6713","232.8713","39360","39360","37415.7294","tc","null","null","null","null","null","null","[2,3]","459.33397783338916","427.16832527430233","472.1647328024035"
"","canvas-keyboard-response","212","270512","0.0-6.0-3.29","514","","","","","rectangles with change","null","null","","","critical","d","t","c","160.6713","232.8713","164","240","240","164","trueblood","0.05","h","164","240","240","164","160.6713","232.8713","39360","39360","37415.7294","tc","null","null","null","null","null","null","[2,3]","459.33397783338916","427.16832527430233","472.1647328024035"
"","canvas-keyboard-response","213","270530","0.0-6.0-4.29","514","","","","","clear_screen","null","null","","","critical","d","t","c","160.6713","232.8713","164","240","240","164","trueblood","0.05","h","164","240","240","164","160.6713","232.8713","39360","39360","37415.7294","tc","null","null","null","null","null","null","[2,3]","459.33397783338916","427.16832527430233","472.1647328024035"
"","canvas-keyboard-response","214","272168","0.0-6.0-5.29","514","","","","","make choice","1632","3","","","critical","d","t","c","160.6713","232.8713","164","240","240","164","trueblood","0.05","h","164","240","240","164","160.6713","232.8713","39360","39360","37415.7294","tc","null","null","null","null","null","null","[2,3]","","",""
"","canvas-keyboard-response","215","272187","0.0-6.0-6.29","514","","","","","clear_screen","null","null","","","critical","d","t","c","160.6713","232.8713","164","240","240","164","trueblood","0.05","h","164","240","240","164","160.6713","232.8713","39360","39360","37415.7294","tc","null","null","null","null","null","null","[2,3]","","",""
"","canvas-keyboard-response","216","272388","0.0-6.0-0.30","514","","","","","pre trial waiting period","null","null","","","critical","t","c","d","240","164","164","240","227.1683","158.0083","trueblood","0.09","w","240","164","164","240","227.1683","158.0083","39360","39360","35894.4834","tc","null","null","null","null","null","null","[1,2]","478.36553128476675","455.88058488223504","504.8738580811185"
"","canvas-keyboard-response","217","272407","0.0-6.0-1.30","514","","","","","clear_screen","null","null","","","critical","t","c","d","240","164","164","240","227.1683","158.0083","trueblood","0.09","w","240","164","164","240","227.1683","158.0083","39360","39360","35894.4834","tc","null","null","null","null","null","null","[1,2]","478.36553128476675","455.88058488223504","504.8738580811185"
"","canvas-keyboard-response","218","272917","0.0-6.0-2.30","514","","","","","rectangles no change","null","null","","","critical","t","c","d","240","164","164","240","227.1683","158.0083","trueblood","0.09","w","240","164","164","240","227.1683","158.0083","39360","39360","35894.4834","tc","null","null","null","null","null","null","[1,2]","478.36553128476675","455.88058488223504","504.8738580811185"
"","canvas-keyboard-response","219","274251","0.0-6.0-3.30","514","","","","","rectangles with change","null","null","","","critical","t","c","d","240","164","164","240","227.1683","158.0083","trueblood","0.09","w","240","164","164","240","227.1683","158.0083","39360","39360","35894.4834","tc","null","null","null","null","null","null","[1,2]","478.36553128476675","455.88058488223504","504.8738580811185"
"","canvas-keyboard-response","220","274269","0.0-6.0-4.30","514","","","","","clear_screen","null","null","","","critical","t","c","d","240","164","164","240","227.1683","158.0083","trueblood","0.09","w","240","164","164","240","227.1683","158.0083","39360","39360","35894.4834","tc","null","null","null","null","null","null","[1,2]","478.36553128476675","455.88058488223504","504.8738580811185"
"","canvas-keyboard-response","221","275449","0.0-6.0-5.30","514","","","","","make choice","1173","1","","","critical","t","c","d","240","164","164","240","227.1683","158.0083","trueblood","0.09","w","240","164","164","240","227.1683","158.0083","39360","39360","35894.4834","tc","null","null","null","null","null","null","[1,2]","","",""
"","canvas-keyboard-response","222","275468","0.0-6.0-6.30","514","","","","","clear_screen","null","null","","","critical","t","c","d","240","164","164","240","227.1683","158.0083","trueblood","0.09","w","240","164","164","240","227.1683","158.0083","39360","39360","35894.4834","tc","null","null","null","null","null","null","[1,2]","","",""
"","canvas-keyboard-response","223","275669","0.0-6.0-0.31","514","","","","","pre trial waiting period","null","null","","","critical","t","d","c","240","164","237.1485","162.6685","164","240","spektor","0.02","w","240","164","164","240","237.1485","162.6685","39360","39360","38576.5967","tc","null","null","null","null","null","null","[1,3]","502.38830678769955","179.1233551453691","476.850903570883"
"","canvas-keyboard-response","224","275688","0.0-6.0-1.31","514","","","","","clear_screen","null","null","","","critical","t","d","c","240","164","237.1485","162.6685","164","240","spektor","0.02","w","240","164","164","240","237.1485","162.6685","39360","39360","38576.5967","tc","null","null","null","null","null","null","[1,3]","502.38830678769955","179.1233551453691","476.850903570883"
"","canvas-keyboard-response","225","276199","0.0-6.0-2.31","514","","","","","rectangles no change","null","null","","","critical","t","d","c","240","164","237.1485","162.6685","164","240","spektor","0.02","w","240","164","164","240","237.1485","162.6685","39360","39360","38576.5967","tc","null","null","null","null","null","null","[1,3]","502.38830678769955","179.1233551453691","476.850903570883"
"","canvas-keyboard-response","226","277534","0.0-6.0-3.31","514","","","","","rectangles with change","null","null","","","critical","t","d","c","240","164","237.1485","162.6685","164","240","spektor","0.02","w","240","164","164","240","237.1485","162.6685","39360","39360","38576.5967","tc","null","null","null","null","null","null","[1,3]","502.38830678769955","179.1233551453691","476.850903570883"
"","canvas-keyboard-response","227","277552","0.0-6.0-4.31","514","","","","","clear_screen","null","null","","","critical","t","d","c","240","164","237.1485","162.6685","164","240","spektor","0.02","w","240","164","164","240","237.1485","162.6685","39360","39360","38576.5967","tc","null","null","null","null","null","null","[1,3]","502.38830678769955","179.1233551453691","476.850903570883"
"","canvas-keyboard-response","228","278704","0.0-6.0-5.31","514","","","","","make choice","1146","1","","","critical","t","d","c","240","164","237.1485","162.6685","164","240","spektor","0.02","w","240","164","164","240","237.1485","162.6685","39360","39360","38576.5967","tc","null","null","null","null","null","null","[1,3]","","",""
"","canvas-keyboard-response","229","278723","0.0-6.0-6.31","514","","","","","clear_screen","null","null","","","critical","t","d","c","240","164","237.1485","162.6685","164","240","spektor","0.02","w","240","164","164","240","237.1485","162.6685","39360","39360","38576.5967","tc","null","null","null","null","null","null","[1,3]","","",""
"","canvas-keyboard-response","230","278924","0.0-6.0-0.32","514","","","","","pre trial waiting period","null","null","","","catch","l","sh","sw","278","174","211","176","187","223","trueblood","null","null","null","null","null","null","null","null","null","null","null","","180","200","260","200","36000","52000","[1,2]","495.9259307701157","464.64104260271324","459.0836474322297"
"","canvas-keyboard-response","231","278943","0.0-6.0-1.32","514","","","","","clear_screen","null","null","","","catch","l","sh","sw","278","174","211","176","187","223","trueblood","null","null","null","null","null","null","null","null","null","null","null","","180","200","260","200","36000","52000","[1,2]","495.9259307701157","464.64104260271324","459.0836474322297"
"","canvas-keyboard-response","232","279452","0.0-6.0-2.32","514","","","","","rectangles no change","null","null","","","catch","l","sh","sw","278","174","211","176","187","223","trueblood","null","null","null","null","null","null","null","null","null","null","null","","180","200","260","200","36000","52000","[1,2]","495.9259307701157","464.64104260271324","459.0836474322297"
"","canvas-keyboard-response","233","280787","0.0-6.0-3.32","514","","","","","rectangles with change","null","null","","","catch","l","sh","sw","278","174","211","176","187","223","trueblood","null","null","null","null","null","null","null","null","null","null","null","","180","200","260","200","36000","52000","[1,2]","495.9259307701157","464.64104260271324","459.0836474322297"
"","canvas-keyboard-response","234","280806","0.0-6.0-4.32","514","","","","","clear_screen","null","null","","","catch","l","sh","sw","278","174","211","176","187","223","trueblood","null","null","null","null","null","null","null","null","null","null","null","","180","200","260","200","36000","52000","[1,2]","495.9259307701157","464.64104260271324","459.0836474322297"
"","canvas-keyboard-response","235","281400","0.0-6.0-5.32","514","","","","","make choice","583","1","","","catch","l","sh","sw","278","174","211","176","187","223","trueblood","null","null","null","null","null","null","null","null","null","null","null","","180","200","260","200","36000","52000","[1,2]","","",""
"","canvas-keyboard-response","236","281419","0.0-6.0-6.32","514","","","","","clear_screen","null","null","","","catch","l","sh","sw","278","174","211","176","187","223","trueblood","null","null","null","null","null","null","null","null","null","null","null","","180","200","260","200","36000","52000","[1,2]","","",""
"","canvas-keyboard-response","237","281619","0.0-6.0-0.33","514","","","","","pre trial waiting period","null","null","","","critical","d","t","c","232.8713","160.6713","240","164","164","240","trueblood","0.05","w","240","164","164","240","232.8713","160.6713","39360","39360","37415.7294","tc","null","null","null","null","null","null","[2,3]","471.20960159235244","470.275375325981","448.5424400710618"
"","canvas-keyboard-response","238","281640","0.0-6.0-1.33","514","","","","","clear_screen","null","null","","","critical","d","t","c","232.8713","160.6713","240","164","164","240","trueblood","0.05","w","240","164","164","240","232.8713","160.6713","39360","39360","37415.7294","tc","null","null","null","null","null","null","[2,3]","471.20960159235244","470.275375325981","448.5424400710618"
"","canvas-keyboard-response","239","282151","0.0-6.0-2.33","514","","","","","rectangles no change","null","null","","","critical","d","t","c","232.8713","160.6713","240","164","164","240","trueblood","0.05","w","240","164","164","240","232.8713","160.6713","39360","39360","37415.7294","tc","null","null","null","null","null","null","[2,3]","471.20960159235244","470.275375325981","448.5424400710618"
"","canvas-keyboard-response","240","283486","0.0-6.0-3.33","514","","","","","rectangles with change","null","null","","","critical","d","t","c","232.8713","160.6713","240","164","164","240","trueblood","0.05","w","240","164","164","240","232.8713","160.6713","39360","39360","37415.7294","tc","null","null","null","null","null","null","[2,3]","471.20960159235244","470.275375325981","448.5424400710618"
"","canvas-keyboard-response","241","283503","0.0-6.0-4.33","514","","","","","clear_screen","null","null","","","critical","d","t","c","232.8713","160.6713","240","164","164","240","trueblood","0.05","w","240","164","164","240","232.8713","160.6713","39360","39360","37415.7294","tc","null","null","null","null","null","null","[2,3]","471.20960159235244","470.275375325981","448.5424400710618"
"","canvas-keyboard-response","242","284913","0.0-6.0-5.33","514","","","","","make choice","1403","3","","","critical","d","t","c","232.8713","160.6713","240","164","164","240","trueblood","0.05","w","240","164","164","240","232.8713","160.6713","39360","39360","37415.7294","tc","null","null","null","null","null","null","[2,3]","","",""
"","canvas-keyboard-response","243","284930","0.0-6.0-6.33","514","","","","","clear_screen","null","null","","","critical","d","t","c","232.8713","160.6713","240","164","164","240","trueblood","0.05","w","240","164","164","240","232.8713","160.6713","39360","39360","37415.7294","tc","null","null","null","null","null","null","[2,3]","","",""
"","canvas-keyboard-response","244","285132","0.0-6.0-0.34","514","","","","","pre trial waiting period","null","null","","","catch","sh","l","sw","194","181","169","267","188","191","trueblood","null","null","null","null","null","null","null","null","null","null","null","","180","200","260","200","36000","52000","[2,3]","472.40519667558743","416.4678168348565","458.6761459664069"
"","canvas-keyboard-response","245","285151","0.0-6.0-1.34","514","","","","","clear_screen","null","null","","","catch","sh","l","sw","194","181","169","267","188","191","trueblood","null","null","null","null","null","null","null","null","null","null","null","","180","200","260","200","36000","52000","[2,3]","472.40519667558743","416.4678168348565","458.6761459664069"
"","canvas-keyboard-response","246","285661","0.0-6.0-2.34","514","","","","","rectangles no change","null","null","","","catch","sh","l","sw","194","181","169","267","188","191","trueblood","null","null","null","null","null","null","null","null","null","null","null","","180","200","260","200","36000","52000","[2,3]","472.40519667558743","416.4678168348565","458.6761459664069"
"","canvas-keyboard-response","247","286995","0.0-6.0-3.34","514","","","","","rectangles with change","null","null","","","catch","sh","l","sw","194","181","169","267","188","191","trueblood","null","null","null","null","null","null","null","null","null","null","null","","180","200","260","200","36000","52000","[2,3]","472.40519667558743","416.4678168348565","458.6761459664069"
"","canvas-keyboard-response","248","287013","0.0-6.0-4.34","514","","","","","clear_screen","null","null","","","catch","sh","l","sw","194","181","169","267","188","191","trueblood","null","null","null","null","null","null","null","null","null","null","null","","180","200","260","200","36000","52000","[2,3]","472.40519667558743","416.4678168348565","458.6761459664069"
"","canvas-keyboard-response","249","287784","0.0-6.0-5.34","514","","","","","make choice","764","2","","","catch","sh","l","sw","194","181","169","267","188","191","trueblood","null","null","null","null","null","null","null","null","null","null","null","","180","200","260","200","36000","52000","[2,3]","","",""
"","canvas-keyboard-response","250","287802","0.0-6.0-6.34","514","","","","","clear_screen","null","null","","","catch","sh","l","sw","194","181","169","267","188","191","trueblood","null","null","null","null","null","null","null","null","null","null","null","","180","200","260","200","36000","52000","[2,3]","","",""
"","canvas-keyboard-response","251","288003","0.0-6.0-0.35","514","","","","","pre trial waiting period","null","null","","","critical","t","d","c","240","164","220.0396","154.6796","164","240","trueblood","0.14","w","240","164","164","240","220.0396","154.6796","39360","39360","34035.6388","td","null","null","null","null","null","null","[1,2]","511.45616687494146","504.80356878226604","441.43121720358624"
"","canvas-keyboard-response","252","288022","0.0-6.0-1.35","514","","","","","clear_screen","null","null","","","critical","t","d","c","240","164","220.0396","154.6796","164","240","trueblood","0.14","w","240","164","164","240","220.0396","154.6796","39360","39360","34035.6388","td","null","null","null","null","null","null","[1,2]","511.45616687494146","504.80356878226604","441.43121720358624"
"","canvas-keyboard-response","253","288532","0.0-6.0-2.35","514","","","","","rectangles no change","null","null","","","critical","t","d","c","240","164","220.0396","154.6796","164","240","trueblood","0.14","w","240","164","164","240","220.0396","154.6796","39360","39360","34035.6388","td","null","null","null","null","null","null","[1,2]","511.45616687494146","504.80356878226604","441.43121720358624"
"","canvas-keyboard-response","254","289866","0.0-6.0-3.35","514","","","","","rectangles with change","null","null","","","critical","t","d","c","240","164","220.0396","154.6796","164","240","trueblood","0.14","w","240","164","164","240","220.0396","154.6796","39360","39360","34035.6388","td","null","null","null","null","null","null","[1,2]","511.45616687494146","504.80356878226604","441.43121720358624"
"","canvas-keyboard-response","255","289884","0.0-6.0-4.35","514","","","","","clear_screen","null","null","","","critical","t","d","c","240","164","220.0396","154.6796","164","240","trueblood","0.14","w","240","164","164","240","220.0396","154.6796","39360","39360","34035.6388","td","null","null","null","null","null","null","[1,2]","511.45616687494146","504.80356878226604","441.43121720358624"
"","canvas-keyboard-response","256","290401","0.0-6.0-5.35","514","","","","","make choice","505","1","","","critical","t","d","c","240","164","220.0396","154.6796","164","240","trueblood","0.14","w","240","164","164","240","220.0396","154.6796","39360","39360","34035.6388","td","null","null","null","null","null","null","[1,2]","","",""
"","canvas-keyboard-response","257","290418","0.0-6.0-6.35","514","","","","","clear_screen","null","null","","","critical","t","d","c","240","164","220.0396","154.6796","164","240","trueblood","0.14","w","240","164","164","240","220.0396","154.6796","39360","39360","34035.6388","td","null","null","null","null","null","null","[1,2]","","",""
"","canvas-keyboard-response","258","290620","0.0-6.0-0.36","514","","","","","pre trial waiting period","null","null","","","catch","l","sw","sh","250","204","147","214","217","142","spektor","null","null","null","null","null","null","null","null","null","null","null","","180","200","260","200","36000","52000","[1,2]","518.9282772370271","176.5016882125277","537.2731062067966"
"","canvas-keyboard-response","259","290639","0.0-6.0-1.36","514","","","","","clear_screen","null","null","","","catch","l","sw","sh","250","204","147","214","217","142","spektor","null","null","null","null","null","null","null","null","null","null","null","","180","200","260","200","36000","52000","[1,2]","518.9282772370271","176.5016882125277","537.2731062067966"
"","canvas-keyboard-response","260","291150","0.0-6.0-2.36","514","","","","","rectangles no change","null","null","","","catch","l","sw","sh","250","204","147","214","217","142","spektor","null","null","null","null","null","null","null","null","null","null","null","","180","200","260","200","36000","52000","[1,2]","518.9282772370271","176.5016882125277","537.2731062067966"
"","canvas-keyboard-response","261","292486","0.0-6.0-3.36","514","","","","","rectangles with change","null","null","","","catch","l","sw","sh","250","204","147","214","217","142","spektor","null","null","null","null","null","null","null","null","null","null","null","","180","200","260","200","36000","52000","[1,2]","518.9282772370271","176.5016882125277","537.2731062067966"
"","canvas-keyboard-response","262","292504","0.0-6.0-4.36","514","","","","","clear_screen","null","null","","","catch","l","sw","sh","250","204","147","214","217","142","spektor","null","null","null","null","null","null","null","null","null","null","null","","180","200","260","200","36000","52000","[1,2]","518.9282772370271","176.5016882125277","537.2731062067966"
"","canvas-keyboard-response","263","292904","0.0-6.0-5.36","514","","","","","make choice","391","1","","","catch","l","sw","sh","250","204","147","214","217","142","spektor","null","null","null","null","null","null","null","null","null","null","null","","180","200","260","200","36000","52000","[1,2]","","",""
"","canvas-keyboard-response","264","292924","0.0-6.0-6.36","514","","","","","clear_screen","null","null","","","catch","l","sw","sh","250","204","147","214","217","142","spektor","null","null","null","null","null","null","null","null","null","null","null","","180","200","260","200","36000","52000","[1,2]","","",""
"","canvas-keyboard-response","265","293125","0.0-6.0-0.37","514","","","","","pre trial waiting period","null","null","","","critical","t","d","c","240","164","237.1485","162.6685","164","240","trueblood","0.02","w","240","164","164","240","237.1485","162.6685","39360","39360","38576.5967","dc","null","null","null","null","null","null","[2,3]","472.29004056802916","495.8902107235831","441.5893802719133"
"","canvas-keyboard-response","266","293144","0.0-6.0-1.37","514","","","","","clear_screen","null","null","","","critical","t","d","c","240","164","237.1485","162.6685","164","240","trueblood","0.02","w","240","164","164","240","237.1485","162.6685","39360","39360","38576.5967","dc","null","null","null","null","null","null","[2,3]","472.29004056802916","495.8902107235831","441.5893802719133"
"","canvas-keyboard-response","267","293653","0.0-6.0-2.37","514","","","","","rectangles no change","null","null","","","critical","t","d","c","240","164","237.1485","162.6685","164","240","trueblood","0.02","w","240","164","164","240","237.1485","162.6685","39360","39360","38576.5967","dc","null","null","null","null","null","null","[2,3]","472.29004056802916","495.8902107235831","441.5893802719133"
"","canvas-keyboard-response","268","294987","0.0-6.0-3.37","514","","","","","rectangles with change","null","null","","","critical","t","d","c","240","164","237.1485","162.6685","164","240","trueblood","0.02","w","240","164","164","240","237.1485","162.6685","39360","39360","38576.5967","dc","null","null","null","null","null","null","[2,3]","472.29004056802916","495.8902107235831","441.5893802719133"
