"success","trial_type","trial_index","time_elapsed","internal_node_id","sub_n","timeout","failed_images","failed_audio","failed_video","screen_id","rt","response","stimulus","view_history","trial","r1","r2","r3","w1","h1","w2","h2","w3","h3","display","tdd","tdo","tw","th","cw","ch","dw","dh","ta","ca","da","probe","csls","csss","clls","clss","sa","la","probe_rects","r1yloc","r2yloc","r3yloc"
"true","fullscreen","0","2324","0.0-0.0","568","","","","","","","","","","","","","","","","","","","","","","","","","","","","","","","","","","","","","","","","","",""
"true","preload","1","2350","0.0-1.0","568","false","[]","[]","[]","img preload","","","","","","","","","","","","","","","","","","","","","","","","","","","","","","","","","","","","",""
"","survey-html-form","2","4740","0.0-2.0","568","","","","","enter-sub-number","2380","{""response"":""568""}","","","","","","","","","","","","","","","","","","","","","","","","","","","","","","","","","","",""
"","image-button-response","3","14154","0.0-3.0","568","","","","","","9289","0","consent.png","","","","","","","","","","","","","","","","","","","","","","","","","","","","","","","","","",""
"","html-button-response","4","16039","0.0-4.0","568","","","","","intro mssg","1880","0","<div style= ""font-size:25px;"" <p> <strong> Welcome! </strong><br> <p style=""color:#8B0000; font-size:25px;""><strong> Please do NOT exit full screen until you are done with the experiment. </strong> </p><p style=""font-size:25px;color:#8B0000;""> <strong> Your data will be lost <br> if you try to go back or refresh the page after the experiment starts. Feel free to click ""previous"" during the instructions, however.</strong> </p><br><p> <strong> Thanks in advance for your contribution to our research! </strong></p>","","","","","","","","","","","","","","","","","","","","","","","","","","","","","","","","","",""
"","instructions","5","64200","0.0-5.0","568","","","","","instructions","48157","","","[{""page_index"":0,""viewing_time"":8491},{""page_index"":1,""viewing_time"":10784},{""page_index"":2,""viewing_time"":2128},{""page_index"":3,""viewing_time"":13712},{""page_index"":4,""viewing_time"":6416},{""page_index"":5,""viewing_time"":3224},{""page_index"":6,""viewing_time"":2288},{""page_index"":7,""viewing_time"":1113}]","","","","","","","","","","","","","","","","","","","","","","","","","","","","","","","","",""
"","canvas-keyboard-response","6","64404","0.0-6.0-0.0","568","","","","","pre trial waiting period","null","null","","","critical","t","c","d","164","240","240","164","158.0083","227.1683","trueblood","0.09","h","164","240","240","164","158.0083","227.1683","39360","39360","35894.4834","td","null","null","null","null","null","null","[1,3]","451.8548035108705","502.98992620739983","462.6330015266578"
"","canvas-keyboard-response","7","64427","0.0-6.0-1.0","568","","","","","clear_screen","null","null","","","critical","t","c","d","164","240","240","164","158.0083","227.1683","trueblood","0.09","h","164","240","240","164","158.0083","227.1683","39360","39360","35894.4834","td","null","null","null","null","null","null","[1,3]","451.8548035108705","502.98992620739983","462.6330015266578"
"","canvas-keyboard-response","8","64945","0.0-6.0-2.0","568","","","","","rectangles no change","null","null","","","critical","t","c","d","164","240","240","164","158.0083","227.1683","trueblood","0.09","h","164","240","240","164","158.0083","227.1683","39360","39360","35894.4834","td","null","null","null","null","null","null","[1,3]","451.8548035108705","502.98992620739983","462.6330015266578"
"","canvas-keyboard-response","9","66281","0.0-6.0-3.0","568","","","","","rectangles with change","null","null","","","critical","t","c","d","164","240","240","164","158.0083","227.1683","trueblood","0.09","h","164","240","240","164","158.0083","227.1683","39360","39360","35894.4834","td","null","null","null","null","null","null","[1,3]","451.8548035108705","502.98992620739983","462.6330015266578"
"","canvas-keyboard-response","10","66301","0.0-6.0-4.0","568","","","","","clear_screen","null","null","","","critical","t","c","d","164","240","240","164","158.0083","227.1683","trueblood","0.09","h","164","240","240","164","158.0083","227.1683","39360","39360","35894.4834","td","null","null","null","null","null","null","[1,3]","451.8548035108705","502.98992620739983","462.6330015266578"
"","canvas-keyboard-response","11","70405","0.0-6.0-5.0","568","","","","","make choice","4092","1","","","critical","t","c","d","164","240","240","164","158.0083","227.1683","trueblood","0.09","h","164","240","240","164","158.0083","227.1683","39360","39360","35894.4834","td","null","null","null","null","null","null","[1,3]","","",""
"","canvas-keyboard-response","12","70424","0.0-6.0-6.0","568","","","","","clear_screen","null","null","","","critical","t","c","d","164","240","240","164","158.0083","227.1683","trueblood","0.09","h","164","240","240","164","158.0083","227.1683","39360","39360","35894.4834","td","null","null","null","null","null","null","[1,3]","","",""
"","canvas-keyboard-response","13","70625","0.0-6.0-0.1","568","","","","","pre trial waiting period","null","null","","","catch","sw","l","sh","180","200","240","182","221","142","trueblood","null","null","null","null","null","null","null","null","null","null","null","","180","200","260","200","36000","52000","[2,3]","474.94600717625354","475.9894310500461","500.8937333761922"
"","canvas-keyboard-response","14","70645","0.0-6.0-1.1","568","","","","","clear_screen","null","null","","","catch","sw","l","sh","180","200","240","182","221","142","trueblood","null","null","null","null","null","null","null","null","null","null","null","","180","200","260","200","36000","52000","[2,3]","474.94600717625354","475.9894310500461","500.8937333761922"
"","canvas-keyboard-response","15","71154","0.0-6.0-2.1","568","","","","","rectangles no change","null","null","","","catch","sw","l","sh","180","200","240","182","221","142","trueblood","null","null","null","null","null","null","null","null","null","null","null","","180","200","260","200","36000","52000","[2,3]","474.94600717625354","475.9894310500461","500.8937333761922"
"","canvas-keyboard-response","16","72492","0.0-6.0-3.1","568","","","","","rectangles with change","null","null","","","catch","sw","l","sh","180","200","240","182","221","142","trueblood","null","null","null","null","null","null","null","null","null","null","null","","180","200","260","200","36000","52000","[2,3]","474.94600717625354","475.9894310500461","500.8937333761922"
"","canvas-keyboard-response","17","72513","0.0-6.0-4.1","568","","","","","clear_screen","null","null","","","catch","sw","l","sh","180","200","240","182","221","142","trueblood","null","null","null","null","null","null","null","null","null","null","null","","180","200","260","200","36000","52000","[2,3]","474.94600717625354","475.9894310500461","500.8937333761922"
"","canvas-keyboard-response","18","73133","0.0-6.0-5.1","568","","","","","make choice","609","2","","","catch","sw","l","sh","180","200","240","182","221","142","trueblood","null","null","null","null","null","null","null","null","null","null","null","","180","200","260","200","36000","52000","[2,3]","","",""
"","canvas-keyboard-response","19","73153","0.0-6.0-6.1","568","","","","","clear_screen","null","null","","","catch","sw","l","sh","180","200","240","182","221","142","trueblood","null","null","null","null","null","null","null","null","null","null","null","","180","200","260","200","36000","52000","[2,3]","","",""
"","canvas-keyboard-response","20","73356","0.0-6.0-0.2","568","","","","","pre trial waiting period","null","null","","","critical","t","d","c","240","164","220.0396","154.6796","164","240","trueblood","0.14","w","240","164","164","240","220.0396","154.6796","39360","39360","34035.6388","dc","null","null","null","null","null","null","[2,3]","505.6056234035557","521.2143421631337","442.5319829279453"
"","canvas-keyboard-response","21","73378","0.0-6.0-1.2","568","","","","","clear_screen","null","null","","","critical","t","d","c","240","164","220.0396","154.6796","164","240","trueblood","0.14","w","240","164","164","240","220.0396","154.6796","39360","39360","34035.6388","dc","null","null","null","null","null","null","[2,3]","505.6056234035557","521.2143421631337","442.5319829279453"
"","canvas-keyboard-response","22","73888","0.0-6.0-2.2","568","","","","","rectangles no change","null","null","","","critical","t","d","c","240","164","220.0396","154.6796","164","240","trueblood","0.14","w","240","164","164","240","220.0396","154.6796","39360","39360","34035.6388","dc","null","null","null","null","null","null","[2,3]","505.6056234035557","521.2143421631337","442.5319829279453"
"","canvas-keyboard-response","23","75225","0.0-6.0-3.2","568","","","","","rectangles with change","null","null","","","critical","t","d","c","240","164","220.0396","154.6796","164","240","trueblood","0.14","w","240","164","164","240","220.0396","154.6796","39360","39360","34035.6388","dc","null","null","null","null","null","null","[2,3]","505.6056234035557","521.2143421631337","442.5319829279453"
"","canvas-keyboard-response","24","75243","0.0-6.0-4.2","568","","","","","clear_screen","null","null","","","critical","t","d","c","240","164","220.0396","154.6796","164","240","trueblood","0.14","w","240","164","164","240","220.0396","154.6796","39360","39360","34035.6388","dc","null","null","null","null","null","null","[2,3]","505.6056234035557","521.2143421631337","442.5319829279453"
"","canvas-keyboard-response","25","75853","0.0-6.0-5.2","568","","","","","make choice","602","3","","","critical","t","d","c","240","164","220.0396","154.6796","164","240","trueblood","0.14","w","240","164","164","240","220.0396","154.6796","39360","39360","34035.6388","dc","null","null","null","null","null","null","[2,3]","","",""
"","canvas-keyboard-response","26","75872","0.0-6.0-6.2","568","","","","","clear_screen","null","null","","","critical","t","d","c","240","164","220.0396","154.6796","164","240","trueblood","0.14","w","240","164","164","240","220.0396","154.6796","39360","39360","34035.6388","dc","null","null","null","null","null","null","[2,3]","","",""
"","canvas-keyboard-response","27","76072","0.0-6.0-0.3","568","","","","","pre trial waiting period","null","null","","","critical","d","t","c","237.1485","162.6685","240","164","164","240","trueblood","0.02","w","240","164","164","240","237.1485","162.6685","39360","39360","38576.5967","td","null","null","null","null","null","null","[2,1]","489.70448382881494","476.03372088003766","421.81670791943947"
"","canvas-keyboard-response","28","76097","0.0-6.0-1.3","568","","","","","clear_screen","null","null","","","critical","d","t","c","237.1485","162.6685","240","164","164","240","trueblood","0.02","w","240","164","164","240","237.1485","162.6685","39360","39360","38576.5967","td","null","null","null","null","null","null","[2,1]","489.70448382881494","476.03372088003766","421.81670791943947"
"","canvas-keyboard-response","29","76611","0.0-6.0-2.3","568","","","","","rectangles no change","null","null","","","critical","d","t","c","237.1485","162.6685","240","164","164","240","trueblood","0.02","w","240","164","164","240","237.1485","162.6685","39360","39360","38576.5967","td","null","null","null","null","null","null","[2,1]","489.70448382881494","476.03372088003766","421.81670791943947"
"","canvas-keyboard-response","30","77947","0.0-6.0-3.3","568","","","","","rectangles with change","null","null","","","critical","d","t","c","237.1485","162.6685","240","164","164","240","trueblood","0.02","w","240","164","164","240","237.1485","162.6685","39360","39360","38576.5967","td","null","null","null","null","null","null","[2,1]","489.70448382881494","476.03372088003766","421.81670791943947"
"","canvas-keyboard-response","31","77967","0.0-6.0-4.3","568","","","","","clear_screen","null","null","","","critical","d","t","c","237.1485","162.6685","240","164","164","240","trueblood","0.02","w","240","164","164","240","237.1485","162.6685","39360","39360","38576.5967","td","null","null","null","null","null","null","[2,1]","489.70448382881494","476.03372088003766","421.81670791943947"
"","canvas-keyboard-response","32","78773","0.0-6.0-5.3","568","","","","","make choice","798","2","","","critical","d","t","c","237.1485","162.6685","240","164","164","240","trueblood","0.02","w","240","164","164","240","237.1485","162.6685","39360","39360","38576.5967","td","null","null","null","null","null","null","[2,1]","","",""
"","canvas-keyboard-response","33","78792","0.0-6.0-6.3","568","","","","","clear_screen","null","null","","","critical","d","t","c","237.1485","162.6685","240","164","164","240","trueblood","0.02","w","240","164","164","240","237.1485","162.6685","39360","39360","38576.5967","td","null","null","null","null","null","null","[2,1]","","",""
"","canvas-keyboard-response","34","78993","0.0-6.0-0.4","568","","","","","pre trial waiting period","null","null","","","catch","sw","sh","l","180","200","201","216","218","255","spektor","null","null","null","null","null","null","null","null","null","null","null","","180","200","260","200","36000","52000","[2,3]","522.4981845622492","109.0687278600742","451.5313155003708"
"","canvas-keyboard-response","35","79013","0.0-6.0-1.4","568","","","","","clear_screen","null","null","","","catch","sw","sh","l","180","200","201","216","218","255","spektor","null","null","null","null","null","null","null","null","null","null","null","","180","200","260","200","36000","52000","[2,3]","522.4981845622492","109.0687278600742","451.5313155003708"
"","canvas-keyboard-response","36","79528","0.0-6.0-2.4","568","","","","","rectangles no change","null","null","","","catch","sw","sh","l","180","200","201","216","218","255","spektor","null","null","null","null","null","null","null","null","null","null","null","","180","200","260","200","36000","52000","[2,3]","522.4981845622492","109.0687278600742","451.5313155003708"
"","canvas-keyboard-response","37","80862","0.0-6.0-3.4","568","","","","","rectangles with change","null","null","","","catch","sw","sh","l","180","200","201","216","218","255","spektor","null","null","null","null","null","null","null","null","null","null","null","","180","200","260","200","36000","52000","[2,3]","522.4981845622492","109.0687278600742","451.5313155003708"
"","canvas-keyboard-response","38","80881","0.0-6.0-4.4","568","","","","","clear_screen","null","null","","","catch","sw","sh","l","180","200","201","216","218","255","spektor","null","null","null","null","null","null","null","null","null","null","null","","180","200","260","200","36000","52000","[2,3]","522.4981845622492","109.0687278600742","451.5313155003708"
"","canvas-keyboard-response","39","81655","0.0-6.0-5.4","568","","","","","make choice","767","3","","","catch","sw","sh","l","180","200","201","216","218","255","spektor","null","null","null","null","null","null","null","null","null","null","null","","180","200","260","200","36000","52000","[2,3]","","",""
"","canvas-keyboard-response","40","81674","0.0-6.0-6.4","568","","","","","clear_screen","null","null","","","catch","sw","sh","l","180","200","201","216","218","255","spektor","null","null","null","null","null","null","null","null","null","null","null","","180","200","260","200","36000","52000","[2,3]","","",""
"","canvas-keyboard-response","41","81876","0.0-6.0-0.5","568","","","","","pre trial waiting period","null","null","","","critical","t","c","d","240","164","164","240","240","164","spektor","0","w","240","164","164","240","240","164","39360","39360","39360","tc","null","null","null","null","null","null","[1,2]","531.3103087707939","118.66289182290177","494.571117062986"
"","canvas-keyboard-response","42","81896","0.0-6.0-1.5","568","","","","","clear_screen","null","null","","","critical","t","c","d","240","164","164","240","240","164","spektor","0","w","240","164","164","240","240","164","39360","39360","39360","tc","null","null","null","null","null","null","[1,2]","531.3103087707939","118.66289182290177","494.571117062986"
"","canvas-keyboard-response","43","82408","0.0-6.0-2.5","568","","","","","rectangles no change","null","null","","","critical","t","c","d","240","164","164","240","240","164","spektor","0","w","240","164","164","240","240","164","39360","39360","39360","tc","null","null","null","null","null","null","[1,2]","531.3103087707939","118.66289182290177","494.571117062986"
"","canvas-keyboard-response","44","83744","0.0-6.0-3.5","568","","","","","rectangles with change","null","null","","","critical","t","c","d","240","164","164","240","240","164","spektor","0","w","240","164","164","240","240","164","39360","39360","39360","tc","null","null","null","null","null","null","[1,2]","531.3103087707939","118.66289182290177","494.571117062986"
"","canvas-keyboard-response","45","83762","0.0-6.0-4.5","568","","","","","clear_screen","null","null","","","critical","t","c","d","240","164","164","240","240","164","spektor","0","w","240","164","164","240","240","164","39360","39360","39360","tc","null","null","null","null","null","null","[1,2]","531.3103087707939","118.66289182290177","494.571117062986"
"","canvas-keyboard-response","46","84389","0.0-6.0-5.5","568","","","","","make choice","619","1","","","critical","t","c","d","240","164","164","240","240","164","spektor","0","w","240","164","164","240","240","164","39360","39360","39360","tc","null","null","null","null","null","null","[1,2]","","",""
"","canvas-keyboard-response","47","84407","0.0-6.0-6.5","568","","","","","clear_screen","null","null","","","critical","t","c","d","240","164","164","240","240","164","spektor","0","w","240","164","164","240","240","164","39360","39360","39360","tc","null","null","null","null","null","null","[1,2]","","",""
"","canvas-keyboard-response","48","84607","0.0-6.0-0.6","568","","","","","pre trial waiting period","null","null","","","critical","t","d","c","240","164","237.1485","162.6685","164","240","spektor","0.02","w","240","164","164","240","237.1485","162.6685","39360","39360","38576.5967","tc","null","null","null","null","null","null","[1,3]","513.9182172104712","189.3633260764937","480.90237363913235"
"","canvas-keyboard-response","49","84627","0.0-6.0-1.6","568","","","","","clear_screen","null","null","","","critical","t","d","c","240","164","237.1485","162.6685","164","240","spektor","0.02","w","240","164","164","240","237.1485","162.6685","39360","39360","38576.5967","tc","null","null","null","null","null","null","[1,3]","513.9182172104712","189.3633260764937","480.90237363913235"
"","canvas-keyboard-response","50","85139","0.0-6.0-2.6","568","","","","","rectangles no change","null","null","","","critical","t","d","c","240","164","237.1485","162.6685","164","240","spektor","0.02","w","240","164","164","240","237.1485","162.6685","39360","39360","38576.5967","tc","null","null","null","null","null","null","[1,3]","513.9182172104712","189.3633260764937","480.90237363913235"
"","canvas-keyboard-response","51","86474","0.0-6.0-3.6","568","","","","","rectangles with change","null","null","","","critical","t","d","c","240","164","237.1485","162.6685","164","240","spektor","0.02","w","240","164","164","240","237.1485","162.6685","39360","39360","38576.5967","tc","null","null","null","null","null","null","[1,3]","513.9182172104712","189.3633260764937","480.90237363913235"
"","canvas-keyboard-response","52","86493","0.0-6.0-4.6","568","","","","","clear_screen","null","null","","","critical","t","d","c","240","164","237.1485","162.6685","164","240","spektor","0.02","w","240","164","164","240","237.1485","162.6685","39360","39360","38576.5967","tc","null","null","null","null","null","null","[1,3]","513.9182172104712","189.3633260764937","480.90237363913235"
"","canvas-keyboard-response","53","88373","0.0-6.0-5.6","568","","","","","make choice","1871","3","","","critical","t","d","c","240","164","237.1485","162.6685","164","240","spektor","0.02","w","240","164","164","240","237.1485","162.6685","39360","39360","38576.5967","tc","null","null","null","null","null","null","[1,3]","","",""
"","canvas-keyboard-response","54","88392","0.0-6.0-6.6","568","","","","","clear_screen","null","null","","","critical","t","d","c","240","164","237.1485","162.6685","164","240","spektor","0.02","w","240","164","164","240","237.1485","162.6685","39360","39360","38576.5967","tc","null","null","null","null","null","null","[1,3]","","",""
"","canvas-keyboard-response","55","88592","0.0-6.0-0.7","568","","","","","pre trial waiting period","null","null","","","critical","d","t","c","164","240","164","240","240","164","trueblood","0","h","164","240","240","164","164","240","39360","39360","39360","dc","null","null","null","null","null","null","[1,3]","435.81831201268943","447.76976916786157","484.91428799908834"
"","canvas-keyboard-response","56","88611","0.0-6.0-1.7","568","","","","","clear_screen","null","null","","","critical","d","t","c","164","240","164","240","240","164","trueblood","0","h","164","240","240","164","164","240","39360","39360","39360","dc","null","null","null","null","null","null","[1,3]","435.81831201268943","447.76976916786157","484.91428799908834"
"","canvas-keyboard-response","57","89125","0.0-6.0-2.7","568","","","","","rectangles no change","null","null","","","critical","d","t","c","164","240","164","240","240","164","trueblood","0","h","164","240","240","164","164","240","39360","39360","39360","dc","null","null","null","null","null","null","[1,3]","435.81831201268943","447.76976916786157","484.91428799908834"
"","canvas-keyboard-response","58","90460","0.0-6.0-3.7","568","","","","","rectangles with change","null","null","","","critical","d","t","c","164","240","164","240","240","164","trueblood","0","h","164","240","240","164","164","240","39360","39360","39360","dc","null","null","null","null","null","null","[1,3]","435.81831201268943","447.76976916786157","484.91428799908834"
"","canvas-keyboard-response","59","90478","0.0-6.0-4.7","568","","","","","clear_screen","null","null","","","critical","d","t","c","164","240","164","240","240","164","trueblood","0","h","164","240","240","164","164","240","39360","39360","39360","dc","null","null","null","null","null","null","[1,3]","435.81831201268943","447.76976916786157","484.91428799908834"
"","canvas-keyboard-response","60","91605","0.0-6.0-5.7","568","","","","","make choice","1118","3","","","critical","d","t","c","164","240","164","240","240","164","trueblood","0","h","164","240","240","164","164","240","39360","39360","39360","dc","null","null","null","null","null","null","[1,3]","","",""
"","canvas-keyboard-response","61","91624","0.0-6.0-6.7","568","","","","","clear_screen","null","null","","","critical","d","t","c","164","240","164","240","240","164","trueblood","0","h","164","240","240","164","164","240","39360","39360","39360","dc","null","null","null","null","null","null","[1,3]","","",""
"","canvas-keyboard-response","62","91825","0.0-6.0-0.8","568","","","","","pre trial waiting period","null","null","","","critical","t","c","d","164","240","240","164","164","240","trueblood","0","h","164","240","240","164","164","240","39360","39360","39360","td","null","null","null","null","null","null","[1,3]","452.2984012493761","506.6834593819195","441.19721574079784"
"","canvas-keyboard-response","63","91844","0.0-6.0-1.8","568","","","","","clear_screen","null","null","","","critical","t","c","d","164","240","240","164","164","240","trueblood","0","h","164","240","240","164","164","240","39360","39360","39360","td","null","null","null","null","null","null","[1,3]","452.2984012493761","506.6834593819195","441.19721574079784"
"","canvas-keyboard-response","64","92354","0.0-6.0-2.8","568","","","","","rectangles no change","null","null","","","critical","t","c","d","164","240","240","164","164","240","trueblood","0","h","164","240","240","164","164","240","39360","39360","39360","td","null","null","null","null","null","null","[1,3]","452.2984012493761","506.6834593819195","441.19721574079784"
"","canvas-keyboard-response","65","93690","0.0-6.0-3.8","568","","","","","rectangles with change","null","null","","","critical","t","c","d","164","240","240","164","164","240","trueblood","0","h","164","240","240","164","164","240","39360","39360","39360","td","null","null","null","null","null","null","[1,3]","452.2984012493761","506.6834593819195","441.19721574079784"
"","canvas-keyboard-response","66","93708","0.0-6.0-4.8","568","","","","","clear_screen","null","null","","","critical","t","c","d","164","240","240","164","164","240","trueblood","0","h","164","240","240","164","164","240","39360","39360","39360","td","null","null","null","null","null","null","[1,3]","452.2984012493761","506.6834593819195","441.19721574079784"
"","canvas-keyboard-response","67","94197","0.0-6.0-5.8","568","","","","","make choice","480","1","","","critical","t","c","d","164","240","240","164","164","240","trueblood","0","h","164","240","240","164","164","240","39360","39360","39360","td","null","null","null","null","null","null","[1,3]","","",""
"","canvas-keyboard-response","68","94215","0.0-6.0-6.8","568","","","","","clear_screen","null","null","","","critical","t","c","d","164","240","240","164","164","240","trueblood","0","h","164","240","240","164","164","240","39360","39360","39360","td","null","null","null","null","null","null","[1,3]","","",""
"","canvas-keyboard-response","69","94416","0.0-6.0-0.9","568","","","","","pre trial waiting period","null","null","","","catch","sh","sw","l","235","170","205","205","164","266","spektor","null","null","null","null","null","null","null","null","null","null","null","","180","200","260","200","36000","52000","[1,3]","535.2334905793965","136.67367426523035","447.1681565289952"
"","canvas-keyboard-response","70","94436","0.0-6.0-1.9","568","","","","","clear_screen","null","null","","","catch","sh","sw","l","235","170","205","205","164","266","spektor","null","null","null","null","null","null","null","null","null","null","null","","180","200","260","200","36000","52000","[1,3]","535.2334905793965","136.67367426523035","447.1681565289952"
"","canvas-keyboard-response","71","94946","0.0-6.0-2.9","568","","","","","rectangles no change","null","null","","","catch","sh","sw","l","235","170","205","205","164","266","spektor","null","null","null","null","null","null","null","null","null","null","null","","180","200","260","200","36000","52000","[1,3]","535.2334905793965","136.67367426523035","447.1681565289952"
"","canvas-keyboard-response","72","96282","0.0-6.0-3.9","568","","","","","rectangles with change","null","null","","","catch","sh","sw","l","235","170","205","205","164","266","spektor","null","null","null","null","null","null","null","null","null","null","null","","180","200","260","200","36000","52000","[1,3]","535.2334905793965","136.67367426523035","447.1681565289952"
"","canvas-keyboard-response","73","96300","0.0-6.0-4.9","568","","","","","clear_screen","null","null","","","catch","sh","sw","l","235","170","205","205","164","266","spektor","null","null","null","null","null","null","null","null","null","null","null","","180","200","260","200","36000","52000","[1,3]","535.2334905793965","136.67367426523035","447.1681565289952"
"","canvas-keyboard-response","74","96940","0.0-6.0-5.9","568","","","","","make choice","632","3","","","catch","sh","sw","l","235","170","205","205","164","266","spektor","null","null","null","null","null","null","null","null","null","null","null","","180","200","260","200","36000","52000","[1,3]","","",""
"","canvas-keyboard-response","75","96958","0.0-6.0-6.9","568","","","","","clear_screen","null","null","","","catch","sh","sw","l","235","170","205","205","164","266","spektor","null","null","null","null","null","null","null","null","null","null","null","","180","200","260","200","36000","52000","[1,3]","","",""
"","canvas-keyboard-response","76","97160","0.0-6.0-0.10","568","","","","","pre trial waiting period","null","null","","","critical","d","c","t","237.1485","162.6685","164","240","240","164","trueblood","0.02","w","240","164","164","240","237.1485","162.6685","39360","39360","38576.5967","tc","null","null","null","null","null","null","[3,2]","512.353448870574","442.2392656683169","506.9151488469756"
"","canvas-keyboard-response","77","97179","0.0-6.0-1.10","568","","","","","clear_screen","null","null","","","critical","d","c","t","237.1485","162.6685","164","240","240","164","trueblood","0.02","w","240","164","164","240","237.1485","162.6685","39360","39360","38576.5967","tc","null","null","null","null","null","null","[3,2]","512.353448870574","442.2392656683169","506.9151488469756"
"","canvas-keyboard-response","78","97695","0.0-6.0-2.10","568","","","","","rectangles no change","null","null","","","critical","d","c","t","237.1485","162.6685","164","240","240","164","trueblood","0.02","w","240","164","164","240","237.1485","162.6685","39360","39360","38576.5967","tc","null","null","null","null","null","null","[3,2]","512.353448870574","442.2392656683169","506.9151488469756"
"","canvas-keyboard-response","79","99032","0.0-6.0-3.10","568","","","","","rectangles with change","null","null","","","critical","d","c","t","237.1485","162.6685","164","240","240","164","trueblood","0.02","w","240","164","164","240","237.1485","162.6685","39360","39360","38576.5967","tc","null","null","null","null","null","null","[3,2]","512.353448870574","442.2392656683169","506.9151488469756"
"","canvas-keyboard-response","80","99056","0.0-6.0-4.10","568","","","","","clear_screen","null","null","","","critical","d","c","t","237.1485","162.6685","164","240","240","164","trueblood","0.02","w","240","164","164","240","237.1485","162.6685","39360","39360","38576.5967","tc","null","null","null","null","null","null","[3,2]","512.353448870574","442.2392656683169","506.9151488469756"
"","canvas-keyboard-response","81","99597","0.0-6.0-5.10","568","","","","","make choice","530","3","","","critical","d","c","t","237.1485","162.6685","164","240","240","164","trueblood","0.02","w","240","164","164","240","237.1485","162.6685","39360","39360","38576.5967","tc","null","null","null","null","null","null","[3,2]","","",""
"","canvas-keyboard-response","82","99615","0.0-6.0-6.10","568","","","","","clear_screen","null","null","","","critical","d","c","t","237.1485","162.6685","164","240","240","164","trueblood","0.02","w","240","164","164","240","237.1485","162.6685","39360","39360","38576.5967","tc","null","null","null","null","null","null","[3,2]","","",""
"","canvas-keyboard-response","83","99818","0.0-6.0-0.11","568","","","","","pre trial waiting period","null","null","","","critical","c","t","d","164","240","240","164","237.1485","162.6685","trueblood","0.02","w","240","164","164","240","237.1485","162.6685","39360","39360","38576.5967","dc","null","null","null","null","null","null","[3,1]","426.00349039874095","498.49539538045553","491.0778832503272"
"","canvas-keyboard-response","84","99838","0.0-6.0-1.11","568","","","","","clear_screen","null","null","","","critical","c","t","d","164","240","240","164","237.1485","162.6685","trueblood","0.02","w","240","164","164","240","237.1485","162.6685","39360","39360","38576.5967","dc","null","null","null","null","null","null","[3,1]","426.00349039874095","498.49539538045553","491.0778832503272"
"","canvas-keyboard-response","85","100348","0.0-6.0-2.11","568","","","","","rectangles no change","null","null","","","critical","c","t","d","164","240","240","164","237.1485","162.6685","trueblood","0.02","w","240","164","164","240","237.1485","162.6685","39360","39360","38576.5967","dc","null","null","null","null","null","null","[3,1]","426.00349039874095","498.49539538045553","491.0778832503272"
"","canvas-keyboard-response","86","101684","0.0-6.0-3.11","568","","","","","rectangles with change","null","null","","","critical","c","t","d","164","240","240","164","237.1485","162.6685","trueblood","0.02","w","240","164","164","240","237.1485","162.6685","39360","39360","38576.5967","dc","null","null","null","null","null","null","[3,1]","426.00349039874095","498.49539538045553","491.0778832503272"
"","canvas-keyboard-response","87","101701","0.0-6.0-4.11","568","","","","","clear_screen","null","null","","","critical","c","t","d","164","240","240","164","237.1485","162.6685","trueblood","0.02","w","240","164","164","240","237.1485","162.6685","39360","39360","38576.5967","dc","null","null","null","null","null","null","[3,1]","426.00349039874095","498.49539538045553","491.0778832503272"
"","canvas-keyboard-response","88","102532","0.0-6.0-5.11","568","","","","","make choice","823","3","","","critical","c","t","d","164","240","240","164","237.1485","162.6685","trueblood","0.02","w","240","164","164","240","237.1485","162.6685","39360","39360","38576.5967","dc","null","null","null","null","null","null","[3,1]","","",""
"","canvas-keyboard-response","89","102551","0.0-6.0-6.11","568","","","","","clear_screen","null","null","","","critical","c","t","d","164","240","240","164","237.1485","162.6685","trueblood","0.02","w","240","164","164","240","237.1485","162.6685","39360","39360","38576.5967","dc","null","null","null","null","null","null","[3,1]","","",""
"","canvas-keyboard-response","90","102752","0.0-6.0-0.12","568","","","","","pre trial waiting period","null","null","","","critical","d","t","c","162.6685","237.1485","164","240","240","164","trueblood","0.02","h","164","240","240","164","162.6685","237.1485","39360","39360","38576.5967","dc","null","null","null","null","null","null","[1,3]","462.0205035514056","443.3481490505717","517.7456186084805"
"","canvas-keyboard-response","91","102772","0.0-6.0-1.12","568","","","","","clear_screen","null","null","","","critical","d","t","c","162.6685","237.1485","164","240","240","164","trueblood","0.02","h","164","240","240","164","162.6685","237.1485","39360","39360","38576.5967","dc","null","null","null","null","null","null","[1,3]","462.0205035514056","443.3481490505717","517.7456186084805"
"","canvas-keyboard-response","92","103284","0.0-6.0-2.12","568","","","","","rectangles no change","null","null","","","critical","d","t","c","162.6685","237.1485","164","240","240","164","trueblood","0.02","h","164","240","240","164","162.6685","237.1485","39360","39360","38576.5967","dc","null","null","null","null","null","null","[1,3]","462.0205035514056","443.3481490505717","517.7456186084805"
"","canvas-keyboard-response","93","104619","0.0-6.0-3.12","568","","","","","rectangles with change","null","null","","","critical","d","t","c","162.6685","237.1485","164","240","240","164","trueblood","0.02","h","164","240","240","164","162.6685","237.1485","39360","39360","38576.5967","dc","null","null","null","null","null","null","[1,3]","462.0205035514056","443.3481490505717","517.7456186084805"
"","canvas-keyboard-response","94","104638","0.0-6.0-4.12","568","","","","","clear_screen","10","1","","","critical","d","t","c","162.6685","237.1485","164","240","240","164","trueblood","0.02","h","164","240","240","164","162.6685","237.1485","39360","39360","38576.5967","dc","null","null","null","null","null","null","[1,3]","462.0205035514056","443.3481490505717","517.7456186084805"
"","canvas-keyboard-response","95","107780","0.0-6.0-5.12","568","","","","","make choice","3135","1","","","critical","d","t","c","162.6685","237.1485","164","240","240","164","trueblood","0.02","h","164","240","240","164","162.6685","237.1485","39360","39360","38576.5967","dc","null","null","null","null","null","null","[1,3]","","",""
"","canvas-keyboard-response","96","107799","0.0-6.0-6.12","568","","","","","clear_screen","null","null","","","critical","d","t","c","162.6685","237.1485","164","240","240","164","trueblood","0.02","h","164","240","240","164","162.6685","237.1485","39360","39360","38576.5967","dc","null","null","null","null","null","null","[1,3]","","",""
"","canvas-keyboard-response","97","108000","0.0-6.0-0.13","568","","","","","pre trial waiting period","null","null","","","critical","d","t","c","164","240","164","240","240","164","spektor","0","h","164","240","240","164","164","240","39360","39360","39360","tc","null","null","null","null","null","null","[2,3]","465.4615826206066","121.2545709442085","536.5682741534516"
"","canvas-keyboard-response","98","108020","0.0-6.0-1.13","568","","","","","clear_screen","null","null","","","critical","d","t","c","164","240","164","240","240","164","spektor","0","h","164","240","240","164","164","240","39360","39360","39360","tc","null","null","null","null","null","null","[2,3]","465.4615826206066","121.2545709442085","536.5682741534516"
"","canvas-keyboard-response","99","108530","0.0-6.0-2.13","568","","","","","rectangles no change","null","null","","","critical","d","t","c","164","240","164","240","240","164","spektor","0","h","164","240","240","164","164","240","39360","39360","39360","tc","null","null","null","null","null","null","[2,3]","465.4615826206066","121.2545709442085","536.5682741534516"
"","canvas-keyboard-response","100","109865","0.0-6.0-3.13","568","","","","","rectangles with change","null","null","","","critical","d","t","c","164","240","164","240","240","164","spektor","0","h","164","240","240","164","164","240","39360","39360","39360","tc","null","null","null","null","null","null","[2,3]","465.4615826206066","121.2545709442085","536.5682741534516"
"","canvas-keyboard-response","101","109887","0.0-6.0-4.13","568","","","","","clear_screen","null","null","","","critical","d","t","c","164","240","164","240","240","164","spektor","0","h","164","240","240","164","164","240","39360","39360","39360","tc","null","null","null","null","null","null","[2,3]","465.4615826206066","121.2545709442085","536.5682741534516"
"","canvas-keyboard-response","102","110348","0.0-6.0-5.13","568","","","","","make choice","454","3","","","critical","d","t","c","164","240","164","240","240","164","spektor","0","h","164","240","240","164","164","240","39360","39360","39360","tc","null","null","null","null","null","null","[2,3]","","",""
"","canvas-keyboard-response","103","110368","0.0-6.0-6.13","568","","","","","clear_screen","null","null","","","critical","d","t","c","164","240","164","240","240","164","spektor","0","h","164","240","240","164","164","240","39360","39360","39360","tc","null","null","null","null","null","null","[2,3]","","",""
"","canvas-keyboard-response","104","110569","0.0-6.0-0.14","568","","","","","pre trial waiting period","null","null","","","catch","l","sw","sh","273","211","191","200","219","148","spektor","null","null","null","null","null","null","null","null","null","null","null","","180","200","260","200","36000","52000","[1,3]","476.3518445913848","170.01407354346364","531.6183881626899"
"","canvas-keyboard-response","105","110589","0.0-6.0-1.14","568","","","","","clear_screen","null","null","","","catch","l","sw","sh","273","211","191","200","219","148","spektor","null","null","null","null","null","null","null","null","null","null","null","","180","200","260","200","36000","52000","[1,3]","476.3518445913848","170.01407354346364","531.6183881626899"
"","canvas-keyboard-response","106","111102","0.0-6.0-2.14","568","","","","","rectangles no change","null","null","","","catch","l","sw","sh","273","211","191","200","219","148","spektor","null","null","null","null","null","null","null","null","null","null","null","","180","200","260","200","36000","52000","[1,3]","476.3518445913848","170.01407354346364","531.6183881626899"
"","canvas-keyboard-response","107","112437","0.0-6.0-3.14","568","","","","","rectangles with change","null","null","","","catch","l","sw","sh","273","211","191","200","219","148","spektor","null","null","null","null","null","null","null","null","null","null","null","","180","200","260","200","36000","52000","[1,3]","476.3518445913848","170.01407354346364","531.6183881626899"
"","canvas-keyboard-response","108","112456","0.0-6.0-4.14","568","","","","","clear_screen","null","null","","","catch","l","sw","sh","273","211","191","200","219","148","spektor","null","null","null","null","null","null","null","null","null","null","null","","180","200","260","200","36000","52000","[1,3]","476.3518445913848","170.01407354346364","531.6183881626899"
"","canvas-keyboard-response","109","113460","0.0-6.0-5.14","568","","","","","make choice","998","1","","","catch","l","sw","sh","273","211","191","200","219","148","spektor","null","null","null","null","null","null","null","null","null","null","null","","180","200","260","200","36000","52000","[1,3]","","",""
"","canvas-keyboard-response","110","113479","0.0-6.0-6.14","568","","","","","clear_screen","null","null","","","catch","l","sw","sh","273","211","191","200","219","148","spektor","null","null","null","null","null","null","null","null","null","null","null","","180","200","260","200","36000","52000","[1,3]","","",""
"","canvas-keyboard-response","111","113680","0.0-6.0-0.15","568","","","","","pre trial waiting period","null","null","","","critical","d","t","c","240","164","240","164","164","240","spektor","0","w","240","164","164","240","240","164","39360","39360","39360","td","null","null","null","null","null","null","[2,1]","540.0283500254908","184.14455147225686","480.473660680055"
"","canvas-keyboard-response","112","113701","0.0-6.0-1.15","568","","","","","clear_screen","null","null","","","critical","d","t","c","240","164","240","164","164","240","spektor","0","w","240","164","164","240","240","164","39360","39360","39360","td","null","null","null","null","null","null","[2,1]","540.0283500254908","184.14455147225686","480.473660680055"
"","canvas-keyboard-response","113","114212","0.0-6.0-2.15","568","","","","","rectangles no change","null","null","","","critical","d","t","c","240","164","240","164","164","240","spektor","0","w","240","164","164","240","240","164","39360","39360","39360","td","null","null","null","null","null","null","[2,1]","540.0283500254908","184.14455147225686","480.473660680055"
"","canvas-keyboard-response","114","115549","0.0-6.0-3.15","568","","","","","rectangles with change","null","null","","","critical","d","t","c","240","164","240","164","164","240","spektor","0","w","240","164","164","240","240","164","39360","39360","39360","td","null","null","null","null","null","null","[2,1]","540.0283500254908","184.14455147225686","480.473660680055"
"","canvas-keyboard-response","115","115570","0.0-6.0-4.15","568","","","","","clear_screen","null","null","","","critical","d","t","c","240","164","240","164","164","240","spektor","0","w","240","164","164","240","240","164","39360","39360","39360","td","null","null","null","null","null","null","[2,1]","540.0283500254908","184.14455147225686","480.473660680055"
"","canvas-keyboard-response","116","116404","0.0-6.0-5.15","568","","","","","make choice","824","1","","","critical","d","t","c","240","164","240","164","164","240","spektor","0","w","240","164","164","240","240","164","39360","39360","39360","td","null","null","null","null","null","null","[2,1]","","",""
"","canvas-keyboard-response","117","116424","0.0-6.0-6.15","568","","","","","clear_screen","null","null","","","critical","d","t","c","240","164","240","164","164","240","spektor","0","w","240","164","164","240","240","164","39360","39360","39360","td","null","null","null","null","null","null","[2,1]","","",""
"","canvas-keyboard-response","118","116626","0.0-6.0-0.16","568","","","","","pre trial waiting period","null","null","","","catch","sh","sw","l","184","147","207","165","218","254","trueblood","null","null","null","null","null","null","null","null","null","null","null","","180","200","260","200","36000","52000","[1,3]","497.5008849695832","481.14605035896034","409.97435693799076"
"","canvas-keyboard-response","119","116646","0.0-6.0-1.16","568","","","","","clear_screen","null","null","","","catch","sh","sw","l","184","147","207","165","218","254","trueblood","null","null","null","null","null","null","null","null","null","null","null","","180","200","260","200","36000","52000","[1,3]","497.5008849695832","481.14605035896034","409.97435693799076"
"","canvas-keyboard-response","120","117159","0.0-6.0-2.16","568","","","","","rectangles no change","null","null","","","catch","sh","sw","l","184","147","207","165","218","254","trueblood","null","null","null","null","null","null","null","null","null","null","null","","180","200","260","200","36000","52000","[1,3]","497.5008849695832","481.14605035896034","409.97435693799076"
"","canvas-keyboard-response","121","118495","0.0-6.0-3.16","568","","","","","rectangles with change","null","null","","","catch","sh","sw","l","184","147","207","165","218","254","trueblood","null","null","null","null","null","null","null","null","null","null","null","","180","200","260","200","36000","52000","[1,3]","497.5008849695832","481.14605035896034","409.97435693799076"
"","canvas-keyboard-response","122","118514","0.0-6.0-4.16","568","","","","","clear_screen","null","null","","","catch","sh","sw","l","184","147","207","165","218","254","trueblood","null","null","null","null","null","null","null","null","null","null","null","","180","200","260","200","36000","52000","[1,3]","497.5008849695832","481.14605035896034","409.97435693799076"
"","canvas-keyboard-response","123","119316","0.0-6.0-5.16","568","","","","","make choice","793","3","","","catch","sh","sw","l","184","147","207","165","218","254","trueblood","null","null","null","null","null","null","null","null","null","null","null","","180","200","260","200","36000","52000","[1,3]","","",""
"","canvas-keyboard-response","124","119336","0.0-6.0-6.16","568","","","","","clear_screen","null","null","","","catch","sh","sw","l","184","147","207","165","218","254","trueblood","null","null","null","null","null","null","null","null","null","null","null","","180","200","260","200","36000","52000","[1,3]","","",""
"","canvas-keyboard-response","125","119539","0.0-6.0-0.17","568","","","","","pre trial waiting period","null","null","","","catch","sh","sw","l","176","218","214","228","198","285","spektor","null","null","null","null","null","null","null","null","null","null","null","","180","200","260","200","36000","52000","[1,3]","486.15445713253473","111.46072837985292","441.83363908143116"
"","canvas-keyboard-response","126","119559","0.0-6.0-1.17","568","","","","","clear_screen","null","null","","","catch","sh","sw","l","176","218","214","228","198","285","spektor","null","null","null","null","null","null","null","null","null","null","null","","180","200","260","200","36000","52000","[1,3]","486.15445713253473","111.46072837985292","441.83363908143116"
"","canvas-keyboard-response","127","120073","0.0-6.0-2.17","568","","","","","rectangles no change","null","null","","","catch","sh","sw","l","176","218","214","228","198","285","spektor","null","null","null","null","null","null","null","null","null","null","null","","180","200","260","200","36000","52000","[1,3]","486.15445713253473","111.46072837985292","441.83363908143116"
"","canvas-keyboard-response","128","121409","0.0-6.0-3.17","568","","","","","rectangles with change","null","null","","","catch","sh","sw","l","176","218","214","228","198","285","spektor","null","null","null","null","null","null","null","null","null","null","null","","180","200","260","200","36000","52000","[1,3]","486.15445713253473","111.46072837985292","441.83363908143116"
"","canvas-keyboard-response","129","121429","0.0-6.0-4.17","568","","","","","clear_screen","null","null","","","catch","sh","sw","l","176","218","214","228","198","285","spektor","null","null","null","null","null","null","null","null","null","null","null","","180","200","260","200","36000","52000","[1,3]","486.15445713253473","111.46072837985292","441.83363908143116"
"","canvas-keyboard-response","130","121660","0.0-6.0-5.17","568","","","","","make choice","225","3","","","catch","sh","sw","l","176","218","214","228","198","285","spektor","null","null","null","null","null","null","null","null","null","null","null","","180","200","260","200","36000","52000","[1,3]","","",""
"","canvas-keyboard-response","131","121679","0.0-6.0-6.17","568","","","","","clear_screen","null","null","","","catch","sh","sw","l","176","218","214","228","198","285","spektor","null","null","null","null","null","null","null","null","null","null","null","","180","200","260","200","36000","52000","[1,3]","","",""
"","canvas-keyboard-response","132","121880","0.0-6.0-0.18","568","","","","","pre trial waiting period","null","null","","","catch","sw","l","sh","180","200","223","220","160","179","trueblood","null","null","null","null","null","null","null","null","null","null","null","","180","200","260","200","36000","52000","[1,2]","486.97685521799775","479.0017275153376","481.8602731209482"
"","canvas-keyboard-response","133","121900","0.0-6.0-1.18","568","","","","","clear_screen","null","null","","","catch","sw","l","sh","180","200","223","220","160","179","trueblood","null","null","null","null","null","null","null","null","null","null","null","","180","200","260","200","36000","52000","[1,2]","486.97685521799775","479.0017275153376","481.8602731209482"
"","canvas-keyboard-response","134","122412","0.0-6.0-2.18","568","","","","","rectangles no change","null","null","","","catch","sw","l","sh","180","200","223","220","160","179","trueblood","null","null","null","null","null","null","null","null","null","null","null","","180","200","260","200","36000","52000","[1,2]","486.97685521799775","479.0017275153376","481.8602731209482"
"","canvas-keyboard-response","135","123748","0.0-6.0-3.18","568","","","","","rectangles with change","null","null","","","catch","sw","l","sh","180","200","223","220","160","179","trueblood","null","null","null","null","null","null","null","null","null","null","null","","180","200","260","200","36000","52000","[1,2]","486.97685521799775","479.0017275153376","481.8602731209482"
"","canvas-keyboard-response","136","123768","0.0-6.0-4.18","568","","","","","clear_screen","null","null","","","catch","sw","l","sh","180","200","223","220","160","179","trueblood","null","null","null","null","null","null","null","null","null","null","null","","180","200","260","200","36000","52000","[1,2]","486.97685521799775","479.0017275153376","481.8602731209482"
"","canvas-keyboard-response","137","124933","0.0-6.0-5.18","568","","","","","make choice","1157","2","","","catch","sw","l","sh","180","200","223","220","160","179","trueblood","null","null","null","null","null","null","null","null","null","null","null","","180","200","260","200","36000","52000","[1,2]","","",""
"","canvas-keyboard-response","138","124952","0.0-6.0-6.18","568","","","","","clear_screen","null","null","","","catch","sw","l","sh","180","200","223","220","160","179","trueblood","null","null","null","null","null","null","null","null","null","null","null","","180","200","260","200","36000","52000","[1,2]","","",""
"","canvas-keyboard-response","139","125153","0.0-6.0-0.19","568","","","","","pre trial waiting period","null","null","","","critical","d","t","c","227.1683","158.0083","240","164","164","240","spektor","0.09","w","240","164","164","240","227.1683","158.0083","39360","39360","35894.4834","tc","null","null","null","null","null","null","[2,3]","544.1258895907416","204.96536095727987","484.51290042795483"
"","canvas-keyboard-response","140","125174","0.0-6.0-1.19","568","","","","","clear_screen","null","null","","","critical","d","t","c","227.1683","158.0083","240","164","164","240","spektor","0.09","w","240","164","164","240","227.1683","158.0083","39360","39360","35894.4834","tc","null","null","null","null","null","null","[2,3]","544.1258895907416","204.96536095727987","484.51290042795483"
"","canvas-keyboard-response","141","125685","0.0-6.0-2.19","568","","","","","rectangles no change","null","null","","","critical","d","t","c","227.1683","158.0083","240","164","164","240","spektor","0.09","w","240","164","164","240","227.1683","158.0083","39360","39360","35894.4834","tc","null","null","null","null","null","null","[2,3]","544.1258895907416","204.96536095727987","484.51290042795483"
"","canvas-keyboard-response","142","127020","0.0-6.0-3.19","568","","","","","rectangles with change","null","null","","","critical","d","t","c","227.1683","158.0083","240","164","164","240","spektor","0.09","w","240","164","164","240","227.1683","158.0083","39360","39360","35894.4834","tc","null","null","null","null","null","null","[2,3]","544.1258895907416","204.96536095727987","484.51290042795483"
"","canvas-keyboard-response","143","127039","0.0-6.0-4.19","568","","","","","clear_screen","null","null","","","critical","d","t","c","227.1683","158.0083","240","164","164","240","spektor","0.09","w","240","164","164","240","227.1683","158.0083","39360","39360","35894.4834","tc","null","null","null","null","null","null","[2,3]","544.1258895907416","204.96536095727987","484.51290042795483"
"","canvas-keyboard-response","144","127813","0.0-6.0-5.19","568","","","","","make choice","768","3","","","critical","d","t","c","227.1683","158.0083","240","164","164","240","spektor","0.09","w","240","164","164","240","227.1683","158.0083","39360","39360","35894.4834","tc","null","null","null","null","null","null","[2,3]","","",""
"","canvas-keyboard-response","145","127831","0.0-6.0-6.19","568","","","","","clear_screen","null","null","","","critical","d","t","c","227.1683","158.0083","240","164","164","240","spektor","0.09","w","240","164","164","240","227.1683","158.0083","39360","39360","35894.4834","tc","null","null","null","null","null","null","[2,3]","","",""
"","canvas-keyboard-response","146","128032","0.0-6.0-0.20","568","","","","","pre trial waiting period","null","null","","","critical","c","t","d","164","240","240","164","232.8713","160.6713","spektor","0.05","w","240","164","164","240","232.8713","160.6713","39360","39360","37415.7294","td","null","null","null","null","null","null","[2,3]","456.14362995110287","214.66829095094536","504.5913863442745"
"","canvas-keyboard-response","147","128051","0.0-6.0-1.20","568","","","","","clear_screen","null","null","","","critical","c","t","d","164","240","240","164","232.8713","160.6713","spektor","0.05","w","240","164","164","240","232.8713","160.6713","39360","39360","37415.7294","td","null","null","null","null","null","null","[2,3]","456.14362995110287","214.66829095094536","504.5913863442745"
"","canvas-keyboard-response","148","128562","0.0-6.0-2.20","568","","","","","rectangles no change","null","null","","","critical","c","t","d","164","240","240","164","232.8713","160.6713","spektor","0.05","w","240","164","164","240","232.8713","160.6713","39360","39360","37415.7294","td","null","null","null","null","null","null","[2,3]","456.14362995110287","214.66829095094536","504.5913863442745"
"","canvas-keyboard-response","149","129898","0.0-6.0-3.20","568","","","","","rectangles with change","null","null","","","critical","c","t","d","164","240","240","164","232.8713","160.6713","spektor","0.05","w","240","164","164","240","232.8713","160.6713","39360","39360","37415.7294","td","null","null","null","null","null","null","[2,3]","456.14362995110287","214.66829095094536","504.5913863442745"
"","canvas-keyboard-response","150","129920","0.0-6.0-4.20","568","","","","","clear_screen","null","null","","","critical","c","t","d","164","240","240","164","232.8713","160.6713","spektor","0.05","w","240","164","164","240","232.8713","160.6713","39360","39360","37415.7294","td","null","null","null","null","null","null","[2,3]","456.14362995110287","214.66829095094536","504.5913863442745"
"","canvas-keyboard-response","151","130188","0.0-6.0-5.20","568","","","","","make choice","261","3","","","critical","c","t","d","164","240","240","164","232.8713","160.6713","spektor","0.05","w","240","164","164","240","232.8713","160.6713","39360","39360","37415.7294","td","null","null","null","null","null","null","[2,3]","","",""
"","canvas-keyboard-response","152","130207","0.0-6.0-6.20","568","","","","","clear_screen","null","null","","","critical","c","t","d","164","240","240","164","232.8713","160.6713","spektor","0.05","w","240","164","164","240","232.8713","160.6713","39360","39360","37415.7294","td","null","null","null","null","null","null","[2,3]","","",""
"","canvas-keyboard-response","153","130408","0.0-6.0-0.21","568","","","","","pre trial waiting period","null","null","","","critical","t","c","d","164","240","240","164","158.0083","227.1683","spektor","0.09","h","164","240","240","164","158.0083","227.1683","39360","39360","35894.4834","dc","null","null","null","null","null","null","[3,2]","491.31156677847514","158.3431366219196","472.5148189923653"
"","canvas-keyboard-response","154","130427","0.0-6.0-1.21","568","","","","","clear_screen","null","null","","","critical","t","c","d","164","240","240","164","158.0083","227.1683","spektor","0.09","h","164","240","240","164","158.0083","227.1683","39360","39360","35894.4834","dc","null","null","null","null","null","null","[3,2]","491.31156677847514","158.3431366219196","472.5148189923653"
"","canvas-keyboard-response","155","130938","0.0-6.0-2.21","568","","","","","rectangles no change","null","null","","","critical","t","c","d","164","240","240","164","158.0083","227.1683","spektor","0.09","h","164","240","240","164","158.0083","227.1683","39360","39360","35894.4834","dc","null","null","null","null","null","null","[3,2]","491.31156677847514","158.3431366219196","472.5148189923653"
"","canvas-keyboard-response","156","132274","0.0-6.0-3.21","568","","","","","rectangles with change","null","null","","","critical","t","c","d","164","240","240","164","158.0083","227.1683","spektor","0.09","h","164","240","240","164","158.0083","227.1683","39360","39360","35894.4834","dc","null","null","null","null","null","null","[3,2]","491.31156677847514","158.3431366219196","472.5148189923653"
"","canvas-keyboard-response","157","132293","0.0-6.0-4.21","568","","","","","clear_screen","null","null","","","critical","t","c","d","164","240","240","164","158.0083","227.1683","spektor","0.09","h","164","240","240","164","158.0083","227.1683","39360","39360","35894.4834","dc","null","null","null","null","null","null","[3,2]","491.31156677847514","158.3431366219196","472.5148189923653"
"","canvas-keyboard-response","158","133375","0.0-6.0-5.21","568","","","","","make choice","1074","2","","","critical","t","c","d","164","240","240","164","158.0083","227.1683","spektor","0.09","h","164","240","240","164","158.0083","227.1683","39360","39360","35894.4834","dc","null","null","null","null","null","null","[3,2]","","",""
"","canvas-keyboard-response","159","133394","0.0-6.0-6.21","568","","","","","clear_screen","null","null","","","critical","t","c","d","164","240","240","164","158.0083","227.1683","spektor","0.09","h","164","240","240","164","158.0083","227.1683","39360","39360","35894.4834","dc","null","null","null","null","null","null","[3,2]","","",""
"","canvas-keyboard-response","160","133595","0.0-6.0-0.22","568","","","","","pre trial waiting period","null","null","","","critical","c","d","t","164","240","220.0396","154.6796","240","164","spektor","0.14","w","240","164","164","240","220.0396","154.6796","39360","39360","34035.6388","dc","null","null","null","null","null","null","[2,1]","457.0316293427708","202.6005300736648","508.13702286716074"
"","canvas-keyboard-response","161","133614","0.0-6.0-1.22","568","","","","","clear_screen","null","null","","","critical","c","d","t","164","240","220.0396","154.6796","240","164","spektor","0.14","w","240","164","164","240","220.0396","154.6796","39360","39360","34035.6388","dc","null","null","null","null","null","null","[2,1]","457.0316293427708","202.6005300736648","508.13702286716074"
"","canvas-keyboard-response","162","134126","0.0-6.0-2.22","568","","","","","rectangles no change","null","null","","","critical","c","d","t","164","240","220.0396","154.6796","240","164","spektor","0.14","w","240","164","164","240","220.0396","154.6796","39360","39360","34035.6388","dc","null","null","null","null","null","null","[2,1]","457.0316293427708","202.6005300736648","508.13702286716074"
"","canvas-keyboard-response","163","135462","0.0-6.0-3.22","568","","","","","rectangles with change","null","null","","","critical","c","d","t","164","240","220.0396","154.6796","240","164","spektor","0.14","w","240","164","164","240","220.0396","154.6796","39360","39360","34035.6388","dc","null","null","null","null","null","null","[2,1]","457.0316293427708","202.6005300736648","508.13702286716074"
"","canvas-keyboard-response","164","135481","0.0-6.0-4.22","568","","","","","clear_screen","null","null","","","critical","c","d","t","164","240","220.0396","154.6796","240","164","spektor","0.14","w","240","164","164","240","220.0396","154.6796","39360","39360","34035.6388","dc","null","null","null","null","null","null","[2,1]","457.0316293427708","202.6005300736648","508.13702286716074"
"","canvas-keyboard-response","165","135764","0.0-6.0-5.22","568","","","","","make choice","274","1","","","critical","c","d","t","164","240","220.0396","154.6796","240","164","spektor","0.14","w","240","164","164","240","220.0396","154.6796","39360","39360","34035.6388","dc","null","null","null","null","null","null","[2,1]","","",""
"","canvas-keyboard-response","166","135783","0.0-6.0-6.22","568","","","","","clear_screen","null","null","","","critical","c","d","t","164","240","220.0396","154.6796","240","164","spektor","0.14","w","240","164","164","240","220.0396","154.6796","39360","39360","34035.6388","dc","null","null","null","null","null","null","[2,1]","","",""
"","canvas-keyboard-response","167","135984","0.0-6.0-0.23","568","","","","","pre trial waiting period","null","null","","","catch","sw","sh","l","180","200","220","145","220","213","spektor","null","null","null","null","null","null","null","null","null","null","null","","180","200","260","200","36000","52000","[2,3]","485.7845680615659","208.6944365476652","480.8299606084198"
"","canvas-keyboard-response","168","136004","0.0-6.0-1.23","568","","","","","clear_screen","null","null","","","catch","sw","sh","l","180","200","220","145","220","213","spektor","null","null","null","null","null","null","null","null","null","null","null","","180","200","260","200","36000","52000","[2,3]","485.7845680615659","208.6944365476652","480.8299606084198"
"","canvas-keyboard-response","169","136518","0.0-6.0-2.23","568","","","","","rectangles no change","null","null","","","catch","sw","sh","l","180","200","220","145","220","213","spektor","null","null","null","null","null","null","null","null","null","null","null","","180","200","260","200","36000","52000","[2,3]","485.7845680615659","208.6944365476652","480.8299606084198"
"","canvas-keyboard-response","170","137855","0.0-6.0-3.23","568","","","","","rectangles with change","null","null","","","catch","sw","sh","l","180","200","220","145","220","213","spektor","null","null","null","null","null","null","null","null","null","null","null","","180","200","260","200","36000","52000","[2,3]","485.7845680615659","208.6944365476652","480.8299606084198"
"","canvas-keyboard-response","171","137872","0.0-6.0-4.23","568","","","","","clear_screen","null","null","","","catch","sw","sh","l","180","200","220","145","220","213","spektor","null","null","null","null","null","null","null","null","null","null","null","","180","200","260","200","36000","52000","[2,3]","485.7845680615659","208.6944365476652","480.8299606084198"
"","canvas-keyboard-response","172","138316","0.0-6.0-5.23","568","","","","","make choice","438","3","","","catch","sw","sh","l","180","200","220","145","220","213","spektor","null","null","null","null","null","null","null","null","null","null","null","","180","200","260","200","36000","52000","[2,3]","","",""
"","canvas-keyboard-response","173","138335","0.0-6.0-6.23","568","","","","","clear_screen","null","null","","","catch","sw","sh","l","180","200","220","145","220","213","spektor","null","null","null","null","null","null","null","null","null","null","null","","180","200","260","200","36000","52000","[2,3]","","",""
"","canvas-keyboard-response","174","138536","0.0-6.0-0.24","568","","","","","pre trial waiting period","null","null","","","catch","sw","sh","l","180","200","216","162","162","243","spektor","null","null","null","null","null","null","null","null","null","null","null","","180","200","260","200","36000","52000","[1,3]","476.2446142909591","176.14826336280225","465.32054249705914"
"","canvas-keyboard-response","175","138555","0.0-6.0-1.24","568","","","","","clear_screen","null","null","","","catch","sw","sh","l","180","200","216","162","162","243","spektor","null","null","null","null","null","null","null","null","null","null","null","","180","200","260","200","36000","52000","[1,3]","476.2446142909591","176.14826336280225","465.32054249705914"
"","canvas-keyboard-response","176","139069","0.0-6.0-2.24","568","","","","","rectangles no change","null","null","","","catch","sw","sh","l","180","200","216","162","162","243","spektor","null","null","null","null","null","null","null","null","null","null","null","","180","200","260","200","36000","52000","[1,3]","476.2446142909591","176.14826336280225","465.32054249705914"
"","canvas-keyboard-response","177","140404","0.0-6.0-3.24","568","","","","","rectangles with change","null","null","","","catch","sw","sh","l","180","200","216","162","162","243","spektor","null","null","null","null","null","null","null","null","null","null","null","","180","200","260","200","36000","52000","[1,3]","476.2446142909591","176.14826336280225","465.32054249705914"
"","canvas-keyboard-response","178","140422","0.0-6.0-4.24","568","","","","","clear_screen","null","null","","","catch","sw","sh","l","180","200","216","162","162","243","spektor","null","null","null","null","null","null","null","null","null","null","null","","180","200","260","200","36000","52000","[1,3]","476.2446142909591","176.14826336280225","465.32054249705914"
"","canvas-keyboard-response","179","140860","0.0-6.0-5.24","568","","","","","make choice","430","3","","","catch","sw","sh","l","180","200","216","162","162","243","spektor","null","null","null","null","null","null","null","null","null","null","null","","180","200","260","200","36000","52000","[1,3]","","",""
"","canvas-keyboard-response","180","140879","0.0-6.0-6.24","568","","","","","clear_screen","null","null","","","catch","sw","sh","l","180","200","216","162","162","243","spektor","null","null","null","null","null","null","null","null","null","null","null","","180","200","260","200","36000","52000","[1,3]","","",""
"","canvas-keyboard-response","181","141080","0.0-6.0-0.25","568","","","","","pre trial waiting period","null","null","","","catch","l","sw","sh","235","283","180","232","184","152","spektor","null","null","null","null","null","null","null","null","null","null","null","","180","200","260","200","36000","52000","[1,3]","467.83275835612255","103.91977941843167","504.8227596200521"
"","canvas-keyboard-response","182","141101","0.0-6.0-1.25","568","","","","","clear_screen","null","null","","","catch","l","sw","sh","235","283","180","232","184","152","spektor","null","null","null","null","null","null","null","null","null","null","null","","180","200","260","200","36000","52000","[1,3]","467.83275835612255","103.91977941843167","504.8227596200521"
"","canvas-keyboard-response","183","141620","0.0-6.0-2.25","568","","","","","rectangles no change","null","null","","","catch","l","sw","sh","235","283","180","232","184","152","spektor","null","null","null","null","null","null","null","null","null","null","null","","180","200","260","200","36000","52000","[1,3]","467.83275835612255","103.91977941843167","504.8227596200521"
"","canvas-keyboard-response","184","142955","0.0-6.0-3.25","568","","","","","rectangles with change","null","null","","","catch","l","sw","sh","235","283","180","232","184","152","spektor","null","null","null","null","null","null","null","null","null","null","null","","180","200","260","200","36000","52000","[1,3]","467.83275835612255","103.91977941843167","504.8227596200521"
"","canvas-keyboard-response","185","142974","0.0-6.0-4.25","568","","","","","clear_screen","null","null","","","catch","l","sw","sh","235","283","180","232","184","152","spektor","null","null","null","null","null","null","null","null","null","null","null","","180","200","260","200","36000","52000","[1,3]","467.83275835612255","103.91977941843167","504.8227596200521"
"","canvas-keyboard-response","186","145484","0.0-6.0-5.25","568","","","","","make choice","2500","1","","","catch","l","sw","sh","235","283","180","232","184","152","spektor","null","null","null","null","null","null","null","null","null","null","null","","180","200","260","200","36000","52000","[1,3]","","",""
"","canvas-keyboard-response","187","145502","0.0-6.0-6.25","568","","","","","clear_screen","null","null","","","catch","l","sw","sh","235","283","180","232","184","152","spektor","null","null","null","null","null","null","null","null","null","null","null","","180","200","260","200","36000","52000","[1,3]","","",""
"","canvas-keyboard-response","188","145704","0.0-6.0-0.26","568","","","","","pre trial waiting period","null","null","","","catch","l","sh","sw","248","196","161","181","164","233","spektor","null","null","null","null","null","null","null","null","null","null","null","","180","200","260","200","36000","52000","[1,3]","505.80767240700715","182.17917665399727","480.75630886621093"
"","canvas-keyboard-response","189","145724","0.0-6.0-1.26","568","","","","","clear_screen","null","null","","","catch","l","sh","sw","248","196","161","181","164","233","spektor","null","null","null","null","null","null","null","null","null","null","null","","180","200","260","200","36000","52000","[1,3]","505.80767240700715","182.17917665399727","480.75630886621093"
"","canvas-keyboard-response","190","146236","0.0-6.0-2.26","568","","","","","rectangles no change","null","null","","","catch","l","sh","sw","248","196","161","181","164","233","spektor","null","null","null","null","null","null","null","null","null","null","null","","180","200","260","200","36000","52000","[1,3]","505.80767240700715","182.17917665399727","480.75630886621093"
"","canvas-keyboard-response","191","147572","0.0-6.0-3.26","568","","","","","rectangles with change","null","null","","","catch","l","sh","sw","248","196","161","181","164","233","spektor","null","null","null","null","null","null","null","null","null","null","null","","180","200","260","200","36000","52000","[1,3]","505.80767240700715","182.17917665399727","480.75630886621093"
"","canvas-keyboard-response","192","147591","0.0-6.0-4.26","568","","","","","clear_screen","null","null","","","catch","l","sh","sw","248","196","161","181","164","233","spektor","null","null","null","null","null","null","null","null","null","null","null","","180","200","260","200","36000","52000","[1,3]","505.80767240700715","182.17917665399727","480.75630886621093"
"","canvas-keyboard-response","193","147940","0.0-6.0-5.26","568","","","","","make choice","343","1","","","catch","l","sh","sw","248","196","161","181","164","233","spektor","null","null","null","null","null","null","null","null","null","null","null","","180","200","260","200","36000","52000","[1,3]","","",""
"","canvas-keyboard-response","194","147958","0.0-6.0-6.26","568","","","","","clear_screen","null","null","","","catch","l","sh","sw","248","196","161","181","164","233","spektor","null","null","null","null","null","null","null","null","null","null","null","","180","200","260","200","36000","52000","[1,3]","","",""
"","canvas-keyboard-response","195","148161","0.0-6.0-0.27","568","","","","","pre trial waiting period","null","null","","","critical","d","c","t","232.8713","160.6713","164","240","240","164","trueblood","0.05","w","240","164","164","240","232.8713","160.6713","39360","39360","37415.7294","dc","null","null","null","null","null","null","[1,2]","482.23965647128404","433.47854632322134","493.9376017280805"
"","canvas-keyboard-response","196","148184","0.0-6.0-1.27","568","","","","","clear_screen","null","null","","","critical","d","c","t","232.8713","160.6713","164","240","240","164","trueblood","0.05","w","240","164","164","240","232.8713","160.6713","39360","39360","37415.7294","dc","null","null","null","null","null","null","[1,2]","482.23965647128404","433.47854632322134","493.9376017280805"
"","canvas-keyboard-response","197","148698","0.0-6.0-2.27","568","","","","","rectangles no change","null","null","","","critical","d","c","t","232.8713","160.6713","164","240","240","164","trueblood","0.05","w","240","164","164","240","232.8713","160.6713","39360","39360","37415.7294","dc","null","null","null","null","null","null","[1,2]","482.23965647128404","433.47854632322134","493.9376017280805"
"","canvas-keyboard-response","198","150035","0.0-6.0-3.27","568","","","","","rectangles with change","null","null","","","critical","d","c","t","232.8713","160.6713","164","240","240","164","trueblood","0.05","w","240","164","164","240","232.8713","160.6713","39360","39360","37415.7294","dc","null","null","null","null","null","null","[1,2]","482.23965647128404","433.47854632322134","493.9376017280805"
"","canvas-keyboard-response","199","150054","0.0-6.0-4.27","568","","","","","clear_screen","null","null","","","critical","d","c","t","232.8713","160.6713","164","240","240","164","trueblood","0.05","w","240","164","164","240","232.8713","160.6713","39360","39360","37415.7294","dc","null","null","null","null","null","null","[1,2]","482.23965647128404","433.47854632322134","493.9376017280805"
"","canvas-keyboard-response","200","150364","0.0-6.0-5.27","568","","","","","make choice","304","1","","","critical","d","c","t","232.8713","160.6713","164","240","240","164","trueblood","0.05","w","240","164","164","240","232.8713","160.6713","39360","39360","37415.7294","dc","null","null","null","null","null","null","[1,2]","","",""
"","canvas-keyboard-response","201","150384","0.0-6.0-6.27","568","","","","","clear_screen","null","null","","","critical","d","c","t","232.8713","160.6713","164","240","240","164","trueblood","0.05","w","240","164","164","240","232.8713","160.6713","39360","39360","37415.7294","dc","null","null","null","null","null","null","[1,2]","","",""
"","canvas-keyboard-response","202","150586","0.0-6.0-0.28","568","","","","","pre trial waiting period","null","null","","","critical","t","c","d","240","164","164","240","227.1683","158.0083","spektor","0.09","w","240","164","164","240","227.1683","158.0083","39360","39360","35894.4834","td","null","null","null","null","null","null","[1,3]","538.6422917664553","151.404546465095","501.37563923429906"
"","canvas-keyboard-response","203","150607","0.0-6.0-1.28","568","","","","","clear_screen","null","null","","","critical","t","c","d","240","164","164","240","227.1683","158.0083","spektor","0.09","w","240","164","164","240","227.1683","158.0083","39360","39360","35894.4834","td","null","null","null","null","null","null","[1,3]","538.6422917664553","151.404546465095","501.37563923429906"
"","canvas-keyboard-response","204","151118","0.0-6.0-2.28","568","","","","","rectangles no change","null","null","","","critical","t","c","d","240","164","164","240","227.1683","158.0083","spektor","0.09","w","240","164","164","240","227.1683","158.0083","39360","39360","35894.4834","td","null","null","null","null","null","null","[1,3]","538.6422917664553","151.404546465095","501.37563923429906"
"","canvas-keyboard-response","205","152455","0.0-6.0-3.28","568","","","","","rectangles with change","null","null","","","critical","t","c","d","240","164","164","240","227.1683","158.0083","spektor","0.09","w","240","164","164","240","227.1683","158.0083","39360","39360","35894.4834","td","null","null","null","null","null","null","[1,3]","538.6422917664553","151.404546465095","501.37563923429906"
"","canvas-keyboard-response","206","152474","0.0-6.0-4.28","568","","","","","clear_screen","null","null","","","critical","t","c","d","240","164","164","240","227.1683","158.0083","spektor","0.09","w","240","164","164","240","227.1683","158.0083","39360","39360","35894.4834","td","null","null","null","null","null","null","[1,3]","538.6422917664553","151.404546465095","501.37563923429906"
"","canvas-keyboard-response","207","152901","0.0-6.0-5.28","568","","","","","make choice","417","1","","","critical","t","c","d","240","164","164","240","227.1683","158.0083","spektor","0.09","w","240","164","164","240","227.1683","158.0083","39360","39360","35894.4834","td","null","null","null","null","null","null","[1,3]","","",""
"","canvas-keyboard-response","208","152919","0.0-6.0-6.28","568","","","","","clear_screen","null","null","","","critical","t","c","d","240","164","164","240","227.1683","158.0083","spektor","0.09","w","240","164","164","240","227.1683","158.0083","39360","39360","35894.4834","td","null","null","null","null","null","null","[1,3]","","",""
"","canvas-keyboard-response","209","153121","0.0-6.0-0.29","568","","","","","pre trial waiting period","null","null","","","critical","t","d","c","240","164","227.1683","158.0083","164","240","trueblood","0.09","w","240","164","164","240","227.1683","158.0083","39360","39360","35894.4834","tc","null","null","null","null","null","null","[1,3]","488.2533508982912","521.0142837945579","428.54796548032556"
"","canvas-keyboard-response","210","153141","0.0-6.0-1.29","568","","","","","clear_screen","null","null","","","critical","t","d","c","240","164","227.1683","158.0083","164","240","trueblood","0.09","w","240","164","164","240","227.1683","158.0083","39360","39360","35894.4834","tc","null","null","null","null","null","null","[1,3]","488.2533508982912","521.0142837945579","428.54796548032556"
"","canvas-keyboard-response","211","153651","0.0-6.0-2.29","568","","","","","rectangles no change","null","null","","","critical","t","d","c","240","164","227.1683","158.0083","164","240","trueblood","0.09","w","240","164","164","240","227.1683","158.0083","39360","39360","35894.4834","tc","null","null","null","null","null","null","[1,3]","488.2533508982912","521.0142837945579","428.54796548032556"
"","canvas-keyboard-response","212","154987","0.0-6.0-3.29","568","","","","","rectangles with change","null","null","","","critical","t","d","c","240","164","227.1683","158.0083","164","240","trueblood","0.09","w","240","164","164","240","227.1683","158.0083","39360","39360","35894.4834","tc","null","null","null","null","null","null","[1,3]","488.2533508982912","521.0142837945579","428.54796548032556"
"","canvas-keyboard-response","213","155006","0.0-6.0-4.29","568","","","","","clear_screen","null","null","","","critical","t","d","c","240","164","227.1683","158.0083","164","240","trueblood","0.09","w","240","164","164","240","227.1683","158.0083","39360","39360","35894.4834","tc","null","null","null","null","null","null","[1,3]","488.2533508982912","521.0142837945579","428.54796548032556"
"","canvas-keyboard-response","214","155740","0.0-6.0-5.29","568","","","","","make choice","729","1","","","critical","t","d","c","240","164","227.1683","158.0083","164","240","trueblood","0.09","w","240","164","164","240","227.1683","158.0083","39360","39360","35894.4834","tc","null","null","null","null","null","null","[1,3]","","",""
"","canvas-keyboard-response","215","155760","0.0-6.0-6.29","568","","","","","clear_screen","null","null","","","critical","t","d","c","240","164","227.1683","158.0083","164","240","trueblood","0.09","w","240","164","164","240","227.1683","158.0083","39360","39360","35894.4834","tc","null","null","null","null","null","null","[1,3]","","",""
"","canvas-keyboard-response","216","155961","0.0-6.0-0.30","568","","","","","pre trial waiting period","null","null","","","critical","c","t","d","240","164","164","240","154.6796","220.0396","trueblood","0.14","h","164","240","240","164","154.6796","220.0396","39360","39360","34035.6388","tc","null","null","null","null","null","null","[2,1]","515.0120792930401","435.14081966415154","439.6312078949812"
"","canvas-keyboard-response","217","155981","0.0-6.0-1.30","568","","","","","clear_screen","null","null","","","critical","c","t","d","240","164","164","240","154.6796","220.0396","trueblood","0.14","h","164","240","240","164","154.6796","220.0396","39360","39360","34035.6388","tc","null","null","null","null","null","null","[2,1]","515.0120792930401","435.14081966415154","439.6312078949812"
"","canvas-keyboard-response","218","156493","0.0-6.0-2.30","568","","","","","rectangles no change","null","null","","","critical","c","t","d","240","164","164","240","154.6796","220.0396","trueblood","0.14","h","164","240","240","164","154.6796","220.0396","39360","39360","34035.6388","tc","null","null","null","null","null","null","[2,1]","515.0120792930401","435.14081966415154","439.6312078949812"
"","canvas-keyboard-response","219","157829","0.0-6.0-3.30","568","","","","","rectangles with change","null","null","","","critical","c","t","d","240","164","164","240","154.6796","220.0396","trueblood","0.14","h","164","240","240","164","154.6796","220.0396","39360","39360","34035.6388","tc","null","null","null","null","null","null","[2,1]","515.0120792930401","435.14081966415154","439.6312078949812"
"","canvas-keyboard-response","220","157849","0.0-6.0-4.30","568","","","","","clear_screen","null","null","","","critical","c","t","d","240","164","164","240","154.6796","220.0396","trueblood","0.14","h","164","240","240","164","154.6796","220.0396","39360","39360","34035.6388","tc","null","null","null","null","null","null","[2,1]","515.0120792930401","435.14081966415154","439.6312078949812"
"","canvas-keyboard-response","221","158164","0.0-6.0-5.30","568","","","","","make choice","304","1","","","critical","c","t","d","240","164","164","240","154.6796","220.0396","trueblood","0.14","h","164","240","240","164","154.6796","220.0396","39360","39360","34035.6388","tc","null","null","null","null","null","null","[2,1]","","",""
"","canvas-keyboard-response","222","158185","0.0-6.0-6.30","568","","","","","clear_screen","null","null","","","critical","c","t","d","240","164","164","240","154.6796","220.0396","trueblood","0.14","h","164","240","240","164","154.6796","220.0396","39360","39360","34035.6388","tc","null","null","null","null","null","null","[2,1]","","",""
"","canvas-keyboard-response","223","158386","0.0-6.0-0.31","568","","","","","pre trial waiting period","null","null","","","critical","c","t","d","240","164","164","240","162.6685","237.1485","spektor","0.02","h","164","240","240","164","162.6685","237.1485","39360","39360","38576.5967","td","null","null","null","null","null","null","[2,3]","525.8813504806017","102.24880076896609","464.62773259495447"
"","canvas-keyboard-response","224","158406","0.0-6.0-1.31","568","","","","","clear_screen","null","null","","","critical","c","t","d","240","164","164","240","162.6685","237.1485","spektor","0.02","h","164","240","240","164","162.6685","237.1485","39360","39360","38576.5967","td","null","null","null","null","null","null","[2,3]","525.8813504806017","102.24880076896609","464.62773259495447"
"","canvas-keyboard-response","225","158915","0.0-6.0-2.31","568","","","","","rectangles no change","null","null","","","critical","c","t","d","240","164","164","240","162.6685","237.1485","spektor","0.02","h","164","240","240","164","162.6685","237.1485","39360","39360","38576.5967","td","null","null","null","null","null","null","[2,3]","525.8813504806017","102.24880076896609","464.62773259495447"
"","canvas-keyboard-response","226","160251","0.0-6.0-3.31","568","","","","","rectangles with change","null","null","","","critical","c","t","d","240","164","164","240","162.6685","237.1485","spektor","0.02","h","164","240","240","164","162.6685","237.1485","39360","39360","38576.5967","td","null","null","null","null","null","null","[2,3]","525.8813504806017","102.24880076896609","464.62773259495447"
"","canvas-keyboard-response","227","160271","0.0-6.0-4.31","568","","","","","clear_screen","null","null","","","critical","c","t","d","240","164","164","240","162.6685","237.1485","spektor","0.02","h","164","240","240","164","162.6685","237.1485","39360","39360","38576.5967","td","null","null","null","null","null","null","[2,3]","525.8813504806017","102.24880076896609","464.62773259495447"
"","canvas-keyboard-response","228","160948","0.0-6.0-5.31","568","","","","","make choice","672","2","","","critical","c","t","d","240","164","164","240","162.6685","237.1485","spektor","0.02","h","164","240","240","164","162.6685","237.1485","39360","39360","38576.5967","td","null","null","null","null","null","null","[2,3]","","",""
"","canvas-keyboard-response","229","160967","0.0-6.0-6.31","568","","","","","clear_screen","null","null","","","critical","c","t","d","240","164","164","240","162.6685","237.1485","spektor","0.02","h","164","240","240","164","162.6685","237.1485","39360","39360","38576.5967","td","null","null","null","null","null","null","[2,3]","","",""
"","canvas-keyboard-response","230","161170","0.0-6.0-0.32","568","","","","","pre trial waiting period","null","null","","","critical","t","d","c","240","164","220.0396","154.6796","164","240","spektor","0.14","w","240","164","164","240","220.0396","154.6796","39360","39360","34035.6388","tc","null","null","null","null","null","null","[1,3]","506.9614293582348","191.09122918522385","495.5354785895894"
"","canvas-keyboard-response","231","161191","0.0-6.0-1.32","568","","","","","clear_screen","null","null","","","critical","t","d","c","240","164","220.0396","154.6796","164","240","spektor","0.14","w","240","164","164","240","220.0396","154.6796","39360","39360","34035.6388","tc","null","null","null","null","null","null","[1,3]","506.9614293582348","191.09122918522385","495.5354785895894"
"","canvas-keyboard-response","232","161701","0.0-6.0-2.32","568","","","","","rectangles no change","null","null","","","critical","t","d","c","240","164","220.0396","154.6796","164","240","spektor","0.14","w","240","164","164","240","220.0396","154.6796","39360","39360","34035.6388","tc","null","null","null","null","null","null","[1,3]","506.9614293582348","191.09122918522385","495.5354785895894"
"","canvas-keyboard-response","233","163036","0.0-6.0-3.32","568","","","","","rectangles with change","null","null","","","critical","t","d","c","240","164","220.0396","154.6796","164","240","spektor","0.14","w","240","164","164","240","220.0396","154.6796","39360","39360","34035.6388","tc","null","null","null","null","null","null","[1,3]","506.9614293582348","191.09122918522385","495.5354785895894"
"","canvas-keyboard-response","234","163055","0.0-6.0-4.32","568","","","","","clear_screen","null","null","","","critical","t","d","c","240","164","220.0396","154.6796","164","240","spektor","0.14","w","240","164","164","240","220.0396","154.6796","39360","39360","34035.6388","tc","null","null","null","null","null","null","[1,3]","506.9614293582348","191.09122918522385","495.5354785895894"
"","canvas-keyboard-response","235","163420","0.0-6.0-5.32","568","","","","","make choice","360","1","","","critical","t","d","c","240","164","220.0396","154.6796","164","240","spektor","0.14","w","240","164","164","240","220.0396","154.6796","39360","39360","34035.6388","tc","null","null","null","null","null","null","[1,3]","","",""
"","canvas-keyboard-response","236","163439","0.0-6.0-6.32","568","","","","","clear_screen","null","null","","","critical","t","d","c","240","164","220.0396","154.6796","164","240","spektor","0.14","w","240","164","164","240","220.0396","154.6796","39360","39360","34035.6388","tc","null","null","null","null","null","null","[1,3]","","",""
"","canvas-keyboard-response","237","163639","0.0-6.0-0.33","568","","","","","pre trial waiting period","null","null","","","catch","sh","sw","l","188","165","187","187","273","191","trueblood","null","null","null","null","null","null","null","null","null","null","null","","180","200","260","200","36000","52000","[1,3]","468.7586575538087","470.401064622309","476.04291104125"
"","canvas-keyboard-response","238","163658","0.0-6.0-1.33","568","","","","","clear_screen","null","null","","","catch","sh","sw","l","188","165","187","187","273","191","trueblood","null","null","null","null","null","null","null","null","null","null","null","","180","200","260","200","36000","52000","[1,3]","468.7586575538087","470.401064622309","476.04291104125"
"","canvas-keyboard-response","239","164171","0.0-6.0-2.33","568","","","","","rectangles no change","null","null","","","catch","sh","sw","l","188","165","187","187","273","191","trueblood","null","null","null","null","null","null","null","null","null","null","null","","180","200","260","200","36000","52000","[1,3]","468.7586575538087","470.401064622309","476.04291104125"
"","canvas-keyboard-response","240","165505","0.0-6.0-3.33","568","","","","","rectangles with change","null","null","","","catch","sh","sw","l","188","165","187","187","273","191","trueblood","null","null","null","null","null","null","null","null","null","null","null","","180","200","260","200","36000","52000","[1,3]","468.7586575538087","470.401064622309","476.04291104125"
"","canvas-keyboard-response","241","165517","0.0-6.0-4.33","568","","","","","clear_screen","3","3","","","catch","sh","sw","l","188","165","187","187","273","191","trueblood","null","null","null","null","null","null","null","null","null","null","null","","180","200","260","200","36000","52000","[1,3]","468.7586575538087","470.401064622309","476.04291104125"
"","canvas-keyboard-response","242","165932","0.0-6.0-5.33","568","","","","","make choice","406","3","","","catch","sh","sw","l","188","165","187","187","273","191","trueblood","null","null","null","null","null","null","null","null","null","null","null","","180","200","260","200","36000","52000","[1,3]","","",""
"","canvas-keyboard-response","243","165951","0.0-6.0-6.33","568","","","","","clear_screen","null","null","","","catch","sh","sw","l","188","165","187","187","273","191","trueblood","null","null","null","null","null","null","null","null","null","null","null","","180","200","260","200","36000","52000","[1,3]","","",""
"","canvas-keyboard-response","244","166152","0.0-6.0-0.34","568","","","","","pre trial waiting period","null","null","","","critical","c","d","t","164","240","237.1485","162.6685","240","164","spektor","0.02","w","240","164","164","240","237.1485","162.6685","39360","39360","38576.5967","dc","null","null","null","null","null","null","[2,1]","463.44971691307614","175.185664201515","537.6124773168888"
"","canvas-keyboard-response","245","166172","0.0-6.0-1.34","568","","","","","clear_screen","null","null","","","critical","c","d","t","164","240","237.1485","162.6685","240","164","spektor","0.02","w","240","164","164","240","237.1485","162.6685","39360","39360","38576.5967","dc","null","null","null","null","null","null","[2,1]","463.44971691307614","175.185664201515","537.6124773168888"
"","canvas-keyboard-response","246","166687","0.0-6.0-2.34","568","","","","","rectangles no change","null","null","","","critical","c","d","t","164","240","237.1485","162.6685","240","164","spektor","0.02","w","240","164","164","240","237.1485","162.6685","39360","39360","38576.5967","dc","null","null","null","null","null","null","[2,1]","463.44971691307614","175.185664201515","537.6124773168888"
"","canvas-keyboard-response","247","168022","0.0-6.0-3.34","568","","","","","rectangles with change","null","null","","","critical","c","d","t","164","240","237.1485","162.6685","240","164","spektor","0.02","w","240","164","164","240","237.1485","162.6685","39360","39360","38576.5967","dc","null","null","null","null","null","null","[2,1]","463.44971691307614","175.185664201515","537.6124773168888"
"","canvas-keyboard-response","248","168040","0.0-6.0-4.34","568","","","","","clear_screen","null","null","","","critical","c","d","t","164","240","237.1485","162.6685","240","164","spektor","0.02","w","240","164","164","240","237.1485","162.6685","39360","39360","38576.5967","dc","null","null","null","null","null","null","[2,1]","463.44971691307614","175.185664201515","537.6124773168888"
"","canvas-keyboard-response","249","168900","0.0-6.0-5.34","568","","","","","make choice","853","2","","","critical","c","d","t","164","240","237.1485","162.6685","240","164","spektor","0.02","w","240","164","164","240","237.1485","162.6685","39360","39360","38576.5967","dc","null","null","null","null","null","null","[2,1]","","",""
"","canvas-keyboard-response","250","168918","0.0-6.0-6.34","568","","","","","clear_screen","null","null","","","critical","c","d","t","164","240","237.1485","162.6685","240","164","spektor","0.02","w","240","164","164","240","237.1485","162.6685","39360","39360","38576.5967","dc","null","null","null","null","null","null","[2,1]","","",""
"","canvas-keyboard-response","251","169120","0.0-6.0-0.35","568","","","","","pre trial waiting period","null","null","","","critical","d","c","t","240","164","164","240","240","164","trueblood","0","w","240","164","164","240","240","164","39360","39360","39360","td","null","null","null","null","null","null","[3,1]","485.9706005717007","434.15965912477384","484.87630495332064"
"","canvas-keyboard-response","252","169138","0.0-6.0-1.35","568","","","","","clear_screen","null","null","","","critical","d","c","t","240","164","164","240","240","164","trueblood","0","w","240","164","164","240","240","164","39360","39360","39360","td","null","null","null","null","null","null","[3,1]","485.9706005717007","434.15965912477384","484.87630495332064"
"","canvas-keyboard-response","253","169649","0.0-6.0-2.35","568","","","","","rectangles no change","null","null","","","critical","d","c","t","240","164","164","240","240","164","trueblood","0","w","240","164","164","240","240","164","39360","39360","39360","td","null","null","null","null","null","null","[3,1]","485.9706005717007","434.15965912477384","484.87630495332064"
"","canvas-keyboard-response","254","170984","0.0-6.0-3.35","568","","","","","rectangles with change","null","null","","","critical","d","c","t","240","164","164","240","240","164","trueblood","0","w","240","164","164","240","240","164","39360","39360","39360","td","null","null","null","null","null","null","[3,1]","485.9706005717007","434.15965912477384","484.87630495332064"
"","canvas-keyboard-response","255","171003","0.0-6.0-4.35","568","","","","","clear_screen","null","null","","","critical","d","c","t","240","164","164","240","240","164","trueblood","0","w","240","164","164","240","240","164","39360","39360","39360","td","null","null","null","null","null","null","[3,1]","485.9706005717007","434.15965912477384","484.87630495332064"
"","canvas-keyboard-response","256","171412","0.0-6.0-5.35","568","","","","","make choice","401","3","","","critical","d","c","t","240","164","164","240","240","164","trueblood","0","w","240","164","164","240","240","164","39360","39360","39360","td","null","null","null","null","null","null","[3,1]","","",""
"","canvas-keyboard-response","257","171430","0.0-6.0-6.35","568","","","","","clear_screen","null","null","","","critical","d","c","t","240","164","164","240","240","164","trueblood","0","w","240","164","164","240","240","164","39360","39360","39360","td","null","null","null","null","null","null","[3,1]","","",""
"","canvas-keyboard-response","258","171632","0.0-6.0-0.36","568","","","","","pre trial waiting period","null","null","","","critical","d","c","t","240","164","164","240","240","164","trueblood","0","w","240","164","164","240","240","164","39360","39360","39360","dc","null","null","null","null","null","null","[1,2]","517.3590910749077","426.044900620644","490.04341035453945"
"","canvas-keyboard-response","259","171651","0.0-6.0-1.36","568","","","","","clear_screen","null","null","","","critical","d","c","t","240","164","164","240","240","164","trueblood","0","w","240","164","164","240","240","164","39360","39360","39360","dc","null","null","null","null","null","null","[1,2]","517.3590910749077","426.044900620644","490.04341035453945"
"","canvas-keyboard-response","260","172161","0.0-6.0-2.36","568","","","","","rectangles no change","null","null","","","critical","d","c","t","240","164","164","240","240","164","trueblood","0","w","240","164","164","240","240","164","39360","39360","39360","dc","null","null","null","null","null","null","[1,2]","517.3590910749077","426.044900620644","490.04341035453945"
"","canvas-keyboard-response","261","173496","0.0-6.0-3.36","568","","","","","rectangles with change","null","null","","","critical","d","c","t","240","164","164","240","240","164","trueblood","0","w","240","164","164","240","240","164","39360","39360","39360","dc","null","null","null","null","null","null","[1,2]","517.3590910749077","426.044900620644","490.04341035453945"
"","canvas-keyboard-response","262","173517","0.0-6.0-4.36","568","","","","","clear_screen","null","null","","","critical","d","c","t","240","164","164","240","240","164","trueblood","0","w","240","164","164","240","240","164","39360","39360","39360","dc","null","null","null","null","null","null","[1,2]","517.3590910749077","426.044900620644","490.04341035453945"
"","canvas-keyboard-response","263","173893","0.0-6.0-5.36","568","","","","","make choice","368","1","","","critical","d","c","t","240","164","164","240","240","164","trueblood","0","w","240","164","164","240","240","164","39360","39360","39360","dc","null","null","null","null","null","null","[1,2]","","",""
"","canvas-keyboard-response","264","173912","0.0-6.0-6.36","568","","","","","clear_screen","null","null","","","critical","d","c","t","240","164","164","240","240","164","trueblood","0","w","240","164","164","240","240","164","39360","39360","39360","dc","null","null","null","null","null","null","[1,2]","","",""
"","canvas-keyboard-response","265","174112","0.0-6.0-0.37","568","","","","","pre trial waiting period","null","null","","","critical","c","t","d","240","164","164","240","160.6713","232.8713","trueblood","0.05","h","164","240","240","164","160.6713","232.8713","39360","39360","37415.7294","td","null","null","null","null","null","null","[2,3]","507.594823951266","466.0401522531985","466.9485703346267"
"","canvas-keyboard-response","266","174131","0.0-6.0-1.37","568","","","","","clear_screen","null","null","","","critical","c","t","d","240","164","164","240","160.6713","232.8713","trueblood","0.05","h","164","240","240","164","160.6713","232.8713","39360","39360","37415.7294","td","null","null","null","null","null","null","[2,3]","507.594823951266","466.0401522531985","466.9485703346267"
"","canvas-keyboard-response","267","174644","0.0-6.0-2.37","568","","","","","rectangles no change","null","null","","","critical","c","t","d","240","164","164","240","160.6713","232.8713","trueblood","0.05","h","164","240","240","164","160.6713","232.8713","39360","39360","37415.7294","td","null","null","null","null","null","null","[2,3]","507.594823951266","466.0401522531985","466.9485703346267"
