"success","trial_type","trial_index","time_elapsed","internal_node_id","sub_n","timeout","failed_images","failed_audio","failed_video","screen_id","rt","response","stimulus","view_history","trial","r1","r2","r3","w1","h1","w2","h2","w3","h3","display","tdd","tdo","tw","th","cw","ch","dw","dh","ta","ca","da","probe","csls","csss","clls","clss","sa","la","probe_rects","r1yloc","r2yloc","r3yloc"
"true","fullscreen","0","1775","0.0-0.0","574","","","","","","","","","","","","","","","","","","","","","","","","","","","","","","","","","","","","","","","","","",""
"true","preload","1","1800","0.0-1.0","574","false","[]","[]","[]","img preload","","","","","","","","","","","","","","","","","","","","","","","","","","","","","","","","","","","","",""
"","survey-html-form","2","3260","0.0-2.0","574","","","","","enter-sub-number","1441","{""response"":""574""}","","","","","","","","","","","","","","","","","","","","","","","","","","","","","","","","","","",""
"","image-button-response","3","41945","0.0-3.0","574","","","","","","38454","0","consent.png","","","","","","","","","","","","","","","","","","","","","","","","","","","","","","","","","",""
"","html-button-response","4","44231","0.0-4.0","574","","","","","intro mssg","2283","0","<div style= ""font-size:25px;"" <p> <strong> Welcome! </strong><br> <p style=""color:#8B0000; font-size:25px;""><strong> Please do NOT exit full screen until you are done with the experiment. </strong> </p><p style=""font-size:25px;color:#8B0000;""> <strong> Your data will be lost <br> if you try to go back or refresh the page after the experiment starts. Feel free to click ""previous"" during the instructions, however.</strong> </p><br><p> <strong> Thanks in advance for your contribution to our research! </strong></p>","","","","","","","","","","","","","","","","","","","","","","","","","","","","","","","","","",""
"","instructions","5","75800","0.0-5.0","574","","","","","instructions","31563","","","[{""page_index"":0,""viewing_time"":7299},{""page_index"":1,""viewing_time"":7688},{""page_index"":2,""viewing_time"":3456},{""page_index"":3,""viewing_time"":4952},{""page_index"":4,""viewing_time"":2560},{""page_index"":5,""viewing_time"":2448},{""page_index"":6,""viewing_time"":1944},{""page_index"":7,""viewing_time"":1216}]","","","","","","","","","","","","","","","","","","","","","","","","","","","","","","","","",""
"","canvas-keyboard-response","6","76004","0.0-6.0-0.0","574","","","","","pre trial waiting period","null","null","","","catch","sw","l","sh","180","200","173","232","169","170","trueblood","null","null","null","null","null","null","null","null","null","null","null","","180","200","260","200","36000","52000","[2,3]","481.0774693333383","470.5333977652233","466.80716963680607"
"","canvas-keyboard-response","7","76030","0.0-6.0-1.0","574","","","","","clear_screen","null","null","","","catch","sw","l","sh","180","200","173","232","169","170","trueblood","null","null","null","null","null","null","null","null","null","null","null","","180","200","260","200","36000","52000","[2,3]","481.0774693333383","470.5333977652233","466.80716963680607"
"","canvas-keyboard-response","8","76547","0.0-6.0-2.0","574","","","","","rectangles no change","null","null","","","catch","sw","l","sh","180","200","173","232","169","170","trueblood","null","null","null","null","null","null","null","null","null","null","null","","180","200","260","200","36000","52000","[2,3]","481.0774693333383","470.5333977652233","466.80716963680607"
"","canvas-keyboard-response","9","77885","0.0-6.0-3.0","574","","","","","rectangles with change","null","null","","","catch","sw","l","sh","180","200","173","232","169","170","trueblood","null","null","null","null","null","null","null","null","null","null","null","","180","200","260","200","36000","52000","[2,3]","481.0774693333383","470.5333977652233","466.80716963680607"
"","canvas-keyboard-response","10","77904","0.0-6.0-4.0","574","","","","","clear_screen","null","null","","","catch","sw","l","sh","180","200","173","232","169","170","trueblood","null","null","null","null","null","null","null","null","null","null","null","","180","200","260","200","36000","52000","[2,3]","481.0774693333383","470.5333977652233","466.80716963680607"
"","canvas-keyboard-response","11","80595","0.0-6.0-5.0","574","","","","","make choice","2682","3","","","catch","sw","l","sh","180","200","173","232","169","170","trueblood","null","null","null","null","null","null","null","null","null","null","null","","180","200","260","200","36000","52000","[2,3]","","",""
"","canvas-keyboard-response","12","80614","0.0-6.0-6.0","574","","","","","clear_screen","null","null","","","catch","sw","l","sh","180","200","173","232","169","170","trueblood","null","null","null","null","null","null","null","null","null","null","null","","180","200","260","200","36000","52000","[2,3]","","",""
"","canvas-keyboard-response","13","80815","0.0-6.0-0.1","574","","","","","pre trial waiting period","null","null","","","critical","t","c","d","240","164","164","240","220.0396","154.6796","trueblood","0.14","w","240","164","164","240","220.0396","154.6796","39360","39360","34035.6388","dc","null","null","null","null","null","null","[3,2]","492.07627522939526","440.682916208494","511.0525002280692"
"","canvas-keyboard-response","14","80834","0.0-6.0-1.1","574","","","","","clear_screen","null","null","","","critical","t","c","d","240","164","164","240","220.0396","154.6796","trueblood","0.14","w","240","164","164","240","220.0396","154.6796","39360","39360","34035.6388","dc","null","null","null","null","null","null","[3,2]","492.07627522939526","440.682916208494","511.0525002280692"
"","canvas-keyboard-response","15","81346","0.0-6.0-2.1","574","","","","","rectangles no change","null","null","","","critical","t","c","d","240","164","164","240","220.0396","154.6796","trueblood","0.14","w","240","164","164","240","220.0396","154.6796","39360","39360","34035.6388","dc","null","null","null","null","null","null","[3,2]","492.07627522939526","440.682916208494","511.0525002280692"
"","canvas-keyboard-response","16","82681","0.0-6.0-3.1","574","","","","","rectangles with change","null","null","","","critical","t","c","d","240","164","164","240","220.0396","154.6796","trueblood","0.14","w","240","164","164","240","220.0396","154.6796","39360","39360","34035.6388","dc","null","null","null","null","null","null","[3,2]","492.07627522939526","440.682916208494","511.0525002280692"
"","canvas-keyboard-response","17","82705","0.0-6.0-4.1","574","","","","","clear_screen","null","null","","","critical","t","c","d","240","164","164","240","220.0396","154.6796","trueblood","0.14","w","240","164","164","240","220.0396","154.6796","39360","39360","34035.6388","dc","null","null","null","null","null","null","[3,2]","492.07627522939526","440.682916208494","511.0525002280692"
"","canvas-keyboard-response","18","83867","0.0-6.0-5.1","574","","","","","make choice","1151","2","","","critical","t","c","d","240","164","164","240","220.0396","154.6796","trueblood","0.14","w","240","164","164","240","220.0396","154.6796","39360","39360","34035.6388","dc","null","null","null","null","null","null","[3,2]","","",""
"","canvas-keyboard-response","19","83884","0.0-6.0-6.1","574","","","","","clear_screen","null","null","","","critical","t","c","d","240","164","164","240","220.0396","154.6796","trueblood","0.14","w","240","164","164","240","220.0396","154.6796","39360","39360","34035.6388","dc","null","null","null","null","null","null","[3,2]","","",""
"","canvas-keyboard-response","20","84085","0.0-6.0-0.2","574","","","","","pre trial waiting period","null","null","","","critical","t","c","d","164","240","240","164","154.6796","220.0396","spektor","0.14","h","164","240","240","164","154.6796","220.0396","39360","39360","34035.6388","dc","null","null","null","null","null","null","[3,2]","476.055564961679","170.972654510154","473.3082511199788"
"","canvas-keyboard-response","21","84105","0.0-6.0-1.2","574","","","","","clear_screen","null","null","","","critical","t","c","d","164","240","240","164","154.6796","220.0396","spektor","0.14","h","164","240","240","164","154.6796","220.0396","39360","39360","34035.6388","dc","null","null","null","null","null","null","[3,2]","476.055564961679","170.972654510154","473.3082511199788"
"","canvas-keyboard-response","22","84621","0.0-6.0-2.2","574","","","","","rectangles no change","null","null","","","critical","t","c","d","164","240","240","164","154.6796","220.0396","spektor","0.14","h","164","240","240","164","154.6796","220.0396","39360","39360","34035.6388","dc","null","null","null","null","null","null","[3,2]","476.055564961679","170.972654510154","473.3082511199788"
"","canvas-keyboard-response","23","85957","0.0-6.0-3.2","574","","","","","rectangles with change","null","null","","","critical","t","c","d","164","240","240","164","154.6796","220.0396","spektor","0.14","h","164","240","240","164","154.6796","220.0396","39360","39360","34035.6388","dc","null","null","null","null","null","null","[3,2]","476.055564961679","170.972654510154","473.3082511199788"
"","canvas-keyboard-response","24","85975","0.0-6.0-4.2","574","","","","","clear_screen","null","null","","","critical","t","c","d","164","240","240","164","154.6796","220.0396","spektor","0.14","h","164","240","240","164","154.6796","220.0396","39360","39360","34035.6388","dc","null","null","null","null","null","null","[3,2]","476.055564961679","170.972654510154","473.3082511199788"
"","canvas-keyboard-response","25","86322","0.0-6.0-5.2","574","","","","","make choice","340","2","","","critical","t","c","d","164","240","240","164","154.6796","220.0396","spektor","0.14","h","164","240","240","164","154.6796","220.0396","39360","39360","34035.6388","dc","null","null","null","null","null","null","[3,2]","","",""
"","canvas-keyboard-response","26","86341","0.0-6.0-6.2","574","","","","","clear_screen","null","null","","","critical","t","c","d","164","240","240","164","154.6796","220.0396","spektor","0.14","h","164","240","240","164","154.6796","220.0396","39360","39360","34035.6388","dc","null","null","null","null","null","null","[3,2]","","",""
"","canvas-keyboard-response","27","86542","0.0-6.0-0.3","574","","","","","pre trial waiting period","null","null","","","catch","sw","sh","l","180","200","164","147","232","294","trueblood","null","null","null","null","null","null","null","null","null","null","null","","180","200","260","200","36000","52000","[2,3]","475.67230949247624","507.90288754352576","399.741140096443"
"","canvas-keyboard-response","28","86561","0.0-6.0-1.3","574","","","","","clear_screen","null","null","","","catch","sw","sh","l","180","200","164","147","232","294","trueblood","null","null","null","null","null","null","null","null","null","null","null","","180","200","260","200","36000","52000","[2,3]","475.67230949247624","507.90288754352576","399.741140096443"
"","canvas-keyboard-response","29","87072","0.0-6.0-2.3","574","","","","","rectangles no change","null","null","","","catch","sw","sh","l","180","200","164","147","232","294","trueblood","null","null","null","null","null","null","null","null","null","null","null","","180","200","260","200","36000","52000","[2,3]","475.67230949247624","507.90288754352576","399.741140096443"
"","canvas-keyboard-response","30","88406","0.0-6.0-3.3","574","","","","","rectangles with change","null","null","","","catch","sw","sh","l","180","200","164","147","232","294","trueblood","null","null","null","null","null","null","null","null","null","null","null","","180","200","260","200","36000","52000","[2,3]","475.67230949247624","507.90288754352576","399.741140096443"
"","canvas-keyboard-response","31","88425","0.0-6.0-4.3","574","","","","","clear_screen","null","null","","","catch","sw","sh","l","180","200","164","147","232","294","trueblood","null","null","null","null","null","null","null","null","null","null","null","","180","200","260","200","36000","52000","[2,3]","475.67230949247624","507.90288754352576","399.741140096443"
"","canvas-keyboard-response","32","90242","0.0-6.0-5.3","574","","","","","make choice","1808","3","","","catch","sw","sh","l","180","200","164","147","232","294","trueblood","null","null","null","null","null","null","null","null","null","null","null","","180","200","260","200","36000","52000","[2,3]","","",""
"","canvas-keyboard-response","33","90261","0.0-6.0-6.3","574","","","","","clear_screen","null","null","","","catch","sw","sh","l","180","200","164","147","232","294","trueblood","null","null","null","null","null","null","null","null","null","null","null","","180","200","260","200","36000","52000","[2,3]","","",""
"","canvas-keyboard-response","34","90461","0.0-6.0-0.4","574","","","","","pre trial waiting period","null","null","","","critical","d","c","t","240","164","164","240","240","164","trueblood","0","w","240","164","164","240","240","164","39360","39360","39360","td","null","null","null","null","null","null","[3,1]","486.7867913526097","436.60904898744593","477.71358948910716"
"","canvas-keyboard-response","35","90480","0.0-6.0-1.4","574","","","","","clear_screen","null","null","","","critical","d","c","t","240","164","164","240","240","164","trueblood","0","w","240","164","164","240","240","164","39360","39360","39360","td","null","null","null","null","null","null","[3,1]","486.7867913526097","436.60904898744593","477.71358948910716"
"","canvas-keyboard-response","36","90990","0.0-6.0-2.4","574","","","","","rectangles no change","null","null","","","critical","d","c","t","240","164","164","240","240","164","trueblood","0","w","240","164","164","240","240","164","39360","39360","39360","td","null","null","null","null","null","null","[3,1]","486.7867913526097","436.60904898744593","477.71358948910716"
"","canvas-keyboard-response","37","92324","0.0-6.0-3.4","574","","","","","rectangles with change","null","null","","","critical","d","c","t","240","164","164","240","240","164","trueblood","0","w","240","164","164","240","240","164","39360","39360","39360","td","null","null","null","null","null","null","[3,1]","486.7867913526097","436.60904898744593","477.71358948910716"
"","canvas-keyboard-response","38","92343","0.0-6.0-4.4","574","","","","","clear_screen","null","null","","","critical","d","c","t","240","164","164","240","240","164","trueblood","0","w","240","164","164","240","240","164","39360","39360","39360","td","null","null","null","null","null","null","[3,1]","486.7867913526097","436.60904898744593","477.71358948910716"
"","canvas-keyboard-response","39","93314","0.0-6.0-5.4","574","","","","","make choice","963","3","","","critical","d","c","t","240","164","164","240","240","164","trueblood","0","w","240","164","164","240","240","164","39360","39360","39360","td","null","null","null","null","null","null","[3,1]","","",""
"","canvas-keyboard-response","40","93336","0.0-6.0-6.4","574","","","","","clear_screen","null","null","","","critical","d","c","t","240","164","164","240","240","164","trueblood","0","w","240","164","164","240","240","164","39360","39360","39360","td","null","null","null","null","null","null","[3,1]","","",""
"","canvas-keyboard-response","41","93537","0.0-6.0-0.5","574","","","","","pre trial waiting period","null","null","","","critical","t","d","c","164","240","154.6796","220.0396","240","164","trueblood","0.14","h","164","240","240","164","154.6796","220.0396","39360","39360","34035.6388","tc","null","null","null","null","null","null","[1,3]","464.7621930730892","435.2644822053468","506.8646161159235"
"","canvas-keyboard-response","42","93556","0.0-6.0-1.5","574","","","","","clear_screen","null","null","","","critical","t","d","c","164","240","154.6796","220.0396","240","164","trueblood","0.14","h","164","240","240","164","154.6796","220.0396","39360","39360","34035.6388","tc","null","null","null","null","null","null","[1,3]","464.7621930730892","435.2644822053468","506.8646161159235"
"","canvas-keyboard-response","43","94066","0.0-6.0-2.5","574","","","","","rectangles no change","null","null","","","critical","t","d","c","164","240","154.6796","220.0396","240","164","trueblood","0.14","h","164","240","240","164","154.6796","220.0396","39360","39360","34035.6388","tc","null","null","null","null","null","null","[1,3]","464.7621930730892","435.2644822053468","506.8646161159235"
"","canvas-keyboard-response","44","95400","0.0-6.0-3.5","574","","","","","rectangles with change","null","null","","","critical","t","d","c","164","240","154.6796","220.0396","240","164","trueblood","0.14","h","164","240","240","164","154.6796","220.0396","39360","39360","34035.6388","tc","null","null","null","null","null","null","[1,3]","464.7621930730892","435.2644822053468","506.8646161159235"
"","canvas-keyboard-response","45","95418","0.0-6.0-4.5","574","","","","","clear_screen","null","null","","","critical","t","d","c","164","240","154.6796","220.0396","240","164","trueblood","0.14","h","164","240","240","164","154.6796","220.0396","39360","39360","34035.6388","tc","null","null","null","null","null","null","[1,3]","464.7621930730892","435.2644822053468","506.8646161159235"
"","canvas-keyboard-response","46","96499","0.0-6.0-5.5","574","","","","","make choice","1074","3","","","critical","t","d","c","164","240","154.6796","220.0396","240","164","trueblood","0.14","h","164","240","240","164","154.6796","220.0396","39360","39360","34035.6388","tc","null","null","null","null","null","null","[1,3]","","",""
"","canvas-keyboard-response","47","96516","0.0-6.0-6.5","574","","","","","clear_screen","null","null","","","critical","t","d","c","164","240","154.6796","220.0396","240","164","trueblood","0.14","h","164","240","240","164","154.6796","220.0396","39360","39360","34035.6388","tc","null","null","null","null","null","null","[1,3]","","",""
"","canvas-keyboard-response","48","96717","0.0-6.0-0.6","574","","","","","pre trial waiting period","null","null","","","critical","d","t","c","240","164","240","164","164","240","spektor","0","w","240","164","164","240","240","164","39360","39360","39360","td","null","null","null","null","null","null","[2,1]","539.1216240979071","174.40616794859363","483.80363753212623"
"","canvas-keyboard-response","49","96735","0.0-6.0-1.6","574","","","","","clear_screen","null","null","","","critical","d","t","c","240","164","240","164","164","240","spektor","0","w","240","164","164","240","240","164","39360","39360","39360","td","null","null","null","null","null","null","[2,1]","539.1216240979071","174.40616794859363","483.80363753212623"
"","canvas-keyboard-response","50","97248","0.0-6.0-2.6","574","","","","","rectangles no change","null","null","","","critical","d","t","c","240","164","240","164","164","240","spektor","0","w","240","164","164","240","240","164","39360","39360","39360","td","null","null","null","null","null","null","[2,1]","539.1216240979071","174.40616794859363","483.80363753212623"
"","canvas-keyboard-response","51","98583","0.0-6.0-3.6","574","","","","","rectangles with change","null","null","","","critical","d","t","c","240","164","240","164","164","240","spektor","0","w","240","164","164","240","240","164","39360","39360","39360","td","null","null","null","null","null","null","[2,1]","539.1216240979071","174.40616794859363","483.80363753212623"
"","canvas-keyboard-response","52","98601","0.0-6.0-4.6","574","","","","","clear_screen","null","null","","","critical","d","t","c","240","164","240","164","164","240","spektor","0","w","240","164","164","240","240","164","39360","39360","39360","td","null","null","null","null","null","null","[2,1]","539.1216240979071","174.40616794859363","483.80363753212623"
"","canvas-keyboard-response","53","99674","0.0-6.0-5.6","574","","","","","make choice","1067","1","","","critical","d","t","c","240","164","240","164","164","240","spektor","0","w","240","164","164","240","240","164","39360","39360","39360","td","null","null","null","null","null","null","[2,1]","","",""
"","canvas-keyboard-response","54","99691","0.0-6.0-6.6","574","","","","","clear_screen","null","null","","","critical","d","t","c","240","164","240","164","164","240","spektor","0","w","240","164","164","240","240","164","39360","39360","39360","td","null","null","null","null","null","null","[2,1]","","",""
"","canvas-keyboard-response","55","99893","0.0-6.0-0.7","574","","","","","pre trial waiting period","null","null","","","critical","d","c","t","158.0083","227.1683","240","164","164","240","trueblood","0.09","h","164","240","240","164","158.0083","227.1683","39360","39360","35894.4834","dc","null","null","null","null","null","null","[1,2]","462.03971649731824","499.29293654514123","438.57001014639616"
"","canvas-keyboard-response","56","99911","0.0-6.0-1.7","574","","","","","clear_screen","null","null","","","critical","d","c","t","158.0083","227.1683","240","164","164","240","trueblood","0.09","h","164","240","240","164","158.0083","227.1683","39360","39360","35894.4834","dc","null","null","null","null","null","null","[1,2]","462.03971649731824","499.29293654514123","438.57001014639616"
"","canvas-keyboard-response","57","100422","0.0-6.0-2.7","574","","","","","rectangles no change","null","null","","","critical","d","c","t","158.0083","227.1683","240","164","164","240","trueblood","0.09","h","164","240","240","164","158.0083","227.1683","39360","39360","35894.4834","dc","null","null","null","null","null","null","[1,2]","462.03971649731824","499.29293654514123","438.57001014639616"
"","canvas-keyboard-response","58","101756","0.0-6.0-3.7","574","","","","","rectangles with change","null","null","","","critical","d","c","t","158.0083","227.1683","240","164","164","240","trueblood","0.09","h","164","240","240","164","158.0083","227.1683","39360","39360","35894.4834","dc","null","null","null","null","null","null","[1,2]","462.03971649731824","499.29293654514123","438.57001014639616"
"","canvas-keyboard-response","59","101774","0.0-6.0-4.7","574","","","","","clear_screen","null","null","","","critical","d","c","t","158.0083","227.1683","240","164","164","240","trueblood","0.09","h","164","240","240","164","158.0083","227.1683","39360","39360","35894.4834","dc","null","null","null","null","null","null","[1,2]","462.03971649731824","499.29293654514123","438.57001014639616"
"","canvas-keyboard-response","60","102234","0.0-6.0-5.7","574","","","","","make choice","454","2","","","critical","d","c","t","158.0083","227.1683","240","164","164","240","trueblood","0.09","h","164","240","240","164","158.0083","227.1683","39360","39360","35894.4834","dc","null","null","null","null","null","null","[1,2]","","",""
"","canvas-keyboard-response","61","102252","0.0-6.0-6.7","574","","","","","clear_screen","null","null","","","critical","d","c","t","158.0083","227.1683","240","164","164","240","trueblood","0.09","h","164","240","240","164","158.0083","227.1683","39360","39360","35894.4834","dc","null","null","null","null","null","null","[1,2]","","",""
"","canvas-keyboard-response","62","102453","0.0-6.0-0.8","574","","","","","pre trial waiting period","null","null","","","critical","c","t","d","240","164","164","240","164","240","spektor","0","h","164","240","240","164","164","240","39360","39360","39360","td","null","null","null","null","null","null","[2,3]","531.003915028912","137.84746636147935","465.7725591126628"
"","canvas-keyboard-response","63","102471","0.0-6.0-1.8","574","","","","","clear_screen","null","null","","","critical","c","t","d","240","164","164","240","164","240","spektor","0","h","164","240","240","164","164","240","39360","39360","39360","td","null","null","null","null","null","null","[2,3]","531.003915028912","137.84746636147935","465.7725591126628"
"","canvas-keyboard-response","64","102985","0.0-6.0-2.8","574","","","","","rectangles no change","null","null","","","critical","c","t","d","240","164","164","240","164","240","spektor","0","h","164","240","240","164","164","240","39360","39360","39360","td","null","null","null","null","null","null","[2,3]","531.003915028912","137.84746636147935","465.7725591126628"
"","canvas-keyboard-response","65","104318","0.0-6.0-3.8","574","","","","","rectangles with change","null","null","","","critical","c","t","d","240","164","164","240","164","240","spektor","0","h","164","240","240","164","164","240","39360","39360","39360","td","null","null","null","null","null","null","[2,3]","531.003915028912","137.84746636147935","465.7725591126628"
"","canvas-keyboard-response","66","104339","0.0-6.0-4.8","574","","","","","clear_screen","null","null","","","critical","c","t","d","240","164","164","240","164","240","spektor","0","h","164","240","240","164","164","240","39360","39360","39360","td","null","null","null","null","null","null","[2,3]","531.003915028912","137.84746636147935","465.7725591126628"
"","canvas-keyboard-response","67","105578","0.0-6.0-5.8","574","","","","","make choice","1232","3","","","critical","c","t","d","240","164","164","240","164","240","spektor","0","h","164","240","240","164","164","240","39360","39360","39360","td","null","null","null","null","null","null","[2,3]","","",""
"","canvas-keyboard-response","68","105596","0.0-6.0-6.8","574","","","","","clear_screen","null","null","","","critical","c","t","d","240","164","164","240","164","240","spektor","0","h","164","240","240","164","164","240","39360","39360","39360","td","null","null","null","null","null","null","[2,3]","","",""
"","canvas-keyboard-response","69","105797","0.0-6.0-0.9","574","","","","","pre trial waiting period","null","null","","","critical","d","t","c","232.8713","160.6713","240","164","164","240","spektor","0.05","w","240","164","164","240","232.8713","160.6713","39360","39360","37415.7294","dc","null","null","null","null","null","null","[1,3]","536.9124728290152","200.64734275974078","458.1998335198819"
"","canvas-keyboard-response","70","105815","0.0-6.0-1.9","574","","","","","clear_screen","null","null","","","critical","d","t","c","232.8713","160.6713","240","164","164","240","spektor","0.05","w","240","164","164","240","232.8713","160.6713","39360","39360","37415.7294","dc","null","null","null","null","null","null","[1,3]","536.9124728290152","200.64734275974078","458.1998335198819"
"","canvas-keyboard-response","71","106325","0.0-6.0-2.9","574","","","","","rectangles no change","null","null","","","critical","d","t","c","232.8713","160.6713","240","164","164","240","spektor","0.05","w","240","164","164","240","232.8713","160.6713","39360","39360","37415.7294","dc","null","null","null","null","null","null","[1,3]","536.9124728290152","200.64734275974078","458.1998335198819"
"","canvas-keyboard-response","72","107659","0.0-6.0-3.9","574","","","","","rectangles with change","null","null","","","critical","d","t","c","232.8713","160.6713","240","164","164","240","spektor","0.05","w","240","164","164","240","232.8713","160.6713","39360","39360","37415.7294","dc","null","null","null","null","null","null","[1,3]","536.9124728290152","200.64734275974078","458.1998335198819"
"","canvas-keyboard-response","73","107677","0.0-6.0-4.9","574","","","","","clear_screen","null","null","","","critical","d","t","c","232.8713","160.6713","240","164","164","240","spektor","0.05","w","240","164","164","240","232.8713","160.6713","39360","39360","37415.7294","dc","null","null","null","null","null","null","[1,3]","536.9124728290152","200.64734275974078","458.1998335198819"
"","canvas-keyboard-response","74","108403","0.0-6.0-5.9","574","","","","","make choice","718","3","","","critical","d","t","c","232.8713","160.6713","240","164","164","240","spektor","0.05","w","240","164","164","240","232.8713","160.6713","39360","39360","37415.7294","dc","null","null","null","null","null","null","[1,3]","","",""
"","canvas-keyboard-response","75","108423","0.0-6.0-6.9","574","","","","","clear_screen","null","null","","","critical","d","t","c","232.8713","160.6713","240","164","164","240","spektor","0.05","w","240","164","164","240","232.8713","160.6713","39360","39360","37415.7294","dc","null","null","null","null","null","null","[1,3]","","",""
"","canvas-keyboard-response","76","108626","0.0-6.0-0.10","574","","","","","pre trial waiting period","null","null","","","critical","d","c","t","232.8713","160.6713","164","240","240","164","spektor","0.05","w","240","164","164","240","232.8713","160.6713","39360","39360","37415.7294","td","null","null","null","null","null","null","[3,1]","529.3805103439811","113.08175400666434","528.4840299210188"
"","canvas-keyboard-response","77","108646","0.0-6.0-1.10","574","","","","","clear_screen","null","null","","","critical","d","c","t","232.8713","160.6713","164","240","240","164","spektor","0.05","w","240","164","164","240","232.8713","160.6713","39360","39360","37415.7294","td","null","null","null","null","null","null","[3,1]","529.3805103439811","113.08175400666434","528.4840299210188"
"","canvas-keyboard-response","78","109158","0.0-6.0-2.10","574","","","","","rectangles no change","null","null","","","critical","d","c","t","232.8713","160.6713","164","240","240","164","spektor","0.05","w","240","164","164","240","232.8713","160.6713","39360","39360","37415.7294","td","null","null","null","null","null","null","[3,1]","529.3805103439811","113.08175400666434","528.4840299210188"
"","canvas-keyboard-response","79","110494","0.0-6.0-3.10","574","","","","","rectangles with change","null","null","","","critical","d","c","t","232.8713","160.6713","164","240","240","164","spektor","0.05","w","240","164","164","240","232.8713","160.6713","39360","39360","37415.7294","td","null","null","null","null","null","null","[3,1]","529.3805103439811","113.08175400666434","528.4840299210188"
"","canvas-keyboard-response","80","110513","0.0-6.0-4.10","574","","","","","clear_screen","null","null","","","critical","d","c","t","232.8713","160.6713","164","240","240","164","spektor","0.05","w","240","164","164","240","232.8713","160.6713","39360","39360","37415.7294","td","null","null","null","null","null","null","[3,1]","529.3805103439811","113.08175400666434","528.4840299210188"
"","canvas-keyboard-response","81","111115","0.0-6.0-5.10","574","","","","","make choice","593","3","","","critical","d","c","t","232.8713","160.6713","164","240","240","164","spektor","0.05","w","240","164","164","240","232.8713","160.6713","39360","39360","37415.7294","td","null","null","null","null","null","null","[3,1]","","",""
"","canvas-keyboard-response","82","111133","0.0-6.0-6.10","574","","","","","clear_screen","null","null","","","critical","d","c","t","232.8713","160.6713","164","240","240","164","spektor","0.05","w","240","164","164","240","232.8713","160.6713","39360","39360","37415.7294","td","null","null","null","null","null","null","[3,1]","","",""
"","canvas-keyboard-response","83","111334","0.0-6.0-0.11","574","","","","","pre trial waiting period","null","null","","","critical","t","c","d","240","164","164","240","227.1683","158.0083","trueblood","0.09","w","240","164","164","240","227.1683","158.0083","39360","39360","35894.4834","tc","null","null","null","null","null","null","[1,2]","479.13288165622356","462.97687215251733","511.98022833571366"
"","canvas-keyboard-response","84","111354","0.0-6.0-1.11","574","","","","","clear_screen","null","null","","","critical","t","c","d","240","164","164","240","227.1683","158.0083","trueblood","0.09","w","240","164","164","240","227.1683","158.0083","39360","39360","35894.4834","tc","null","null","null","null","null","null","[1,2]","479.13288165622356","462.97687215251733","511.98022833571366"
"","canvas-keyboard-response","85","111864","0.0-6.0-2.11","574","","","","","rectangles no change","null","null","","","critical","t","c","d","240","164","164","240","227.1683","158.0083","trueblood","0.09","w","240","164","164","240","227.1683","158.0083","39360","39360","35894.4834","tc","null","null","null","null","null","null","[1,2]","479.13288165622356","462.97687215251733","511.98022833571366"
"","canvas-keyboard-response","86","113199","0.0-6.0-3.11","574","","","","","rectangles with change","null","null","","","critical","t","c","d","240","164","164","240","227.1683","158.0083","trueblood","0.09","w","240","164","164","240","227.1683","158.0083","39360","39360","35894.4834","tc","null","null","null","null","null","null","[1,2]","479.13288165622356","462.97687215251733","511.98022833571366"
"","canvas-keyboard-response","87","113219","0.0-6.0-4.11","574","","","","","clear_screen","null","null","","","critical","t","c","d","240","164","164","240","227.1683","158.0083","trueblood","0.09","w","240","164","164","240","227.1683","158.0083","39360","39360","35894.4834","tc","null","null","null","null","null","null","[1,2]","479.13288165622356","462.97687215251733","511.98022833571366"
"","canvas-keyboard-response","88","113778","0.0-6.0-5.11","574","","","","","make choice","550","2","","","critical","t","c","d","240","164","164","240","227.1683","158.0083","trueblood","0.09","w","240","164","164","240","227.1683","158.0083","39360","39360","35894.4834","tc","null","null","null","null","null","null","[1,2]","","",""
"","canvas-keyboard-response","89","113796","0.0-6.0-6.11","574","","","","","clear_screen","null","null","","","critical","t","c","d","240","164","164","240","227.1683","158.0083","trueblood","0.09","w","240","164","164","240","227.1683","158.0083","39360","39360","35894.4834","tc","null","null","null","null","null","null","[1,2]","","",""
"","canvas-keyboard-response","90","113997","0.0-6.0-0.12","574","","","","","pre trial waiting period","null","null","","","catch","sw","l","sh","180","200","244","210","176","155","trueblood","null","null","null","null","null","null","null","null","null","null","null","","180","200","260","200","36000","52000","[2,3]","447.7953750623113","458.6740161539523","509.7214637735766"
"","canvas-keyboard-response","91","114016","0.0-6.0-1.12","574","","","","","clear_screen","null","null","","","catch","sw","l","sh","180","200","244","210","176","155","trueblood","null","null","null","null","null","null","null","null","null","null","null","","180","200","260","200","36000","52000","[2,3]","447.7953750623113","458.6740161539523","509.7214637735766"
"","canvas-keyboard-response","92","114527","0.0-6.0-2.12","574","","","","","rectangles no change","null","null","","","catch","sw","l","sh","180","200","244","210","176","155","trueblood","null","null","null","null","null","null","null","null","null","null","null","","180","200","260","200","36000","52000","[2,3]","447.7953750623113","458.6740161539523","509.7214637735766"
"","canvas-keyboard-response","93","115861","0.0-6.0-3.12","574","","","","","rectangles with change","null","null","","","catch","sw","l","sh","180","200","244","210","176","155","trueblood","null","null","null","null","null","null","null","null","null","null","null","","180","200","260","200","36000","52000","[2,3]","447.7953750623113","458.6740161539523","509.7214637735766"
"","canvas-keyboard-response","94","115881","0.0-6.0-4.12","574","","","","","clear_screen","null","null","","","catch","sw","l","sh","180","200","244","210","176","155","trueblood","null","null","null","null","null","null","null","null","null","null","null","","180","200","260","200","36000","52000","[2,3]","447.7953750623113","458.6740161539523","509.7214637735766"
"","canvas-keyboard-response","95","116490","0.0-6.0-5.12","574","","","","","make choice","603","2","","","catch","sw","l","sh","180","200","244","210","176","155","trueblood","null","null","null","null","null","null","null","null","null","null","null","","180","200","260","200","36000","52000","[2,3]","","",""
"","canvas-keyboard-response","96","116509","0.0-6.0-6.12","574","","","","","clear_screen","null","null","","","catch","sw","l","sh","180","200","244","210","176","155","trueblood","null","null","null","null","null","null","null","null","null","null","null","","180","200","260","200","36000","52000","[2,3]","","",""
"","canvas-keyboard-response","97","116711","0.0-6.0-0.13","574","","","","","pre trial waiting period","null","null","","","critical","c","d","t","240","164","162.6685","237.1485","164","240","trueblood","0.02","h","164","240","240","164","162.6685","237.1485","39360","39360","38576.5967","tc","null","null","null","null","null","null","[3,1]","502.72764558296626","466.72323165982726","447.3827789607917"
"","canvas-keyboard-response","98","116729","0.0-6.0-1.13","574","","","","","clear_screen","null","null","","","critical","c","d","t","240","164","162.6685","237.1485","164","240","trueblood","0.02","h","164","240","240","164","162.6685","237.1485","39360","39360","38576.5967","tc","null","null","null","null","null","null","[3,1]","502.72764558296626","466.72323165982726","447.3827789607917"
"","canvas-keyboard-response","99","117240","0.0-6.0-2.13","574","","","","","rectangles no change","null","null","","","critical","c","d","t","240","164","162.6685","237.1485","164","240","trueblood","0.02","h","164","240","240","164","162.6685","237.1485","39360","39360","38576.5967","tc","null","null","null","null","null","null","[3,1]","502.72764558296626","466.72323165982726","447.3827789607917"
"","canvas-keyboard-response","100","118575","0.0-6.0-3.13","574","","","","","rectangles with change","null","null","","","critical","c","d","t","240","164","162.6685","237.1485","164","240","trueblood","0.02","h","164","240","240","164","162.6685","237.1485","39360","39360","38576.5967","tc","null","null","null","null","null","null","[3,1]","502.72764558296626","466.72323165982726","447.3827789607917"
"","canvas-keyboard-response","101","118593","0.0-6.0-4.13","574","","","","","clear_screen","null","null","","","critical","c","d","t","240","164","162.6685","237.1485","164","240","trueblood","0.02","h","164","240","240","164","162.6685","237.1485","39360","39360","38576.5967","tc","null","null","null","null","null","null","[3,1]","502.72764558296626","466.72323165982726","447.3827789607917"
"","canvas-keyboard-response","102","118627","0.0-6.0-5.13","574","","","","","make choice","26","1","","","critical","c","d","t","240","164","162.6685","237.1485","164","240","trueblood","0.02","h","164","240","240","164","162.6685","237.1485","39360","39360","38576.5967","tc","null","null","null","null","null","null","[3,1]","","",""
"","canvas-keyboard-response","103","118644","0.0-6.0-6.13","574","","","","","clear_screen","null","null","","","critical","c","d","t","240","164","162.6685","237.1485","164","240","trueblood","0.02","h","164","240","240","164","162.6685","237.1485","39360","39360","38576.5967","tc","null","null","null","null","null","null","[3,1]","","",""
"","canvas-keyboard-response","104","118845","0.0-6.0-0.14","574","","","","","pre trial waiting period","null","null","","","critical","t","d","c","164","240","160.6713","232.8713","240","164","spektor","0.05","h","164","240","240","164","160.6713","232.8713","39360","39360","37415.7294","td","null","null","null","null","null","null","[1,2]","489.7222780837959","115.97090164914745","497.28487154835386"
"","canvas-keyboard-response","105","118864","0.0-6.0-1.14","574","","","","","clear_screen","null","null","","","critical","t","d","c","164","240","160.6713","232.8713","240","164","spektor","0.05","h","164","240","240","164","160.6713","232.8713","39360","39360","37415.7294","td","null","null","null","null","null","null","[1,2]","489.7222780837959","115.97090164914745","497.28487154835386"
"","canvas-keyboard-response","106","119375","0.0-6.0-2.14","574","","","","","rectangles no change","null","null","","","critical","t","d","c","164","240","160.6713","232.8713","240","164","spektor","0.05","h","164","240","240","164","160.6713","232.8713","39360","39360","37415.7294","td","null","null","null","null","null","null","[1,2]","489.7222780837959","115.97090164914745","497.28487154835386"
"","canvas-keyboard-response","107","120710","0.0-6.0-3.14","574","","","","","rectangles with change","null","null","","","critical","t","d","c","164","240","160.6713","232.8713","240","164","spektor","0.05","h","164","240","240","164","160.6713","232.8713","39360","39360","37415.7294","td","null","null","null","null","null","null","[1,2]","489.7222780837959","115.97090164914745","497.28487154835386"
"","canvas-keyboard-response","108","120728","0.0-6.0-4.14","574","","","","","clear_screen","null","null","","","critical","t","d","c","164","240","160.6713","232.8713","240","164","spektor","0.05","h","164","240","240","164","160.6713","232.8713","39360","39360","37415.7294","td","null","null","null","null","null","null","[1,2]","489.7222780837959","115.97090164914745","497.28487154835386"
"","canvas-keyboard-response","109","121346","0.0-6.0-5.14","574","","","","","make choice","610","1","","","critical","t","d","c","164","240","160.6713","232.8713","240","164","spektor","0.05","h","164","240","240","164","160.6713","232.8713","39360","39360","37415.7294","td","null","null","null","null","null","null","[1,2]","","",""
"","canvas-keyboard-response","110","121365","0.0-6.0-6.14","574","","","","","clear_screen","null","null","","","critical","t","d","c","164","240","160.6713","232.8713","240","164","spektor","0.05","h","164","240","240","164","160.6713","232.8713","39360","39360","37415.7294","td","null","null","null","null","null","null","[1,2]","","",""
"","canvas-keyboard-response","111","121565","0.0-6.0-0.15","574","","","","","pre trial waiting period","null","null","","","catch","l","sw","sh","272","172","186","168","229","174","spektor","null","null","null","null","null","null","null","null","null","null","null","","180","200","260","200","36000","52000","[1,3]","511.0050939491426","221.22782403050053","512.2617088744671"
"","canvas-keyboard-response","112","121585","0.0-6.0-1.15","574","","","","","clear_screen","null","null","","","catch","l","sw","sh","272","172","186","168","229","174","spektor","null","null","null","null","null","null","null","null","null","null","null","","180","200","260","200","36000","52000","[1,3]","511.0050939491426","221.22782403050053","512.2617088744671"
"","canvas-keyboard-response","113","122098","0.0-6.0-2.15","574","","","","","rectangles no change","null","null","","","catch","l","sw","sh","272","172","186","168","229","174","spektor","null","null","null","null","null","null","null","null","null","null","null","","180","200","260","200","36000","52000","[1,3]","511.0050939491426","221.22782403050053","512.2617088744671"
"","canvas-keyboard-response","114","123433","0.0-6.0-3.15","574","","","","","rectangles with change","null","null","","","catch","l","sw","sh","272","172","186","168","229","174","spektor","null","null","null","null","null","null","null","null","null","null","null","","180","200","260","200","36000","52000","[1,3]","511.0050939491426","221.22782403050053","512.2617088744671"
"","canvas-keyboard-response","115","123450","0.0-6.0-4.15","574","","","","","clear_screen","null","null","","","catch","l","sw","sh","272","172","186","168","229","174","spektor","null","null","null","null","null","null","null","null","null","null","null","","180","200","260","200","36000","52000","[1,3]","511.0050939491426","221.22782403050053","512.2617088744671"
"","canvas-keyboard-response","116","123914","0.0-6.0-5.15","574","","","","","make choice","456","1","","","catch","l","sw","sh","272","172","186","168","229","174","spektor","null","null","null","null","null","null","null","null","null","null","null","","180","200","260","200","36000","52000","[1,3]","","",""
"","canvas-keyboard-response","117","123931","0.0-6.0-6.15","574","","","","","clear_screen","null","null","","","catch","l","sw","sh","272","172","186","168","229","174","spektor","null","null","null","null","null","null","null","null","null","null","null","","180","200","260","200","36000","52000","[1,3]","","",""
"","canvas-keyboard-response","118","124133","0.0-6.0-0.16","574","","","","","pre trial waiting period","null","null","","","catch","l","sh","sw","255","217","203","205","153","176","spektor","null","null","null","null","null","null","null","null","null","null","null","","180","200","260","200","36000","52000","[1,2]","515.9275495574414","166.27355603002616","535.7618543275507"
"","canvas-keyboard-response","119","124151","0.0-6.0-1.16","574","","","","","clear_screen","null","null","","","catch","l","sh","sw","255","217","203","205","153","176","spektor","null","null","null","null","null","null","null","null","null","null","null","","180","200","260","200","36000","52000","[1,2]","515.9275495574414","166.27355603002616","535.7618543275507"
"","canvas-keyboard-response","120","124661","0.0-6.0-2.16","574","","","","","rectangles no change","null","null","","","catch","l","sh","sw","255","217","203","205","153","176","spektor","null","null","null","null","null","null","null","null","null","null","null","","180","200","260","200","36000","52000","[1,2]","515.9275495574414","166.27355603002616","535.7618543275507"
"","canvas-keyboard-response","121","125995","0.0-6.0-3.16","574","","","","","rectangles with change","null","null","","","catch","l","sh","sw","255","217","203","205","153","176","spektor","null","null","null","null","null","null","null","null","null","null","null","","180","200","260","200","36000","52000","[1,2]","515.9275495574414","166.27355603002616","535.7618543275507"
"","canvas-keyboard-response","122","126013","0.0-6.0-4.16","574","","","","","clear_screen","null","null","","","catch","l","sh","sw","255","217","203","205","153","176","spektor","null","null","null","null","null","null","null","null","null","null","null","","180","200","260","200","36000","52000","[1,2]","515.9275495574414","166.27355603002616","535.7618543275507"
"","canvas-keyboard-response","123","126561","0.0-6.0-5.16","574","","","","","make choice","542","1","","","catch","l","sh","sw","255","217","203","205","153","176","spektor","null","null","null","null","null","null","null","null","null","null","null","","180","200","260","200","36000","52000","[1,2]","","",""
"","canvas-keyboard-response","124","126580","0.0-6.0-6.16","574","","","","","clear_screen","null","null","","","catch","l","sh","sw","255","217","203","205","153","176","spektor","null","null","null","null","null","null","null","null","null","null","null","","180","200","260","200","36000","52000","[1,2]","","",""
"","canvas-keyboard-response","125","126780","0.0-6.0-0.17","574","","","","","pre trial waiting period","null","null","","","critical","c","t","d","164","240","240","164","227.1683","158.0083","spektor","0.09","w","240","164","164","240","227.1683","158.0083","39360","39360","35894.4834","dc","null","null","null","null","null","null","[3,1]","478.34471623029117","190.02324950869098","519.9446978424292"
"","canvas-keyboard-response","126","126799","0.0-6.0-1.17","574","","","","","clear_screen","null","null","","","critical","c","t","d","164","240","240","164","227.1683","158.0083","spektor","0.09","w","240","164","164","240","227.1683","158.0083","39360","39360","35894.4834","dc","null","null","null","null","null","null","[3,1]","478.34471623029117","190.02324950869098","519.9446978424292"
"","canvas-keyboard-response","127","127309","0.0-6.0-2.17","574","","","","","rectangles no change","null","null","","","critical","c","t","d","164","240","240","164","227.1683","158.0083","spektor","0.09","w","240","164","164","240","227.1683","158.0083","39360","39360","35894.4834","dc","null","null","null","null","null","null","[3,1]","478.34471623029117","190.02324950869098","519.9446978424292"
"","canvas-keyboard-response","128","128643","0.0-6.0-3.17","574","","","","","rectangles with change","null","null","","","critical","c","t","d","164","240","240","164","227.1683","158.0083","spektor","0.09","w","240","164","164","240","227.1683","158.0083","39360","39360","35894.4834","dc","null","null","null","null","null","null","[3,1]","478.34471623029117","190.02324950869098","519.9446978424292"
"","canvas-keyboard-response","129","128661","0.0-6.0-4.17","574","","","","","clear_screen","null","null","","","critical","c","t","d","164","240","240","164","227.1683","158.0083","spektor","0.09","w","240","164","164","240","227.1683","158.0083","39360","39360","35894.4834","dc","null","null","null","null","null","null","[3,1]","478.34471623029117","190.02324950869098","519.9446978424292"
"","canvas-keyboard-response","130","129282","0.0-6.0-5.17","574","","","","","make choice","613","3","","","critical","c","t","d","164","240","240","164","227.1683","158.0083","spektor","0.09","w","240","164","164","240","227.1683","158.0083","39360","39360","35894.4834","dc","null","null","null","null","null","null","[3,1]","","",""
"","canvas-keyboard-response","131","129300","0.0-6.0-6.17","574","","","","","clear_screen","null","null","","","critical","c","t","d","164","240","240","164","227.1683","158.0083","spektor","0.09","w","240","164","164","240","227.1683","158.0083","39360","39360","35894.4834","dc","null","null","null","null","null","null","[3,1]","","",""
"","canvas-keyboard-response","132","129501","0.0-6.0-0.18","574","","","","","pre trial waiting period","null","null","","","critical","c","t","d","240","164","164","240","164","240","trueblood","0","h","164","240","240","164","164","240","39360","39360","39360","dc","null","null","null","null","null","null","[3,1]","503.756421616706","436.3735318495509","457.09212742092694"
"","canvas-keyboard-response","133","129519","0.0-6.0-1.18","574","","","","","clear_screen","null","null","","","critical","c","t","d","240","164","164","240","164","240","trueblood","0","h","164","240","240","164","164","240","39360","39360","39360","dc","null","null","null","null","null","null","[3,1]","503.756421616706","436.3735318495509","457.09212742092694"
"","canvas-keyboard-response","134","130028","0.0-6.0-2.18","574","","","","","rectangles no change","null","null","","","critical","c","t","d","240","164","164","240","164","240","trueblood","0","h","164","240","240","164","164","240","39360","39360","39360","dc","null","null","null","null","null","null","[3,1]","503.756421616706","436.3735318495509","457.09212742092694"
"","canvas-keyboard-response","135","131362","0.0-6.0-3.18","574","","","","","rectangles with change","null","null","","","critical","c","t","d","240","164","164","240","164","240","trueblood","0","h","164","240","240","164","164","240","39360","39360","39360","dc","null","null","null","null","null","null","[3,1]","503.756421616706","436.3735318495509","457.09212742092694"
"","canvas-keyboard-response","136","131382","0.0-6.0-4.18","574","","","","","clear_screen","null","null","","","critical","c","t","d","240","164","164","240","164","240","trueblood","0","h","164","240","240","164","164","240","39360","39360","39360","dc","null","null","null","null","null","null","[3,1]","503.756421616706","436.3735318495509","457.09212742092694"
"","canvas-keyboard-response","137","131994","0.0-6.0-5.18","574","","","","","make choice","605","1","","","critical","c","t","d","240","164","164","240","164","240","trueblood","0","h","164","240","240","164","164","240","39360","39360","39360","dc","null","null","null","null","null","null","[3,1]","","",""
"","canvas-keyboard-response","138","132012","0.0-6.0-6.18","574","","","","","clear_screen","null","null","","","critical","c","t","d","240","164","164","240","164","240","trueblood","0","h","164","240","240","164","164","240","39360","39360","39360","dc","null","null","null","null","null","null","[3,1]","","",""
"","canvas-keyboard-response","139","132212","0.0-6.0-0.19","574","","","","","pre trial waiting period","null","null","","","critical","c","t","d","164","240","240","164","232.8713","160.6713","trueblood","0.05","w","240","164","164","240","232.8713","160.6713","39360","39360","37415.7294","td","null","null","null","null","null","null","[2,3]","424.7048523637432","496.8379392314448","517.2043090807314"
"","canvas-keyboard-response","140","132231","0.0-6.0-1.19","574","","","","","clear_screen","null","null","","","critical","c","t","d","164","240","240","164","232.8713","160.6713","trueblood","0.05","w","240","164","164","240","232.8713","160.6713","39360","39360","37415.7294","td","null","null","null","null","null","null","[2,3]","424.7048523637432","496.8379392314448","517.2043090807314"
"","canvas-keyboard-response","141","132742","0.0-6.0-2.19","574","","","","","rectangles no change","null","null","","","critical","c","t","d","164","240","240","164","232.8713","160.6713","trueblood","0.05","w","240","164","164","240","232.8713","160.6713","39360","39360","37415.7294","td","null","null","null","null","null","null","[2,3]","424.7048523637432","496.8379392314448","517.2043090807314"
"","canvas-keyboard-response","142","134076","0.0-6.0-3.19","574","","","","","rectangles with change","null","null","","","critical","c","t","d","164","240","240","164","232.8713","160.6713","trueblood","0.05","w","240","164","164","240","232.8713","160.6713","39360","39360","37415.7294","td","null","null","null","null","null","null","[2,3]","424.7048523637432","496.8379392314448","517.2043090807314"
"","canvas-keyboard-response","143","134094","0.0-6.0-4.19","574","","","","","clear_screen","null","null","","","critical","c","t","d","164","240","240","164","232.8713","160.6713","trueblood","0.05","w","240","164","164","240","232.8713","160.6713","39360","39360","37415.7294","td","null","null","null","null","null","null","[2,3]","424.7048523637432","496.8379392314448","517.2043090807314"
"","canvas-keyboard-response","144","134682","0.0-6.0-5.19","574","","","","","make choice","583","2","","","critical","c","t","d","164","240","240","164","232.8713","160.6713","trueblood","0.05","w","240","164","164","240","232.8713","160.6713","39360","39360","37415.7294","td","null","null","null","null","null","null","[2,3]","","",""
"","canvas-keyboard-response","145","134700","0.0-6.0-6.19","574","","","","","clear_screen","null","null","","","critical","c","t","d","164","240","240","164","232.8713","160.6713","trueblood","0.05","w","240","164","164","240","232.8713","160.6713","39360","39360","37415.7294","td","null","null","null","null","null","null","[2,3]","","",""
"","canvas-keyboard-response","146","134901","0.0-6.0-0.20","574","","","","","pre trial waiting period","null","null","","","catch","l","sw","sh","263","166","208","194","209","164","spektor","null","null","null","null","null","null","null","null","null","null","null","","180","200","260","200","36000","52000","[1,2]","508.90239412410483","192.53308832402413","527.2488452804348"
"","canvas-keyboard-response","147","134920","0.0-6.0-1.20","574","","","","","clear_screen","null","null","","","catch","l","sw","sh","263","166","208","194","209","164","spektor","null","null","null","null","null","null","null","null","null","null","null","","180","200","260","200","36000","52000","[1,2]","508.90239412410483","192.53308832402413","527.2488452804348"
"","canvas-keyboard-response","148","135430","0.0-6.0-2.20","574","","","","","rectangles no change","null","null","","","catch","l","sw","sh","263","166","208","194","209","164","spektor","null","null","null","null","null","null","null","null","null","null","null","","180","200","260","200","36000","52000","[1,2]","508.90239412410483","192.53308832402413","527.2488452804348"
"","canvas-keyboard-response","149","136769","0.0-6.0-3.20","574","","","","","rectangles with change","null","null","","","catch","l","sw","sh","263","166","208","194","209","164","spektor","null","null","null","null","null","null","null","null","null","null","null","","180","200","260","200","36000","52000","[1,2]","508.90239412410483","192.53308832402413","527.2488452804348"
"","canvas-keyboard-response","150","136786","0.0-6.0-4.20","574","","","","","clear_screen","null","null","","","catch","l","sw","sh","263","166","208","194","209","164","spektor","null","null","null","null","null","null","null","null","null","null","null","","180","200","260","200","36000","52000","[1,2]","508.90239412410483","192.53308832402413","527.2488452804348"
"","canvas-keyboard-response","151","137026","0.0-6.0-5.20","574","","","","","make choice","233","1","","","catch","l","sw","sh","263","166","208","194","209","164","spektor","null","null","null","null","null","null","null","null","null","null","null","","180","200","260","200","36000","52000","[1,2]","","",""
"","canvas-keyboard-response","152","137044","0.0-6.0-6.20","574","","","","","clear_screen","null","null","","","catch","l","sw","sh","263","166","208","194","209","164","spektor","null","null","null","null","null","null","null","null","null","null","null","","180","200","260","200","36000","52000","[1,2]","","",""
"","canvas-keyboard-response","153","137245","0.0-6.0-0.21","574","","","","","pre trial waiting period","null","null","","","critical","t","c","d","240","164","164","240","220.0396","154.6796","trueblood","0.14","w","240","164","164","240","220.0396","154.6796","39360","39360","34035.6388","tc","null","null","null","null","null","null","[1,2]","497.38509037137015","462.6865557464258","486.85183100618303"
"","canvas-keyboard-response","154","137264","0.0-6.0-1.21","574","","","","","clear_screen","null","null","","","critical","t","c","d","240","164","164","240","220.0396","154.6796","trueblood","0.14","w","240","164","164","240","220.0396","154.6796","39360","39360","34035.6388","tc","null","null","null","null","null","null","[1,2]","497.38509037137015","462.6865557464258","486.85183100618303"
"","canvas-keyboard-response","155","137774","0.0-6.0-2.21","574","","","","","rectangles no change","null","null","","","critical","t","c","d","240","164","164","240","220.0396","154.6796","trueblood","0.14","w","240","164","164","240","220.0396","154.6796","39360","39360","34035.6388","tc","null","null","null","null","null","null","[1,2]","497.38509037137015","462.6865557464258","486.85183100618303"
"","canvas-keyboard-response","156","139108","0.0-6.0-3.21","574","","","","","rectangles with change","null","null","","","critical","t","c","d","240","164","164","240","220.0396","154.6796","trueblood","0.14","w","240","164","164","240","220.0396","154.6796","39360","39360","34035.6388","tc","null","null","null","null","null","null","[1,2]","497.38509037137015","462.6865557464258","486.85183100618303"
"","canvas-keyboard-response","157","139126","0.0-6.0-4.21","574","","","","","clear_screen","null","null","","","critical","t","c","d","240","164","164","240","220.0396","154.6796","trueblood","0.14","w","240","164","164","240","220.0396","154.6796","39360","39360","34035.6388","tc","null","null","null","null","null","null","[1,2]","497.38509037137015","462.6865557464258","486.85183100618303"
"","canvas-keyboard-response","158","139394","0.0-6.0-5.21","574","","","","","make choice","260","1","","","critical","t","c","d","240","164","164","240","220.0396","154.6796","trueblood","0.14","w","240","164","164","240","220.0396","154.6796","39360","39360","34035.6388","tc","null","null","null","null","null","null","[1,2]","","",""
"","canvas-keyboard-response","159","139411","0.0-6.0-6.21","574","","","","","clear_screen","null","null","","","critical","t","c","d","240","164","164","240","220.0396","154.6796","trueblood","0.14","w","240","164","164","240","220.0396","154.6796","39360","39360","34035.6388","tc","null","null","null","null","null","null","[1,2]","","",""
"","canvas-keyboard-response","160","139612","0.0-6.0-0.22","574","","","","","pre trial waiting period","null","null","","","catch","sw","sh","l","180","200","179","210","168","278","trueblood","null","null","null","null","null","null","null","null","null","null","null","","180","200","260","200","36000","52000","[1,3]","446.09237781355137","478.7815666744627","420.3897734178688"
"","canvas-keyboard-response","161","139631","0.0-6.0-1.22","574","","","","","clear_screen","null","null","","","catch","sw","sh","l","180","200","179","210","168","278","trueblood","null","null","null","null","null","null","null","null","null","null","null","","180","200","260","200","36000","52000","[1,3]","446.09237781355137","478.7815666744627","420.3897734178688"
"","canvas-keyboard-response","162","140140","0.0-6.0-2.22","574","","","","","rectangles no change","null","null","","","catch","sw","sh","l","180","200","179","210","168","278","trueblood","null","null","null","null","null","null","null","null","null","null","null","","180","200","260","200","36000","52000","[1,3]","446.09237781355137","478.7815666744627","420.3897734178688"
"","canvas-keyboard-response","163","141474","0.0-6.0-3.22","574","","","","","rectangles with change","null","null","","","catch","sw","sh","l","180","200","179","210","168","278","trueblood","null","null","null","null","null","null","null","null","null","null","null","","180","200","260","200","36000","52000","[1,3]","446.09237781355137","478.7815666744627","420.3897734178688"
"","canvas-keyboard-response","164","141492","0.0-6.0-4.22","574","","","","","clear_screen","null","null","","","catch","sw","sh","l","180","200","179","210","168","278","trueblood","null","null","null","null","null","null","null","null","null","null","null","","180","200","260","200","36000","52000","[1,3]","446.09237781355137","478.7815666744627","420.3897734178688"
"","canvas-keyboard-response","165","141866","0.0-6.0-5.22","574","","","","","make choice","367","3","","","catch","sw","sh","l","180","200","179","210","168","278","trueblood","null","null","null","null","null","null","null","null","null","null","null","","180","200","260","200","36000","52000","[1,3]","","",""
"","canvas-keyboard-response","166","141883","0.0-6.0-6.22","574","","","","","clear_screen","null","null","","","catch","sw","sh","l","180","200","179","210","168","278","trueblood","null","null","null","null","null","null","null","null","null","null","null","","180","200","260","200","36000","52000","[1,3]","","",""
"","canvas-keyboard-response","167","142084","0.0-6.0-0.23","574","","","","","pre trial waiting period","null","null","","","critical","d","t","c","220.0396","154.6796","240","164","164","240","trueblood","0.14","w","240","164","164","240","220.0396","154.6796","39360","39360","34035.6388","td","null","null","null","null","null","null","[2,1]","499.3762665221629","504.8239381430807","434.19912143322273"
"","canvas-keyboard-response","168","142103","0.0-6.0-1.23","574","","","","","clear_screen","null","null","","","critical","d","t","c","220.0396","154.6796","240","164","164","240","trueblood","0.14","w","240","164","164","240","220.0396","154.6796","39360","39360","34035.6388","td","null","null","null","null","null","null","[2,1]","499.3762665221629","504.8239381430807","434.19912143322273"
"","canvas-keyboard-response","169","142612","0.0-6.0-2.23","574","","","","","rectangles no change","null","null","","","critical","d","t","c","220.0396","154.6796","240","164","164","240","trueblood","0.14","w","240","164","164","240","220.0396","154.6796","39360","39360","34035.6388","td","null","null","null","null","null","null","[2,1]","499.3762665221629","504.8239381430807","434.19912143322273"
"","canvas-keyboard-response","170","143947","0.0-6.0-3.23","574","","","","","rectangles with change","null","null","","","critical","d","t","c","220.0396","154.6796","240","164","164","240","trueblood","0.14","w","240","164","164","240","220.0396","154.6796","39360","39360","34035.6388","td","null","null","null","null","null","null","[2,1]","499.3762665221629","504.8239381430807","434.19912143322273"
"","canvas-keyboard-response","171","143967","0.0-6.0-4.23","574","","","","","clear_screen","null","null","","","critical","d","t","c","220.0396","154.6796","240","164","164","240","trueblood","0.14","w","240","164","164","240","220.0396","154.6796","39360","39360","34035.6388","td","null","null","null","null","null","null","[2,1]","499.3762665221629","504.8239381430807","434.19912143322273"
"","canvas-keyboard-response","172","144498","0.0-6.0-5.23","574","","","","","make choice","524","1","","","critical","d","t","c","220.0396","154.6796","240","164","164","240","trueblood","0.14","w","240","164","164","240","220.0396","154.6796","39360","39360","34035.6388","td","null","null","null","null","null","null","[2,1]","","",""
"","canvas-keyboard-response","173","144518","0.0-6.0-6.23","574","","","","","clear_screen","null","null","","","critical","d","t","c","220.0396","154.6796","240","164","164","240","trueblood","0.14","w","240","164","164","240","220.0396","154.6796","39360","39360","34035.6388","td","null","null","null","null","null","null","[2,1]","","",""
"","canvas-keyboard-response","174","144719","0.0-6.0-0.24","574","","","","","pre trial waiting period","null","null","","","critical","d","c","t","160.6713","232.8713","240","164","164","240","spektor","0.05","h","164","240","240","164","160.6713","232.8713","39360","39360","37415.7294","dc","null","null","null","null","null","null","[1,2]","488.3766169613777","159.20996947745698","464.49937351979924"
"","canvas-keyboard-response","175","144739","0.0-6.0-1.24","574","","","","","clear_screen","null","null","","","critical","d","c","t","160.6713","232.8713","240","164","164","240","spektor","0.05","h","164","240","240","164","160.6713","232.8713","39360","39360","37415.7294","dc","null","null","null","null","null","null","[1,2]","488.3766169613777","159.20996947745698","464.49937351979924"
"","canvas-keyboard-response","176","145253","0.0-6.0-2.24","574","","","","","rectangles no change","null","null","","","critical","d","c","t","160.6713","232.8713","240","164","164","240","spektor","0.05","h","164","240","240","164","160.6713","232.8713","39360","39360","37415.7294","dc","null","null","null","null","null","null","[1,2]","488.3766169613777","159.20996947745698","464.49937351979924"
"","canvas-keyboard-response","177","146588","0.0-6.0-3.24","574","","","","","rectangles with change","null","null","","","critical","d","c","t","160.6713","232.8713","240","164","164","240","spektor","0.05","h","164","240","240","164","160.6713","232.8713","39360","39360","37415.7294","dc","null","null","null","null","null","null","[1,2]","488.3766169613777","159.20996947745698","464.49937351979924"
"","canvas-keyboard-response","178","146607","0.0-6.0-4.24","574","","","","","clear_screen","null","null","","","critical","d","c","t","160.6713","232.8713","240","164","164","240","spektor","0.05","h","164","240","240","164","160.6713","232.8713","39360","39360","37415.7294","dc","null","null","null","null","null","null","[1,2]","488.3766169613777","159.20996947745698","464.49937351979924"
"","canvas-keyboard-response","179","147242","0.0-6.0-5.24","574","","","","","make choice","626","2","","","critical","d","c","t","160.6713","232.8713","240","164","164","240","spektor","0.05","h","164","240","240","164","160.6713","232.8713","39360","39360","37415.7294","dc","null","null","null","null","null","null","[1,2]","","",""
"","canvas-keyboard-response","180","147261","0.0-6.0-6.24","574","","","","","clear_screen","null","null","","","critical","d","c","t","160.6713","232.8713","240","164","164","240","spektor","0.05","h","164","240","240","164","160.6713","232.8713","39360","39360","37415.7294","dc","null","null","null","null","null","null","[1,2]","","",""
"","canvas-keyboard-response","181","147463","0.0-6.0-0.25","574","","","","","pre trial waiting period","null","null","","","critical","c","t","d","164","240","240","164","232.8713","160.6713","trueblood","0.05","w","240","164","164","240","232.8713","160.6713","39360","39360","37415.7294","dc","null","null","null","null","null","null","[3,1]","440.8211648616199","515.1593030232686","518.7099125938605"
"","canvas-keyboard-response","182","147482","0.0-6.0-1.25","574","","","","","clear_screen","null","null","","","critical","c","t","d","164","240","240","164","232.8713","160.6713","trueblood","0.05","w","240","164","164","240","232.8713","160.6713","39360","39360","37415.7294","dc","null","null","null","null","null","null","[3,1]","440.8211648616199","515.1593030232686","518.7099125938605"
"","canvas-keyboard-response","183","147998","0.0-6.0-2.25","574","","","","","rectangles no change","null","null","","","critical","c","t","d","164","240","240","164","232.8713","160.6713","trueblood","0.05","w","240","164","164","240","232.8713","160.6713","39360","39360","37415.7294","dc","null","null","null","null","null","null","[3,1]","440.8211648616199","515.1593030232686","518.7099125938605"
"","canvas-keyboard-response","184","149333","0.0-6.0-3.25","574","","","","","rectangles with change","null","null","","","critical","c","t","d","164","240","240","164","232.8713","160.6713","trueblood","0.05","w","240","164","164","240","232.8713","160.6713","39360","39360","37415.7294","dc","null","null","null","null","null","null","[3,1]","440.8211648616199","515.1593030232686","518.7099125938605"
"","canvas-keyboard-response","185","149352","0.0-6.0-4.25","574","","","","","clear_screen","null","null","","","critical","c","t","d","164","240","240","164","232.8713","160.6713","trueblood","0.05","w","240","164","164","240","232.8713","160.6713","39360","39360","37415.7294","dc","null","null","null","null","null","null","[3,1]","440.8211648616199","515.1593030232686","518.7099125938605"
"","canvas-keyboard-response","186","149522","0.0-6.0-5.25","574","","","","","make choice","165","3","","","critical","c","t","d","164","240","240","164","232.8713","160.6713","trueblood","0.05","w","240","164","164","240","232.8713","160.6713","39360","39360","37415.7294","dc","null","null","null","null","null","null","[3,1]","","",""
"","canvas-keyboard-response","187","149540","0.0-6.0-6.25","574","","","","","clear_screen","null","null","","","critical","c","t","d","164","240","240","164","232.8713","160.6713","trueblood","0.05","w","240","164","164","240","232.8713","160.6713","39360","39360","37415.7294","dc","null","null","null","null","null","null","[3,1]","","",""
"","canvas-keyboard-response","188","149740","0.0-6.0-0.26","574","","","","","pre trial waiting period","null","null","","","critical","d","c","t","237.1485","162.6685","164","240","240","164","trueblood","0.02","w","240","164","164","240","237.1485","162.6685","39360","39360","38576.5967","dc","null","null","null","null","null","null","[1,2]","515.8423874166327","459.8845635723108","501.9618189736497"
"","canvas-keyboard-response","189","149761","0.0-6.0-1.26","574","","","","","clear_screen","null","null","","","critical","d","c","t","237.1485","162.6685","164","240","240","164","trueblood","0.02","w","240","164","164","240","237.1485","162.6685","39360","39360","38576.5967","dc","null","null","null","null","null","null","[1,2]","515.8423874166327","459.8845635723108","501.9618189736497"
"","canvas-keyboard-response","190","150272","0.0-6.0-2.26","574","","","","","rectangles no change","null","null","","","critical","d","c","t","237.1485","162.6685","164","240","240","164","trueblood","0.02","w","240","164","164","240","237.1485","162.6685","39360","39360","38576.5967","dc","null","null","null","null","null","null","[1,2]","515.8423874166327","459.8845635723108","501.9618189736497"
"","canvas-keyboard-response","191","151607","0.0-6.0-3.26","574","","","","","rectangles with change","null","null","","","critical","d","c","t","237.1485","162.6685","164","240","240","164","trueblood","0.02","w","240","164","164","240","237.1485","162.6685","39360","39360","38576.5967","dc","null","null","null","null","null","null","[1,2]","515.8423874166327","459.8845635723108","501.9618189736497"
"","canvas-keyboard-response","192","151625","0.0-6.0-4.26","574","","","","","clear_screen","null","null","","","critical","d","c","t","237.1485","162.6685","164","240","240","164","trueblood","0.02","w","240","164","164","240","237.1485","162.6685","39360","39360","38576.5967","dc","null","null","null","null","null","null","[1,2]","515.8423874166327","459.8845635723108","501.9618189736497"
"","canvas-keyboard-response","193","152514","0.0-6.0-5.26","574","","","","","make choice","876","1","","","critical","d","c","t","237.1485","162.6685","164","240","240","164","trueblood","0.02","w","240","164","164","240","237.1485","162.6685","39360","39360","38576.5967","dc","null","null","null","null","null","null","[1,2]","","",""
"","canvas-keyboard-response","194","152532","0.0-6.0-6.26","574","","","","","clear_screen","null","null","","","critical","d","c","t","237.1485","162.6685","164","240","240","164","trueblood","0.02","w","240","164","164","240","237.1485","162.6685","39360","39360","38576.5967","dc","null","null","null","null","null","null","[1,2]","","",""
"","canvas-keyboard-response","195","152733","0.0-6.0-0.27","574","","","","","pre trial waiting period","null","null","","","critical","t","c","d","164","240","240","164","164","240","trueblood","0","h","164","240","240","164","164","240","39360","39360","39360","tc","null","null","null","null","null","null","[1,2]","425.163118968611","512.1386845762987","464.95313025243723"
"","canvas-keyboard-response","196","152753","0.0-6.0-1.27","574","","","","","clear_screen","null","null","","","critical","t","c","d","164","240","240","164","164","240","trueblood","0","h","164","240","240","164","164","240","39360","39360","39360","tc","null","null","null","null","null","null","[1,2]","425.163118968611","512.1386845762987","464.95313025243723"
"","canvas-keyboard-response","197","153263","0.0-6.0-2.27","574","","","","","rectangles no change","null","null","","","critical","t","c","d","164","240","240","164","164","240","trueblood","0","h","164","240","240","164","164","240","39360","39360","39360","tc","null","null","null","null","null","null","[1,2]","425.163118968611","512.1386845762987","464.95313025243723"
"","canvas-keyboard-response","198","154597","0.0-6.0-3.27","574","","","","","rectangles with change","null","null","","","critical","t","c","d","164","240","240","164","164","240","trueblood","0","h","164","240","240","164","164","240","39360","39360","39360","tc","null","null","null","null","null","null","[1,2]","425.163118968611","512.1386845762987","464.95313025243723"
"","canvas-keyboard-response","199","154615","0.0-6.0-4.27","574","","","","","clear_screen","null","null","","","critical","t","c","d","164","240","240","164","164","240","trueblood","0","h","164","240","240","164","164","240","39360","39360","39360","tc","null","null","null","null","null","null","[1,2]","425.163118968611","512.1386845762987","464.95313025243723"
"","canvas-keyboard-response","200","154970","0.0-6.0-5.27","574","","","","","make choice","349","2","","","critical","t","c","d","164","240","240","164","164","240","trueblood","0","h","164","240","240","164","164","240","39360","39360","39360","tc","null","null","null","null","null","null","[1,2]","","",""
"","canvas-keyboard-response","201","154988","0.0-6.0-6.27","574","","","","","clear_screen","null","null","","","critical","t","c","d","164","240","240","164","164","240","trueblood","0","h","164","240","240","164","164","240","39360","39360","39360","tc","null","null","null","null","null","null","[1,2]","","",""
"","canvas-keyboard-response","202","155189","0.0-6.0-0.28","574","","","","","pre trial waiting period","null","null","","","catch","l","sw","sh","282","187","165","233","211","174","spektor","null","null","null","null","null","null","null","null","null","null","null","","180","200","260","200","36000","52000","[1,2]","497.51225986938687","120.65877992847842","521.9045261001299"
"","canvas-keyboard-response","203","155207","0.0-6.0-1.28","574","","","","","clear_screen","null","null","","","catch","l","sw","sh","282","187","165","233","211","174","spektor","null","null","null","null","null","null","null","null","null","null","null","","180","200","260","200","36000","52000","[1,2]","497.51225986938687","120.65877992847842","521.9045261001299"
"","canvas-keyboard-response","204","155720","0.0-6.0-2.28","574","","","","","rectangles no change","null","null","","","catch","l","sw","sh","282","187","165","233","211","174","spektor","null","null","null","null","null","null","null","null","null","null","null","","180","200","260","200","36000","52000","[1,2]","497.51225986938687","120.65877992847842","521.9045261001299"
"","canvas-keyboard-response","205","157055","0.0-6.0-3.28","574","","","","","rectangles with change","null","null","","","catch","l","sw","sh","282","187","165","233","211","174","spektor","null","null","null","null","null","null","null","null","null","null","null","","180","200","260","200","36000","52000","[1,2]","497.51225986938687","120.65877992847842","521.9045261001299"
"","canvas-keyboard-response","206","157078","0.0-6.0-4.28","574","","","","","clear_screen","null","null","","","catch","l","sw","sh","282","187","165","233","211","174","spektor","null","null","null","null","null","null","null","null","null","null","null","","180","200","260","200","36000","52000","[1,2]","497.51225986938687","120.65877992847842","521.9045261001299"
"","canvas-keyboard-response","207","157642","0.0-6.0-5.28","574","","","","","make choice","556","1","","","catch","l","sw","sh","282","187","165","233","211","174","spektor","null","null","null","null","null","null","null","null","null","null","null","","180","200","260","200","36000","52000","[1,2]","","",""
"","canvas-keyboard-response","208","157660","0.0-6.0-6.28","574","","","","","clear_screen","null","null","","","catch","l","sw","sh","282","187","165","233","211","174","spektor","null","null","null","null","null","null","null","null","null","null","null","","180","200","260","200","36000","52000","[1,2]","","",""
"","canvas-keyboard-response","209","157862","0.0-6.0-0.29","574","","","","","pre trial waiting period","null","null","","","critical","c","d","t","240","164","162.6685","237.1485","164","240","trueblood","0.02","h","164","240","240","164","162.6685","237.1485","39360","39360","38576.5967","dc","null","null","null","null","null","null","[2,1]","473.32993652893805","435.7594222177145","446.9964324670591"
"","canvas-keyboard-response","210","157881","0.0-6.0-1.29","574","","","","","clear_screen","null","null","","","critical","c","d","t","240","164","162.6685","237.1485","164","240","trueblood","0.02","h","164","240","240","164","162.6685","237.1485","39360","39360","38576.5967","dc","null","null","null","null","null","null","[2,1]","473.32993652893805","435.7594222177145","446.9964324670591"
"","canvas-keyboard-response","211","158390","0.0-6.0-2.29","574","","","","","rectangles no change","null","null","","","critical","c","d","t","240","164","162.6685","237.1485","164","240","trueblood","0.02","h","164","240","240","164","162.6685","237.1485","39360","39360","38576.5967","dc","null","null","null","null","null","null","[2,1]","473.32993652893805","435.7594222177145","446.9964324670591"
"","canvas-keyboard-response","212","159725","0.0-6.0-3.29","574","","","","","rectangles with change","null","null","","","critical","c","d","t","240","164","162.6685","237.1485","164","240","trueblood","0.02","h","164","240","240","164","162.6685","237.1485","39360","39360","38576.5967","dc","null","null","null","null","null","null","[2,1]","473.32993652893805","435.7594222177145","446.9964324670591"
"","canvas-keyboard-response","213","159743","0.0-6.0-4.29","574","","","","","clear_screen","null","null","","","critical","c","d","t","240","164","162.6685","237.1485","164","240","trueblood","0.02","h","164","240","240","164","162.6685","237.1485","39360","39360","38576.5967","dc","null","null","null","null","null","null","[2,1]","473.32993652893805","435.7594222177145","446.9964324670591"
"","canvas-keyboard-response","214","160217","0.0-6.0-5.29","574","","","","","make choice","467","1","","","critical","c","d","t","240","164","162.6685","237.1485","164","240","trueblood","0.02","h","164","240","240","164","162.6685","237.1485","39360","39360","38576.5967","dc","null","null","null","null","null","null","[2,1]","","",""
"","canvas-keyboard-response","215","160235","0.0-6.0-6.29","574","","","","","clear_screen","null","null","","","critical","c","d","t","240","164","162.6685","237.1485","164","240","trueblood","0.02","h","164","240","240","164","162.6685","237.1485","39360","39360","38576.5967","dc","null","null","null","null","null","null","[2,1]","","",""
"","canvas-keyboard-response","216","160437","0.0-6.0-0.30","574","","","","","pre trial waiting period","null","null","","","catch","sw","sh","l","180","200","210","141","231","195","spektor","null","null","null","null","null","null","null","null","null","null","null","","180","200","260","200","36000","52000","[1,3]","521.901069098484","215.92481192802734","525.8396659832514"
"","canvas-keyboard-response","217","160455","0.0-6.0-1.30","574","","","","","clear_screen","null","null","","","catch","sw","sh","l","180","200","210","141","231","195","spektor","null","null","null","null","null","null","null","null","null","null","null","","180","200","260","200","36000","52000","[1,3]","521.901069098484","215.92481192802734","525.8396659832514"
"","canvas-keyboard-response","218","160965","0.0-6.0-2.30","574","","","","","rectangles no change","null","null","","","catch","sw","sh","l","180","200","210","141","231","195","spektor","null","null","null","null","null","null","null","null","null","null","null","","180","200","260","200","36000","52000","[1,3]","521.901069098484","215.92481192802734","525.8396659832514"
"","canvas-keyboard-response","219","162301","0.0-6.0-3.30","574","","","","","rectangles with change","null","null","","","catch","sw","sh","l","180","200","210","141","231","195","spektor","null","null","null","null","null","null","null","null","null","null","null","","180","200","260","200","36000","52000","[1,3]","521.901069098484","215.92481192802734","525.8396659832514"
"","canvas-keyboard-response","220","162319","0.0-6.0-4.30","574","","","","","clear_screen","null","null","","","catch","sw","sh","l","180","200","210","141","231","195","spektor","null","null","null","null","null","null","null","null","null","null","null","","180","200","260","200","36000","52000","[1,3]","521.901069098484","215.92481192802734","525.8396659832514"
"","canvas-keyboard-response","221","162674","0.0-6.0-5.30","574","","","","","make choice","348","3","","","catch","sw","sh","l","180","200","210","141","231","195","spektor","null","null","null","null","null","null","null","null","null","null","null","","180","200","260","200","36000","52000","[1,3]","","",""
"","canvas-keyboard-response","222","162694","0.0-6.0-6.30","574","","","","","clear_screen","null","null","","","catch","sw","sh","l","180","200","210","141","231","195","spektor","null","null","null","null","null","null","null","null","null","null","null","","180","200","260","200","36000","52000","[1,3]","","",""
"","canvas-keyboard-response","223","162894","0.0-6.0-0.31","574","","","","","pre trial waiting period","null","null","","","critical","d","t","c","154.6796","220.0396","164","240","240","164","trueblood","0.14","h","164","240","240","164","154.6796","220.0396","39360","39360","34035.6388","dc","null","null","null","null","null","null","[1,3]","443.1174656537737","460.54357594197336","491.13307143699956"
"","canvas-keyboard-response","224","162912","0.0-6.0-1.31","574","","","","","clear_screen","null","null","","","critical","d","t","c","154.6796","220.0396","164","240","240","164","trueblood","0.14","h","164","240","240","164","154.6796","220.0396","39360","39360","34035.6388","dc","null","null","null","null","null","null","[1,3]","443.1174656537737","460.54357594197336","491.13307143699956"
"","canvas-keyboard-response","225","163423","0.0-6.0-2.31","574","","","","","rectangles no change","null","null","","","critical","d","t","c","154.6796","220.0396","164","240","240","164","trueblood","0.14","h","164","240","240","164","154.6796","220.0396","39360","39360","34035.6388","dc","null","null","null","null","null","null","[1,3]","443.1174656537737","460.54357594197336","491.13307143699956"
"","canvas-keyboard-response","226","164757","0.0-6.0-3.31","574","","","","","rectangles with change","null","null","","","critical","d","t","c","154.6796","220.0396","164","240","240","164","trueblood","0.14","h","164","240","240","164","154.6796","220.0396","39360","39360","34035.6388","dc","null","null","null","null","null","null","[1,3]","443.1174656537737","460.54357594197336","491.13307143699956"
"","canvas-keyboard-response","227","164774","0.0-6.0-4.31","574","","","","","clear_screen","null","null","","","critical","d","t","c","154.6796","220.0396","164","240","240","164","trueblood","0.14","h","164","240","240","164","154.6796","220.0396","39360","39360","34035.6388","dc","null","null","null","null","null","null","[1,3]","443.1174656537737","460.54357594197336","491.13307143699956"
"","canvas-keyboard-response","228","165074","0.0-6.0-5.31","574","","","","","make choice","292","3","","","critical","d","t","c","154.6796","220.0396","164","240","240","164","trueblood","0.14","h","164","240","240","164","154.6796","220.0396","39360","39360","34035.6388","dc","null","null","null","null","null","null","[1,3]","","",""
"","canvas-keyboard-response","229","165091","0.0-6.0-6.31","574","","","","","clear_screen","null","null","","","critical","d","t","c","154.6796","220.0396","164","240","240","164","trueblood","0.14","h","164","240","240","164","154.6796","220.0396","39360","39360","34035.6388","dc","null","null","null","null","null","null","[1,3]","","",""
"","canvas-keyboard-response","230","165294","0.0-6.0-0.32","574","","","","","pre trial waiting period","null","null","","","catch","sh","sw","l","189","143","207","180","238","288","trueblood","null","null","null","null","null","null","null","null","null","null","null","","180","200","260","200","36000","52000","[2,3]","517.9165118188591","477.98696322252613","420.45216742483194"
"","canvas-keyboard-response","231","165311","0.0-6.0-1.32","574","","","","","clear_screen","null","null","","","catch","sh","sw","l","189","143","207","180","238","288","trueblood","null","null","null","null","null","null","null","null","null","null","null","","180","200","260","200","36000","52000","[2,3]","517.9165118188591","477.98696322252613","420.45216742483194"
"","canvas-keyboard-response","232","165829","0.0-6.0-2.32","574","","","","","rectangles no change","null","null","","","catch","sh","sw","l","189","143","207","180","238","288","trueblood","null","null","null","null","null","null","null","null","null","null","null","","180","200","260","200","36000","52000","[2,3]","517.9165118188591","477.98696322252613","420.45216742483194"
"","canvas-keyboard-response","233","167164","0.0-6.0-3.32","574","","","","","rectangles with change","null","null","","","catch","sh","sw","l","189","143","207","180","238","288","trueblood","null","null","null","null","null","null","null","null","null","null","null","","180","200","260","200","36000","52000","[2,3]","517.9165118188591","477.98696322252613","420.45216742483194"
"","canvas-keyboard-response","234","167181","0.0-6.0-4.32","574","","","","","clear_screen","null","null","","","catch","sh","sw","l","189","143","207","180","238","288","trueblood","null","null","null","null","null","null","null","null","null","null","null","","180","200","260","200","36000","52000","[2,3]","517.9165118188591","477.98696322252613","420.45216742483194"
"","canvas-keyboard-response","235","167507","0.0-6.0-5.32","574","","","","","make choice","318","3","","","catch","sh","sw","l","189","143","207","180","238","288","trueblood","null","null","null","null","null","null","null","null","null","null","null","","180","200","260","200","36000","52000","[2,3]","","",""
"","canvas-keyboard-response","236","167524","0.0-6.0-6.32","574","","","","","clear_screen","null","null","","","catch","sh","sw","l","189","143","207","180","238","288","trueblood","null","null","null","null","null","null","null","null","null","null","null","","180","200","260","200","36000","52000","[2,3]","","",""
"","canvas-keyboard-response","237","167725","0.0-6.0-0.33","574","","","","","pre trial waiting period","null","null","","","catch","l","sh","sw","254","239","169","218","206","205","trueblood","null","null","null","null","null","null","null","null","null","null","null","","180","200","260","200","36000","52000","[1,3]","459.4908411901942","479.26135549876636","455.75932963349885"
"","canvas-keyboard-response","238","167743","0.0-6.0-1.33","574","","","","","clear_screen","null","null","","","catch","l","sh","sw","254","239","169","218","206","205","trueblood","null","null","null","null","null","null","null","null","null","null","null","","180","200","260","200","36000","52000","[1,3]","459.4908411901942","479.26135549876636","455.75932963349885"
"","canvas-keyboard-response","239","168254","0.0-6.0-2.33","574","","","","","rectangles no change","null","null","","","catch","l","sh","sw","254","239","169","218","206","205","trueblood","null","null","null","null","null","null","null","null","null","null","null","","180","200","260","200","36000","52000","[1,3]","459.4908411901942","479.26135549876636","455.75932963349885"
"","canvas-keyboard-response","240","169589","0.0-6.0-3.33","574","","","","","rectangles with change","null","null","","","catch","l","sh","sw","254","239","169","218","206","205","trueblood","null","null","null","null","null","null","null","null","null","null","null","","180","200","260","200","36000","52000","[1,3]","459.4908411901942","479.26135549876636","455.75932963349885"
"","canvas-keyboard-response","241","169611","0.0-6.0-4.33","574","","","","","clear_screen","null","null","","","catch","l","sh","sw","254","239","169","218","206","205","trueblood","null","null","null","null","null","null","null","null","null","null","null","","180","200","260","200","36000","52000","[1,3]","459.4908411901942","479.26135549876636","455.75932963349885"
"","canvas-keyboard-response","242","169970","0.0-6.0-5.33","574","","","","","make choice","349","1","","","catch","l","sh","sw","254","239","169","218","206","205","trueblood","null","null","null","null","null","null","null","null","null","null","null","","180","200","260","200","36000","52000","[1,3]","","",""
"","canvas-keyboard-response","243","169989","0.0-6.0-6.33","574","","","","","clear_screen","null","null","","","catch","l","sh","sw","254","239","169","218","206","205","trueblood","null","null","null","null","null","null","null","null","null","null","null","","180","200","260","200","36000","52000","[1,3]","","",""
"","canvas-keyboard-response","244","170190","0.0-6.0-0.34","574","","","","","pre trial waiting period","null","null","","","critical","t","c","d","240","164","164","240","227.1683","158.0083","trueblood","0.09","w","240","164","164","240","227.1683","158.0083","39360","39360","35894.4834","td","null","null","null","null","null","null","[1,3]","482.2930415403774","438.6533377251688","513.4245200576378"
"","canvas-keyboard-response","245","170211","0.0-6.0-1.34","574","","","","","clear_screen","null","null","","","critical","t","c","d","240","164","164","240","227.1683","158.0083","trueblood","0.09","w","240","164","164","240","227.1683","158.0083","39360","39360","35894.4834","td","null","null","null","null","null","null","[1,3]","482.2930415403774","438.6533377251688","513.4245200576378"
"","canvas-keyboard-response","246","170723","0.0-6.0-2.34","574","","","","","rectangles no change","null","null","","","critical","t","c","d","240","164","164","240","227.1683","158.0083","trueblood","0.09","w","240","164","164","240","227.1683","158.0083","39360","39360","35894.4834","td","null","null","null","null","null","null","[1,3]","482.2930415403774","438.6533377251688","513.4245200576378"
"","canvas-keyboard-response","247","172059","0.0-6.0-3.34","574","","","","","rectangles with change","null","null","","","critical","t","c","d","240","164","164","240","227.1683","158.0083","trueblood","0.09","w","240","164","164","240","227.1683","158.0083","39360","39360","35894.4834","td","null","null","null","null","null","null","[1,3]","482.2930415403774","438.6533377251688","513.4245200576378"
"","canvas-keyboard-response","248","172078","0.0-6.0-4.34","574","","","","","clear_screen","null","null","","","critical","t","c","d","240","164","164","240","227.1683","158.0083","trueblood","0.09","w","240","164","164","240","227.1683","158.0083","39360","39360","35894.4834","td","null","null","null","null","null","null","[1,3]","482.2930415403774","438.6533377251688","513.4245200576378"
"","canvas-keyboard-response","249","172474","0.0-6.0-5.34","574","","","","","make choice","389","1","","","critical","t","c","d","240","164","164","240","227.1683","158.0083","trueblood","0.09","w","240","164","164","240","227.1683","158.0083","39360","39360","35894.4834","td","null","null","null","null","null","null","[1,3]","","",""
"","canvas-keyboard-response","250","172493","0.0-6.0-6.34","574","","","","","clear_screen","null","null","","","critical","t","c","d","240","164","164","240","227.1683","158.0083","trueblood","0.09","w","240","164","164","240","227.1683","158.0083","39360","39360","35894.4834","td","null","null","null","null","null","null","[1,3]","","",""
"","canvas-keyboard-response","251","172696","0.0-6.0-0.35","574","","","","","pre trial waiting period","null","null","","","critical","c","t","d","164","240","240","164","227.1683","158.0083","trueblood","0.09","w","240","164","164","240","227.1683","158.0083","39360","39360","35894.4834","dc","null","null","null","null","null","null","[3,1]","456.292763622721","516.0906008866801","501.3532306649889"
"","canvas-keyboard-response","252","172715","0.0-6.0-1.35","574","","","","","clear_screen","null","null","","","critical","c","t","d","164","240","240","164","227.1683","158.0083","trueblood","0.09","w","240","164","164","240","227.1683","158.0083","39360","39360","35894.4834","dc","null","null","null","null","null","null","[3,1]","456.292763622721","516.0906008866801","501.3532306649889"
"","canvas-keyboard-response","253","173229","0.0-6.0-2.35","574","","","","","rectangles no change","null","null","","","critical","c","t","d","164","240","240","164","227.1683","158.0083","trueblood","0.09","w","240","164","164","240","227.1683","158.0083","39360","39360","35894.4834","dc","null","null","null","null","null","null","[3,1]","456.292763622721","516.0906008866801","501.3532306649889"
"","canvas-keyboard-response","254","174564","0.0-6.0-3.35","574","","","","","rectangles with change","null","null","","","critical","c","t","d","164","240","240","164","227.1683","158.0083","trueblood","0.09","w","240","164","164","240","227.1683","158.0083","39360","39360","35894.4834","dc","null","null","null","null","null","null","[3,1]","456.292763622721","516.0906008866801","501.3532306649889"
"","canvas-keyboard-response","255","174582","0.0-6.0-4.35","574","","","","","clear_screen","null","null","","","critical","c","t","d","164","240","240","164","227.1683","158.0083","trueblood","0.09","w","240","164","164","240","227.1683","158.0083","39360","39360","35894.4834","dc","null","null","null","null","null","null","[3,1]","456.292763622721","516.0906008866801","501.3532306649889"
"","canvas-keyboard-response","256","175378","0.0-6.0-5.35","574","","","","","make choice","790","3","","","critical","c","t","d","164","240","240","164","227.1683","158.0083","trueblood","0.09","w","240","164","164","240","227.1683","158.0083","39360","39360","35894.4834","dc","null","null","null","null","null","null","[3,1]","","",""
"","canvas-keyboard-response","257","175396","0.0-6.0-6.35","574","","","","","clear_screen","null","null","","","critical","c","t","d","164","240","240","164","227.1683","158.0083","trueblood","0.09","w","240","164","164","240","227.1683","158.0083","39360","39360","35894.4834","dc","null","null","null","null","null","null","[3,1]","","",""
"","canvas-keyboard-response","258","175597","0.0-6.0-0.36","574","","","","","pre trial waiting period","null","null","","","catch","sh","sw","l","183","167","156","204","253","212","spektor","null","null","null","null","null","null","null","null","null","null","null","","180","200","260","200","36000","52000","[2,3]","517.3380808089178","172.54800318085992","472.5213579718887"
"","canvas-keyboard-response","259","175616","0.0-6.0-1.36","574","","","","","clear_screen","null","null","","","catch","sh","sw","l","183","167","156","204","253","212","spektor","null","null","null","null","null","null","null","null","null","null","null","","180","200","260","200","36000","52000","[2,3]","517.3380808089178","172.54800318085992","472.5213579718887"
"","canvas-keyboard-response","260","176127","0.0-6.0-2.36","574","","","","","rectangles no change","null","null","","","catch","sh","sw","l","183","167","156","204","253","212","spektor","null","null","null","null","null","null","null","null","null","null","null","","180","200","260","200","36000","52000","[2,3]","517.3380808089178","172.54800318085992","472.5213579718887"
"","canvas-keyboard-response","261","177462","0.0-6.0-3.36","574","","","","","rectangles with change","null","null","","","catch","sh","sw","l","183","167","156","204","253","212","spektor","null","null","null","null","null","null","null","null","null","null","null","","180","200","260","200","36000","52000","[2,3]","517.3380808089178","172.54800318085992","472.5213579718887"
"","canvas-keyboard-response","262","177480","0.0-6.0-4.36","574","","","","","clear_screen","null","null","","","catch","sh","sw","l","183","167","156","204","253","212","spektor","null","null","null","null","null","null","null","null","null","null","null","","180","200","260","200","36000","52000","[2,3]","517.3380808089178","172.54800318085992","472.5213579718887"
"","canvas-keyboard-response","263","178018","0.0-6.0-5.36","574","","","","","make choice","530","3","","","catch","sh","sw","l","183","167","156","204","253","212","spektor","null","null","null","null","null","null","null","null","null","null","null","","180","200","260","200","36000","52000","[2,3]","","",""
"","canvas-keyboard-response","264","178036","0.0-6.0-6.36","574","","","","","clear_screen","null","null","","","catch","sh","sw","l","183","167","156","204","253","212","spektor","null","null","null","null","null","null","null","null","null","null","null","","180","200","260","200","36000","52000","[2,3]","","",""
"","canvas-keyboard-response","265","178237","0.0-6.0-0.37","574","","","","","pre trial waiting period","null","null","","","critical","t","c","d","164","240","240","164","160.6713","232.8713","trueblood","0.05","h","164","240","240","164","160.6713","232.8713","39360","39360","37415.7294","tc","null","null","null","null","null","null","[1,2]","462.4962797939644","491.0838032972682","435.34737425872436"
"","canvas-keyboard-response","266","178256","0.0-6.0-1.37","574","","","","","clear_screen","null","null","","","critical","t","c","d","164","240","240","164","160.6713","232.8713","trueblood","0.05","h","164","240","240","164","160.6713","232.8713","39360","39360","37415.7294","tc","null","null","null","null","null","null","[1,2]","462.4962797939644","491.0838032972682","435.34737425872436"
