"success","trial_type","trial_index","time_elapsed","internal_node_id","sub_n","timeout","failed_images","failed_audio","failed_video","screen_id","rt","response","stimulus","view_history","trial","r1","r2","r3","w1","h1","w2","h2","w3","h3","display","tdd","tdo","tw","th","cw","ch","dw","dh","ta","ca","da","probe","csls","csss","clls","clss","sa","la","probe_rects","r1yloc","r2yloc","r3yloc"
"true","fullscreen","0","1899","0.0-0.0","583","","","","","","","","","","","","","","","","","","","","","","","","","","","","","","","","","","","","","","","","","",""
"true","preload","1","2011","0.0-1.0","583","false","[]","[]","[]","img preload","","","","","","","","","","","","","","","","","","","","","","","","","","","","","","","","","","","","",""
"","survey-html-form","2","5527","0.0-2.0","583","","","","","enter-sub-number","3501","{""response"":""583""}","","","","","","","","","","","","","","","","","","","","","","","","","","","","","","","","","","",""
"","image-button-response","3","135276","0.0-3.0","583","","","","","","129642","0","consent.png","","","","","","","","","","","","","","","","","","","","","","","","","","","","","","","","","",""
"","html-button-response","4","143683","0.0-4.0","583","","","","","intro mssg","8402","0","<div style= ""font-size:25px;"" <p> <strong> Welcome! </strong><br> <p style=""color:#8B0000; font-size:25px;""><strong> Please do NOT exit full screen until you are done with the experiment. </strong> </p><p style=""font-size:25px;color:#8B0000;""> <strong> Your data will be lost <br> if you try to go back or refresh the page after the experiment starts. Feel free to click ""previous"" during the instructions, however.</strong> </p><br><p> <strong> Thanks in advance for your contribution to our research! </strong></p>","","","","","","","","","","","","","","","","","","","","","","","","","","","","","","","","","",""
"","instructions","5","182916","0.0-5.0","583","","","","","instructions","39228","","","[{""page_index"":0,""viewing_time"":4732},{""page_index"":1,""viewing_time"":4552},{""page_index"":2,""viewing_time"":2944},{""page_index"":3,""viewing_time"":18561},{""page_index"":4,""viewing_time"":4102},{""page_index"":5,""viewing_time"":1633},{""page_index"":6,""viewing_time"":1687},{""page_index"":7,""viewing_time"":1017}]","","","","","","","","","","","","","","","","","","","","","","","","","","","","","","","","",""
"","canvas-keyboard-response","6","183119","0.0-6.0-0.0","583","","","","","pre trial waiting period","null","null","","","critical","d","t","c","160.6713","232.8713","164","240","240","164","trueblood","0.05","h","164","240","240","164","160.6713","232.8713","39360","39360","37415.7294","dc","null","null","null","null","null","null","[1,3]","473.2683450688197","466.0459204249326","502.8550685420975"
"","canvas-keyboard-response","7","183142","0.0-6.0-1.0","583","","","","","clear_screen","null","null","","","critical","d","t","c","160.6713","232.8713","164","240","240","164","trueblood","0.05","h","164","240","240","164","160.6713","232.8713","39360","39360","37415.7294","dc","null","null","null","null","null","null","[1,3]","473.2683450688197","466.0459204249326","502.8550685420975"
"","canvas-keyboard-response","8","183657","0.0-6.0-2.0","583","","","","","rectangles no change","null","null","","","critical","d","t","c","160.6713","232.8713","164","240","240","164","trueblood","0.05","h","164","240","240","164","160.6713","232.8713","39360","39360","37415.7294","dc","null","null","null","null","null","null","[1,3]","473.2683450688197","466.0459204249326","502.8550685420975"
"","canvas-keyboard-response","9","184994","0.0-6.0-3.0","583","","","","","rectangles with change","null","null","","","critical","d","t","c","160.6713","232.8713","164","240","240","164","trueblood","0.05","h","164","240","240","164","160.6713","232.8713","39360","39360","37415.7294","dc","null","null","null","null","null","null","[1,3]","473.2683450688197","466.0459204249326","502.8550685420975"
"","canvas-keyboard-response","10","185013","0.0-6.0-4.0","583","","","","","clear_screen","null","null","","","critical","d","t","c","160.6713","232.8713","164","240","240","164","trueblood","0.05","h","164","240","240","164","160.6713","232.8713","39360","39360","37415.7294","dc","null","null","null","null","null","null","[1,3]","473.2683450688197","466.0459204249326","502.8550685420975"
"","canvas-keyboard-response","11","187903","0.0-6.0-5.0","583","","","","","make choice","2879","3","","","critical","d","t","c","160.6713","232.8713","164","240","240","164","trueblood","0.05","h","164","240","240","164","160.6713","232.8713","39360","39360","37415.7294","dc","null","null","null","null","null","null","[1,3]","","",""
"","canvas-keyboard-response","12","187922","0.0-6.0-6.0","583","","","","","clear_screen","null","null","","","critical","d","t","c","160.6713","232.8713","164","240","240","164","trueblood","0.05","h","164","240","240","164","160.6713","232.8713","39360","39360","37415.7294","dc","null","null","null","null","null","null","[1,3]","","",""
"","canvas-keyboard-response","13","188123","0.0-6.0-0.1","583","","","","","pre trial waiting period","null","null","","","critical","t","d","c","164","240","154.6796","220.0396","240","164","trueblood","0.14","h","164","240","240","164","154.6796","220.0396","39360","39360","34035.6388","dc","null","null","null","null","null","null","[2,3]","434.28047842073767","457.35785948144905","511.00840477739973"
"","canvas-keyboard-response","14","188142","0.0-6.0-1.1","583","","","","","clear_screen","null","null","","","critical","t","d","c","164","240","154.6796","220.0396","240","164","trueblood","0.14","h","164","240","240","164","154.6796","220.0396","39360","39360","34035.6388","dc","null","null","null","null","null","null","[2,3]","434.28047842073767","457.35785948144905","511.00840477739973"
"","canvas-keyboard-response","15","188652","0.0-6.0-2.1","583","","","","","rectangles no change","null","null","","","critical","t","d","c","164","240","154.6796","220.0396","240","164","trueblood","0.14","h","164","240","240","164","154.6796","220.0396","39360","39360","34035.6388","dc","null","null","null","null","null","null","[2,3]","434.28047842073767","457.35785948144905","511.00840477739973"
"","canvas-keyboard-response","16","189987","0.0-6.0-3.1","583","","","","","rectangles with change","null","null","","","critical","t","d","c","164","240","154.6796","220.0396","240","164","trueblood","0.14","h","164","240","240","164","154.6796","220.0396","39360","39360","34035.6388","dc","null","null","null","null","null","null","[2,3]","434.28047842073767","457.35785948144905","511.00840477739973"
"","canvas-keyboard-response","17","190011","0.0-6.0-4.1","583","","","","","clear_screen","null","null","","","critical","t","d","c","164","240","154.6796","220.0396","240","164","trueblood","0.14","h","164","240","240","164","154.6796","220.0396","39360","39360","34035.6388","dc","null","null","null","null","null","null","[2,3]","434.28047842073767","457.35785948144905","511.00840477739973"
"","canvas-keyboard-response","18","190727","0.0-6.0-5.1","583","","","","","make choice","707","3","","","critical","t","d","c","164","240","154.6796","220.0396","240","164","trueblood","0.14","h","164","240","240","164","154.6796","220.0396","39360","39360","34035.6388","dc","null","null","null","null","null","null","[2,3]","","",""
"","canvas-keyboard-response","19","190745","0.0-6.0-6.1","583","","","","","clear_screen","null","null","","","critical","t","d","c","164","240","154.6796","220.0396","240","164","trueblood","0.14","h","164","240","240","164","154.6796","220.0396","39360","39360","34035.6388","dc","null","null","null","null","null","null","[2,3]","","",""
"","canvas-keyboard-response","20","190947","0.0-6.0-0.2","583","","","","","pre trial waiting period","null","null","","","critical","t","d","c","240","164","240","164","164","240","trueblood","0","w","240","164","164","240","240","164","39360","39360","39360","td","null","null","null","null","null","null","[1,2]","471.8861949545363","510.91798142351394","421.1686841815871"
"","canvas-keyboard-response","21","190966","0.0-6.0-1.2","583","","","","","clear_screen","null","null","","","critical","t","d","c","240","164","240","164","164","240","trueblood","0","w","240","164","164","240","240","164","39360","39360","39360","td","null","null","null","null","null","null","[1,2]","471.8861949545363","510.91798142351394","421.1686841815871"
"","canvas-keyboard-response","22","191477","0.0-6.0-2.2","583","","","","","rectangles no change","null","null","","","critical","t","d","c","240","164","240","164","164","240","trueblood","0","w","240","164","164","240","240","164","39360","39360","39360","td","null","null","null","null","null","null","[1,2]","471.8861949545363","510.91798142351394","421.1686841815871"
"","canvas-keyboard-response","23","192811","0.0-6.0-3.2","583","","","","","rectangles with change","null","null","","","critical","t","d","c","240","164","240","164","164","240","trueblood","0","w","240","164","164","240","240","164","39360","39360","39360","td","null","null","null","null","null","null","[1,2]","471.8861949545363","510.91798142351394","421.1686841815871"
"","canvas-keyboard-response","24","192829","0.0-6.0-4.2","583","","","","","clear_screen","null","null","","","critical","t","d","c","240","164","240","164","164","240","trueblood","0","w","240","164","164","240","240","164","39360","39360","39360","td","null","null","null","null","null","null","[1,2]","471.8861949545363","510.91798142351394","421.1686841815871"
"","canvas-keyboard-response","25","193287","0.0-6.0-5.2","583","","","","","make choice","449","2","","","critical","t","d","c","240","164","240","164","164","240","trueblood","0","w","240","164","164","240","240","164","39360","39360","39360","td","null","null","null","null","null","null","[1,2]","","",""
"","canvas-keyboard-response","26","193305","0.0-6.0-6.2","583","","","","","clear_screen","null","null","","","critical","t","d","c","240","164","240","164","164","240","trueblood","0","w","240","164","164","240","240","164","39360","39360","39360","td","null","null","null","null","null","null","[1,2]","","",""
"","canvas-keyboard-response","27","193506","0.0-6.0-0.3","583","","","","","pre trial waiting period","null","null","","","critical","t","c","d","240","164","164","240","227.1683","158.0083","trueblood","0.09","w","240","164","164","240","227.1683","158.0083","39360","39360","35894.4834","dc","null","null","null","null","null","null","[3,2]","499.6951427535109","439.91170565794675","487.3290846128161"
"","canvas-keyboard-response","28","193525","0.0-6.0-1.3","583","","","","","clear_screen","null","null","","","critical","t","c","d","240","164","164","240","227.1683","158.0083","trueblood","0.09","w","240","164","164","240","227.1683","158.0083","39360","39360","35894.4834","dc","null","null","null","null","null","null","[3,2]","499.6951427535109","439.91170565794675","487.3290846128161"
"","canvas-keyboard-response","29","194036","0.0-6.0-2.3","583","","","","","rectangles no change","null","null","","","critical","t","c","d","240","164","164","240","227.1683","158.0083","trueblood","0.09","w","240","164","164","240","227.1683","158.0083","39360","39360","35894.4834","dc","null","null","null","null","null","null","[3,2]","499.6951427535109","439.91170565794675","487.3290846128161"
"","canvas-keyboard-response","30","195370","0.0-6.0-3.3","583","","","","","rectangles with change","null","null","","","critical","t","c","d","240","164","164","240","227.1683","158.0083","trueblood","0.09","w","240","164","164","240","227.1683","158.0083","39360","39360","35894.4834","dc","null","null","null","null","null","null","[3,2]","499.6951427535109","439.91170565794675","487.3290846128161"
"","canvas-keyboard-response","31","195388","0.0-6.0-4.3","583","","","","","clear_screen","null","null","","","critical","t","c","d","240","164","164","240","227.1683","158.0083","trueblood","0.09","w","240","164","164","240","227.1683","158.0083","39360","39360","35894.4834","dc","null","null","null","null","null","null","[3,2]","499.6951427535109","439.91170565794675","487.3290846128161"
"","canvas-keyboard-response","32","195911","0.0-6.0-5.3","583","","","","","make choice","514","3","","","critical","t","c","d","240","164","164","240","227.1683","158.0083","trueblood","0.09","w","240","164","164","240","227.1683","158.0083","39360","39360","35894.4834","dc","null","null","null","null","null","null","[3,2]","","",""
"","canvas-keyboard-response","33","195928","0.0-6.0-6.3","583","","","","","clear_screen","null","null","","","critical","t","c","d","240","164","164","240","227.1683","158.0083","trueblood","0.09","w","240","164","164","240","227.1683","158.0083","39360","39360","35894.4834","dc","null","null","null","null","null","null","[3,2]","","",""
"","canvas-keyboard-response","34","196130","0.0-6.0-0.4","583","","","","","pre trial waiting period","null","null","","","critical","c","t","d","240","164","164","240","162.6685","237.1485","spektor","0.02","h","164","240","240","164","162.6685","237.1485","39360","39360","38576.5967","td","null","null","null","null","null","null","[2,3]","527.8786437836452","133.8816638062775","484.23268109210693"
"","canvas-keyboard-response","35","196149","0.0-6.0-1.4","583","","","","","clear_screen","null","null","","","critical","c","t","d","240","164","164","240","162.6685","237.1485","spektor","0.02","h","164","240","240","164","162.6685","237.1485","39360","39360","38576.5967","td","null","null","null","null","null","null","[2,3]","527.8786437836452","133.8816638062775","484.23268109210693"
"","canvas-keyboard-response","36","196661","0.0-6.0-2.4","583","","","","","rectangles no change","null","null","","","critical","c","t","d","240","164","164","240","162.6685","237.1485","spektor","0.02","h","164","240","240","164","162.6685","237.1485","39360","39360","38576.5967","td","null","null","null","null","null","null","[2,3]","527.8786437836452","133.8816638062775","484.23268109210693"
"","canvas-keyboard-response","37","197997","0.0-6.0-3.4","583","","","","","rectangles with change","null","null","","","critical","c","t","d","240","164","164","240","162.6685","237.1485","spektor","0.02","h","164","240","240","164","162.6685","237.1485","39360","39360","38576.5967","td","null","null","null","null","null","null","[2,3]","527.8786437836452","133.8816638062775","484.23268109210693"
"","canvas-keyboard-response","38","198014","0.0-6.0-4.4","583","","","","","clear_screen","null","null","","","critical","c","t","d","240","164","164","240","162.6685","237.1485","spektor","0.02","h","164","240","240","164","162.6685","237.1485","39360","39360","38576.5967","td","null","null","null","null","null","null","[2,3]","527.8786437836452","133.8816638062775","484.23268109210693"
"","canvas-keyboard-response","39","199111","0.0-6.0-5.4","583","","","","","make choice","1084","3","","","critical","c","t","d","240","164","164","240","162.6685","237.1485","spektor","0.02","h","164","240","240","164","162.6685","237.1485","39360","39360","38576.5967","td","null","null","null","null","null","null","[2,3]","","",""
"","canvas-keyboard-response","40","199129","0.0-6.0-6.4","583","","","","","clear_screen","null","null","","","critical","c","t","d","240","164","164","240","162.6685","237.1485","spektor","0.02","h","164","240","240","164","162.6685","237.1485","39360","39360","38576.5967","td","null","null","null","null","null","null","[2,3]","","",""
"","canvas-keyboard-response","41","199332","0.0-6.0-0.5","583","","","","","pre trial waiting period","null","null","","","catch","sh","sw","l","173","168","201","217","213","243","spektor","null","null","null","null","null","null","null","null","null","null","null","","180","200","260","200","36000","52000","[1,3]","532.212186880656","158.39362918421463","475.9168259357498"
"","canvas-keyboard-response","42","199351","0.0-6.0-1.5","583","","","","","clear_screen","null","null","","","catch","sh","sw","l","173","168","201","217","213","243","spektor","null","null","null","null","null","null","null","null","null","null","null","","180","200","260","200","36000","52000","[1,3]","532.212186880656","158.39362918421463","475.9168259357498"
"","canvas-keyboard-response","43","199860","0.0-6.0-2.5","583","","","","","rectangles no change","null","null","","","catch","sh","sw","l","173","168","201","217","213","243","spektor","null","null","null","null","null","null","null","null","null","null","null","","180","200","260","200","36000","52000","[1,3]","532.212186880656","158.39362918421463","475.9168259357498"
"","canvas-keyboard-response","44","201195","0.0-6.0-3.5","583","","","","","rectangles with change","null","null","","","catch","sh","sw","l","173","168","201","217","213","243","spektor","null","null","null","null","null","null","null","null","null","null","null","","180","200","260","200","36000","52000","[1,3]","532.212186880656","158.39362918421463","475.9168259357498"
"","canvas-keyboard-response","45","201213","0.0-6.0-4.5","583","","","","","clear_screen","null","null","","","catch","sh","sw","l","173","168","201","217","213","243","spektor","null","null","null","null","null","null","null","null","null","null","null","","180","200","260","200","36000","52000","[1,3]","532.212186880656","158.39362918421463","475.9168259357498"
"","canvas-keyboard-response","46","201742","0.0-6.0-5.5","583","","","","","make choice","522","3","","","catch","sh","sw","l","173","168","201","217","213","243","spektor","null","null","null","null","null","null","null","null","null","null","null","","180","200","260","200","36000","52000","[1,3]","","",""
"","canvas-keyboard-response","47","201761","0.0-6.0-6.5","583","","","","","clear_screen","null","null","","","catch","sh","sw","l","173","168","201","217","213","243","spektor","null","null","null","null","null","null","null","null","null","null","null","","180","200","260","200","36000","52000","[1,3]","","",""
"","canvas-keyboard-response","48","201962","0.0-6.0-0.6","583","","","","","pre trial waiting period","null","null","","","critical","c","t","d","164","240","240","164","237.1485","162.6685","trueblood","0.02","w","240","164","164","240","237.1485","162.6685","39360","39360","38576.5967","dc","null","null","null","null","null","null","[3,1]","448.4462103743788","476.96581834184434","513.0945819754065"
"","canvas-keyboard-response","49","201980","0.0-6.0-1.6","583","","","","","clear_screen","null","null","","","critical","c","t","d","164","240","240","164","237.1485","162.6685","trueblood","0.02","w","240","164","164","240","237.1485","162.6685","39360","39360","38576.5967","dc","null","null","null","null","null","null","[3,1]","448.4462103743788","476.96581834184434","513.0945819754065"
"","canvas-keyboard-response","50","202491","0.0-6.0-2.6","583","","","","","rectangles no change","null","null","","","critical","c","t","d","164","240","240","164","237.1485","162.6685","trueblood","0.02","w","240","164","164","240","237.1485","162.6685","39360","39360","38576.5967","dc","null","null","null","null","null","null","[3,1]","448.4462103743788","476.96581834184434","513.0945819754065"
"","canvas-keyboard-response","51","203825","0.0-6.0-3.6","583","","","","","rectangles with change","null","null","","","critical","c","t","d","164","240","240","164","237.1485","162.6685","trueblood","0.02","w","240","164","164","240","237.1485","162.6685","39360","39360","38576.5967","dc","null","null","null","null","null","null","[3,1]","448.4462103743788","476.96581834184434","513.0945819754065"
"","canvas-keyboard-response","52","203845","0.0-6.0-4.6","583","","","","","clear_screen","null","null","","","critical","c","t","d","164","240","240","164","237.1485","162.6685","trueblood","0.02","w","240","164","164","240","237.1485","162.6685","39360","39360","38576.5967","dc","null","null","null","null","null","null","[3,1]","448.4462103743788","476.96581834184434","513.0945819754065"
"","canvas-keyboard-response","53","204479","0.0-6.0-5.6","583","","","","","make choice","626","1","","","critical","c","t","d","164","240","240","164","237.1485","162.6685","trueblood","0.02","w","240","164","164","240","237.1485","162.6685","39360","39360","38576.5967","dc","null","null","null","null","null","null","[3,1]","","",""
"","canvas-keyboard-response","54","204496","0.0-6.0-6.6","583","","","","","clear_screen","null","null","","","critical","c","t","d","164","240","240","164","237.1485","162.6685","trueblood","0.02","w","240","164","164","240","237.1485","162.6685","39360","39360","38576.5967","dc","null","null","null","null","null","null","[3,1]","","",""
"","canvas-keyboard-response","55","204697","0.0-6.0-0.7","583","","","","","pre trial waiting period","null","null","","","catch","l","sw","sh","282","239","173","170","238","205","spektor","null","null","null","null","null","null","null","null","null","null","null","","180","200","260","200","36000","52000","[1,3]","477.64269834931923","189.01198875804405","503.1371507758118"
"","canvas-keyboard-response","56","204716","0.0-6.0-1.7","583","","","","","clear_screen","null","null","","","catch","l","sw","sh","282","239","173","170","238","205","spektor","null","null","null","null","null","null","null","null","null","null","null","","180","200","260","200","36000","52000","[1,3]","477.64269834931923","189.01198875804405","503.1371507758118"
"","canvas-keyboard-response","57","205226","0.0-6.0-2.7","583","","","","","rectangles no change","null","null","","","catch","l","sw","sh","282","239","173","170","238","205","spektor","null","null","null","null","null","null","null","null","null","null","null","","180","200","260","200","36000","52000","[1,3]","477.64269834931923","189.01198875804405","503.1371507758118"
"","canvas-keyboard-response","58","206562","0.0-6.0-3.7","583","","","","","rectangles with change","null","null","","","catch","l","sw","sh","282","239","173","170","238","205","spektor","null","null","null","null","null","null","null","null","null","null","null","","180","200","260","200","36000","52000","[1,3]","477.64269834931923","189.01198875804405","503.1371507758118"
"","canvas-keyboard-response","59","206580","0.0-6.0-4.7","583","","","","","clear_screen","null","null","","","catch","l","sw","sh","282","239","173","170","238","205","spektor","null","null","null","null","null","null","null","null","null","null","null","","180","200","260","200","36000","52000","[1,3]","477.64269834931923","189.01198875804405","503.1371507758118"
"","canvas-keyboard-response","60","207006","0.0-6.0-5.7","583","","","","","make choice","420","1","","","catch","l","sw","sh","282","239","173","170","238","205","spektor","null","null","null","null","null","null","null","null","null","null","null","","180","200","260","200","36000","52000","[1,3]","","",""
"","canvas-keyboard-response","61","207024","0.0-6.0-6.7","583","","","","","clear_screen","null","null","","","catch","l","sw","sh","282","239","173","170","238","205","spektor","null","null","null","null","null","null","null","null","null","null","null","","180","200","260","200","36000","52000","[1,3]","","",""
"","canvas-keyboard-response","62","207225","0.0-6.0-0.8","583","","","","","pre trial waiting period","null","null","","","critical","t","c","d","164","240","240","164","164","240","trueblood","0","h","164","240","240","164","164","240","39360","39360","39360","td","null","null","null","null","null","null","[1,3]","448.181568256979","510.91723082798524","462.8282917420117"
"","canvas-keyboard-response","63","207247","0.0-6.0-1.8","583","","","","","clear_screen","null","null","","","critical","t","c","d","164","240","240","164","164","240","trueblood","0","h","164","240","240","164","164","240","39360","39360","39360","td","null","null","null","null","null","null","[1,3]","448.181568256979","510.91723082798524","462.8282917420117"
"","canvas-keyboard-response","64","207757","0.0-6.0-2.8","583","","","","","rectangles no change","null","null","","","critical","t","c","d","164","240","240","164","164","240","trueblood","0","h","164","240","240","164","164","240","39360","39360","39360","td","null","null","null","null","null","null","[1,3]","448.181568256979","510.91723082798524","462.8282917420117"
"","canvas-keyboard-response","65","209093","0.0-6.0-3.8","583","","","","","rectangles with change","null","null","","","critical","t","c","d","164","240","240","164","164","240","trueblood","0","h","164","240","240","164","164","240","39360","39360","39360","td","null","null","null","null","null","null","[1,3]","448.181568256979","510.91723082798524","462.8282917420117"
"","canvas-keyboard-response","66","209110","0.0-6.0-4.8","583","","","","","clear_screen","null","null","","","critical","t","c","d","164","240","240","164","164","240","trueblood","0","h","164","240","240","164","164","240","39360","39360","39360","td","null","null","null","null","null","null","[1,3]","448.181568256979","510.91723082798524","462.8282917420117"
"","canvas-keyboard-response","67","210287","0.0-6.0-5.8","583","","","","","make choice","1168","3","","","critical","t","c","d","164","240","240","164","164","240","trueblood","0","h","164","240","240","164","164","240","39360","39360","39360","td","null","null","null","null","null","null","[1,3]","","",""
"","canvas-keyboard-response","68","210304","0.0-6.0-6.8","583","","","","","clear_screen","null","null","","","critical","t","c","d","164","240","240","164","164","240","trueblood","0","h","164","240","240","164","164","240","39360","39360","39360","td","null","null","null","null","null","null","[1,3]","","",""
"","canvas-keyboard-response","69","210505","0.0-6.0-0.9","583","","","","","pre trial waiting period","null","null","","","critical","d","t","c","160.6713","232.8713","164","240","240","164","trueblood","0.05","h","164","240","240","164","160.6713","232.8713","39360","39360","37415.7294","tc","null","null","null","null","null","null","[2,3]","436.34373893212353","458.10869670637044","508.72437599441906"
"","canvas-keyboard-response","70","210523","0.0-6.0-1.9","583","","","","","clear_screen","null","null","","","critical","d","t","c","160.6713","232.8713","164","240","240","164","trueblood","0.05","h","164","240","240","164","160.6713","232.8713","39360","39360","37415.7294","tc","null","null","null","null","null","null","[2,3]","436.34373893212353","458.10869670637044","508.72437599441906"
"","canvas-keyboard-response","71","211031","0.0-6.0-2.9","583","","","","","rectangles no change","null","null","","","critical","d","t","c","160.6713","232.8713","164","240","240","164","trueblood","0.05","h","164","240","240","164","160.6713","232.8713","39360","39360","37415.7294","tc","null","null","null","null","null","null","[2,3]","436.34373893212353","458.10869670637044","508.72437599441906"
"","canvas-keyboard-response","72","212365","0.0-6.0-3.9","583","","","","","rectangles with change","null","null","","","critical","d","t","c","160.6713","232.8713","164","240","240","164","trueblood","0.05","h","164","240","240","164","160.6713","232.8713","39360","39360","37415.7294","tc","null","null","null","null","null","null","[2,3]","436.34373893212353","458.10869670637044","508.72437599441906"
"","canvas-keyboard-response","73","212385","0.0-6.0-4.9","583","","","","","clear_screen","null","null","","","critical","d","t","c","160.6713","232.8713","164","240","240","164","trueblood","0.05","h","164","240","240","164","160.6713","232.8713","39360","39360","37415.7294","tc","null","null","null","null","null","null","[2,3]","436.34373893212353","458.10869670637044","508.72437599441906"
"","canvas-keyboard-response","74","212751","0.0-6.0-5.9","583","","","","","make choice","358","3","","","critical","d","t","c","160.6713","232.8713","164","240","240","164","trueblood","0.05","h","164","240","240","164","160.6713","232.8713","39360","39360","37415.7294","tc","null","null","null","null","null","null","[2,3]","","",""
"","canvas-keyboard-response","75","212768","0.0-6.0-6.9","583","","","","","clear_screen","null","null","","","critical","d","t","c","160.6713","232.8713","164","240","240","164","trueblood","0.05","h","164","240","240","164","160.6713","232.8713","39360","39360","37415.7294","tc","null","null","null","null","null","null","[2,3]","","",""
"","canvas-keyboard-response","76","212970","0.0-6.0-0.10","583","","","","","pre trial waiting period","null","null","","","critical","c","t","d","164","240","240","164","240","164","trueblood","0","w","240","164","164","240","240","164","39360","39360","39360","tc","null","null","null","null","null","null","[2,1]","421.9282222647513","513.357755952487","510.9959868584804"
"","canvas-keyboard-response","77","212993","0.0-6.0-1.10","583","","","","","clear_screen","null","null","","","critical","c","t","d","164","240","240","164","240","164","trueblood","0","w","240","164","164","240","240","164","39360","39360","39360","tc","null","null","null","null","null","null","[2,1]","421.9282222647513","513.357755952487","510.9959868584804"
"","canvas-keyboard-response","78","213508","0.0-6.0-2.10","583","","","","","rectangles no change","null","null","","","critical","c","t","d","164","240","240","164","240","164","trueblood","0","w","240","164","164","240","240","164","39360","39360","39360","tc","null","null","null","null","null","null","[2,1]","421.9282222647513","513.357755952487","510.9959868584804"
"","canvas-keyboard-response","79","214844","0.0-6.0-3.10","583","","","","","rectangles with change","null","null","","","critical","c","t","d","164","240","240","164","240","164","trueblood","0","w","240","164","164","240","240","164","39360","39360","39360","tc","null","null","null","null","null","null","[2,1]","421.9282222647513","513.357755952487","510.9959868584804"
"","canvas-keyboard-response","80","214863","0.0-6.0-4.10","583","","","","","clear_screen","null","null","","","critical","c","t","d","164","240","240","164","240","164","trueblood","0","w","240","164","164","240","240","164","39360","39360","39360","tc","null","null","null","null","null","null","[2,1]","421.9282222647513","513.357755952487","510.9959868584804"
"","canvas-keyboard-response","81","215239","0.0-6.0-5.10","583","","","","","make choice","367","2","","","critical","c","t","d","164","240","240","164","240","164","trueblood","0","w","240","164","164","240","240","164","39360","39360","39360","tc","null","null","null","null","null","null","[2,1]","","",""
"","canvas-keyboard-response","82","215258","0.0-6.0-6.10","583","","","","","clear_screen","null","null","","","critical","c","t","d","164","240","240","164","240","164","trueblood","0","w","240","164","164","240","240","164","39360","39360","39360","tc","null","null","null","null","null","null","[2,1]","","",""
"","canvas-keyboard-response","83","215459","0.0-6.0-0.11","583","","","","","pre trial waiting period","null","null","","","critical","t","c","d","164","240","240","164","160.6713","232.8713","trueblood","0.05","h","164","240","240","164","160.6713","232.8713","39360","39360","37415.7294","td","null","null","null","null","null","null","[1,3]","458.61888989859733","512.8574646565264","428.183971966692"
"","canvas-keyboard-response","84","215479","0.0-6.0-1.11","583","","","","","clear_screen","null","null","","","critical","t","c","d","164","240","240","164","160.6713","232.8713","trueblood","0.05","h","164","240","240","164","160.6713","232.8713","39360","39360","37415.7294","td","null","null","null","null","null","null","[1,3]","458.61888989859733","512.8574646565264","428.183971966692"
"","canvas-keyboard-response","85","215989","0.0-6.0-2.11","583","","","","","rectangles no change","null","null","","","critical","t","c","d","164","240","240","164","160.6713","232.8713","trueblood","0.05","h","164","240","240","164","160.6713","232.8713","39360","39360","37415.7294","td","null","null","null","null","null","null","[1,3]","458.61888989859733","512.8574646565264","428.183971966692"
"","canvas-keyboard-response","86","217324","0.0-6.0-3.11","583","","","","","rectangles with change","null","null","","","critical","t","c","d","164","240","240","164","160.6713","232.8713","trueblood","0.05","h","164","240","240","164","160.6713","232.8713","39360","39360","37415.7294","td","null","null","null","null","null","null","[1,3]","458.61888989859733","512.8574646565264","428.183971966692"
"","canvas-keyboard-response","87","217344","0.0-6.0-4.11","583","","","","","clear_screen","null","null","","","critical","t","c","d","164","240","240","164","160.6713","232.8713","trueblood","0.05","h","164","240","240","164","160.6713","232.8713","39360","39360","37415.7294","td","null","null","null","null","null","null","[1,3]","458.61888989859733","512.8574646565264","428.183971966692"
"","canvas-keyboard-response","88","217758","0.0-6.0-5.11","583","","","","","make choice","406","1","","","critical","t","c","d","164","240","240","164","160.6713","232.8713","trueblood","0.05","h","164","240","240","164","160.6713","232.8713","39360","39360","37415.7294","td","null","null","null","null","null","null","[1,3]","","",""
"","canvas-keyboard-response","89","217780","0.0-6.0-6.11","583","","","","","clear_screen","null","null","","","critical","t","c","d","164","240","240","164","160.6713","232.8713","trueblood","0.05","h","164","240","240","164","160.6713","232.8713","39360","39360","37415.7294","td","null","null","null","null","null","null","[1,3]","","",""
"","canvas-keyboard-response","90","217982","0.0-6.0-0.12","583","","","","","pre trial waiting period","null","null","","","critical","c","d","t","240","164","164","240","164","240","trueblood","0","h","164","240","240","164","164","240","39360","39360","39360","dc","null","null","null","null","null","null","[2,1]","513.0829566318802","446.9108100346345","451.0498991397546"
"","canvas-keyboard-response","91","218002","0.0-6.0-1.12","583","","","","","clear_screen","null","null","","","critical","c","d","t","240","164","164","240","164","240","trueblood","0","h","164","240","240","164","164","240","39360","39360","39360","dc","null","null","null","null","null","null","[2,1]","513.0829566318802","446.9108100346345","451.0498991397546"
"","canvas-keyboard-response","92","218511","0.0-6.0-2.12","583","","","","","rectangles no change","null","null","","","critical","c","d","t","240","164","164","240","164","240","trueblood","0","h","164","240","240","164","164","240","39360","39360","39360","dc","null","null","null","null","null","null","[2,1]","513.0829566318802","446.9108100346345","451.0498991397546"
"","canvas-keyboard-response","93","219846","0.0-6.0-3.12","583","","","","","rectangles with change","null","null","","","critical","c","d","t","240","164","164","240","164","240","trueblood","0","h","164","240","240","164","164","240","39360","39360","39360","dc","null","null","null","null","null","null","[2,1]","513.0829566318802","446.9108100346345","451.0498991397546"
"","canvas-keyboard-response","94","219864","0.0-6.0-4.12","583","","","","","clear_screen","null","null","","","critical","c","d","t","240","164","164","240","164","240","trueblood","0","h","164","240","240","164","164","240","39360","39360","39360","dc","null","null","null","null","null","null","[2,1]","513.0829566318802","446.9108100346345","451.0498991397546"
"","canvas-keyboard-response","95","220311","0.0-6.0-5.12","583","","","","","make choice","439","1","","","critical","c","d","t","240","164","164","240","164","240","trueblood","0","h","164","240","240","164","164","240","39360","39360","39360","dc","null","null","null","null","null","null","[2,1]","","",""
"","canvas-keyboard-response","96","220330","0.0-6.0-6.12","583","","","","","clear_screen","null","null","","","critical","c","d","t","240","164","164","240","164","240","trueblood","0","h","164","240","240","164","164","240","39360","39360","39360","dc","null","null","null","null","null","null","[2,1]","","",""
"","canvas-keyboard-response","97","220531","0.0-6.0-0.13","583","","","","","pre trial waiting period","null","null","","","critical","t","d","c","240","164","232.8713","160.6713","164","240","trueblood","0.05","w","240","164","164","240","232.8713","160.6713","39360","39360","37415.7294","td","null","null","null","null","null","null","[1,2]","491.0386644781585","505.5358276508335","447.60088535874615"
"","canvas-keyboard-response","98","220551","0.0-6.0-1.13","583","","","","","clear_screen","null","null","","","critical","t","d","c","240","164","232.8713","160.6713","164","240","trueblood","0.05","w","240","164","164","240","232.8713","160.6713","39360","39360","37415.7294","td","null","null","null","null","null","null","[1,2]","491.0386644781585","505.5358276508335","447.60088535874615"
"","canvas-keyboard-response","99","221060","0.0-6.0-2.13","583","","","","","rectangles no change","null","null","","","critical","t","d","c","240","164","232.8713","160.6713","164","240","trueblood","0.05","w","240","164","164","240","232.8713","160.6713","39360","39360","37415.7294","td","null","null","null","null","null","null","[1,2]","491.0386644781585","505.5358276508335","447.60088535874615"
"","canvas-keyboard-response","100","222395","0.0-6.0-3.13","583","","","","","rectangles with change","null","null","","","critical","t","d","c","240","164","232.8713","160.6713","164","240","trueblood","0.05","w","240","164","164","240","232.8713","160.6713","39360","39360","37415.7294","td","null","null","null","null","null","null","[1,2]","491.0386644781585","505.5358276508335","447.60088535874615"
"","canvas-keyboard-response","101","222415","0.0-6.0-4.13","583","","","","","clear_screen","null","null","","","critical","t","d","c","240","164","232.8713","160.6713","164","240","trueblood","0.05","w","240","164","164","240","232.8713","160.6713","39360","39360","37415.7294","td","null","null","null","null","null","null","[1,2]","491.0386644781585","505.5358276508335","447.60088535874615"
"","canvas-keyboard-response","102","223343","0.0-6.0-5.13","583","","","","","make choice","921","2","","","critical","t","d","c","240","164","232.8713","160.6713","164","240","trueblood","0.05","w","240","164","164","240","232.8713","160.6713","39360","39360","37415.7294","td","null","null","null","null","null","null","[1,2]","","",""
"","canvas-keyboard-response","103","223362","0.0-6.0-6.13","583","","","","","clear_screen","null","null","","","critical","t","d","c","240","164","232.8713","160.6713","164","240","trueblood","0.05","w","240","164","164","240","232.8713","160.6713","39360","39360","37415.7294","td","null","null","null","null","null","null","[1,2]","","",""
"","canvas-keyboard-response","104","223562","0.0-6.0-0.14","583","","","","","pre trial waiting period","null","null","","","critical","c","d","t","240","164","160.6713","232.8713","164","240","spektor","0.05","h","164","240","240","164","160.6713","232.8713","39360","39360","37415.7294","td","null","null","null","null","null","null","[3,2]","500.14237335403635","116.02116984033925","484.1185585653672"
"","canvas-keyboard-response","105","223581","0.0-6.0-1.14","583","","","","","clear_screen","null","null","","","critical","c","d","t","240","164","160.6713","232.8713","164","240","spektor","0.05","h","164","240","240","164","160.6713","232.8713","39360","39360","37415.7294","td","null","null","null","null","null","null","[3,2]","500.14237335403635","116.02116984033925","484.1185585653672"
"","canvas-keyboard-response","106","224091","0.0-6.0-2.14","583","","","","","rectangles no change","null","null","","","critical","c","d","t","240","164","160.6713","232.8713","164","240","spektor","0.05","h","164","240","240","164","160.6713","232.8713","39360","39360","37415.7294","td","null","null","null","null","null","null","[3,2]","500.14237335403635","116.02116984033925","484.1185585653672"
"","canvas-keyboard-response","107","225426","0.0-6.0-3.14","583","","","","","rectangles with change","null","null","","","critical","c","d","t","240","164","160.6713","232.8713","164","240","spektor","0.05","h","164","240","240","164","160.6713","232.8713","39360","39360","37415.7294","td","null","null","null","null","null","null","[3,2]","500.14237335403635","116.02116984033925","484.1185585653672"
"","canvas-keyboard-response","108","225445","0.0-6.0-4.14","583","","","","","clear_screen","null","null","","","critical","c","d","t","240","164","160.6713","232.8713","164","240","spektor","0.05","h","164","240","240","164","160.6713","232.8713","39360","39360","37415.7294","td","null","null","null","null","null","null","[3,2]","500.14237335403635","116.02116984033925","484.1185585653672"
"","canvas-keyboard-response","109","225878","0.0-6.0-5.14","583","","","","","make choice","426","2","","","critical","c","d","t","240","164","160.6713","232.8713","164","240","spektor","0.05","h","164","240","240","164","160.6713","232.8713","39360","39360","37415.7294","td","null","null","null","null","null","null","[3,2]","","",""
"","canvas-keyboard-response","110","225896","0.0-6.0-6.14","583","","","","","clear_screen","null","null","","","critical","c","d","t","240","164","160.6713","232.8713","164","240","spektor","0.05","h","164","240","240","164","160.6713","232.8713","39360","39360","37415.7294","td","null","null","null","null","null","null","[3,2]","","",""
"","canvas-keyboard-response","111","226098","0.0-6.0-0.15","583","","","","","pre trial waiting period","null","null","","","critical","t","d","c","240","164","227.1683","158.0083","164","240","spektor","0.09","w","240","164","164","240","227.1683","158.0083","39360","39360","35894.4834","tc","null","null","null","null","null","null","[1,3]","511.764974588673","175.67947010994234","503.83498668155295"
"","canvas-keyboard-response","112","226117","0.0-6.0-1.15","583","","","","","clear_screen","null","null","","","critical","t","d","c","240","164","227.1683","158.0083","164","240","spektor","0.09","w","240","164","164","240","227.1683","158.0083","39360","39360","35894.4834","tc","null","null","null","null","null","null","[1,3]","511.764974588673","175.67947010994234","503.83498668155295"
"","canvas-keyboard-response","113","226626","0.0-6.0-2.15","583","","","","","rectangles no change","null","null","","","critical","t","d","c","240","164","227.1683","158.0083","164","240","spektor","0.09","w","240","164","164","240","227.1683","158.0083","39360","39360","35894.4834","tc","null","null","null","null","null","null","[1,3]","511.764974588673","175.67947010994234","503.83498668155295"
"","canvas-keyboard-response","114","227961","0.0-6.0-3.15","583","","","","","rectangles with change","null","null","","","critical","t","d","c","240","164","227.1683","158.0083","164","240","spektor","0.09","w","240","164","164","240","227.1683","158.0083","39360","39360","35894.4834","tc","null","null","null","null","null","null","[1,3]","511.764974588673","175.67947010994234","503.83498668155295"
"","canvas-keyboard-response","115","227979","0.0-6.0-4.15","583","","","","","clear_screen","null","null","","","critical","t","d","c","240","164","227.1683","158.0083","164","240","spektor","0.09","w","240","164","164","240","227.1683","158.0083","39360","39360","35894.4834","tc","null","null","null","null","null","null","[1,3]","511.764974588673","175.67947010994234","503.83498668155295"
"","canvas-keyboard-response","116","228463","0.0-6.0-5.15","583","","","","","make choice","475","1","","","critical","t","d","c","240","164","227.1683","158.0083","164","240","spektor","0.09","w","240","164","164","240","227.1683","158.0083","39360","39360","35894.4834","tc","null","null","null","null","null","null","[1,3]","","",""
"","canvas-keyboard-response","117","228480","0.0-6.0-6.15","583","","","","","clear_screen","null","null","","","critical","t","d","c","240","164","227.1683","158.0083","164","240","spektor","0.09","w","240","164","164","240","227.1683","158.0083","39360","39360","35894.4834","tc","null","null","null","null","null","null","[1,3]","","",""
"","canvas-keyboard-response","118","228681","0.0-6.0-0.16","583","","","","","pre trial waiting period","null","null","","","critical","t","c","d","240","164","164","240","227.1683","158.0083","trueblood","0.09","w","240","164","164","240","227.1683","158.0083","39360","39360","35894.4834","td","null","null","null","null","null","null","[1,3]","508.21774618795615","446.72045748711463","489.1593184653587"
"","canvas-keyboard-response","119","228701","0.0-6.0-1.16","583","","","","","clear_screen","null","null","","","critical","t","c","d","240","164","164","240","227.1683","158.0083","trueblood","0.09","w","240","164","164","240","227.1683","158.0083","39360","39360","35894.4834","td","null","null","null","null","null","null","[1,3]","508.21774618795615","446.72045748711463","489.1593184653587"
"","canvas-keyboard-response","120","229209","0.0-6.0-2.16","583","","","","","rectangles no change","null","null","","","critical","t","c","d","240","164","164","240","227.1683","158.0083","trueblood","0.09","w","240","164","164","240","227.1683","158.0083","39360","39360","35894.4834","td","null","null","null","null","null","null","[1,3]","508.21774618795615","446.72045748711463","489.1593184653587"
"","canvas-keyboard-response","121","230543","0.0-6.0-3.16","583","","","","","rectangles with change","null","null","","","critical","t","c","d","240","164","164","240","227.1683","158.0083","trueblood","0.09","w","240","164","164","240","227.1683","158.0083","39360","39360","35894.4834","td","null","null","null","null","null","null","[1,3]","508.21774618795615","446.72045748711463","489.1593184653587"
"","canvas-keyboard-response","122","230561","0.0-6.0-4.16","583","","","","","clear_screen","null","null","","","critical","t","c","d","240","164","164","240","227.1683","158.0083","trueblood","0.09","w","240","164","164","240","227.1683","158.0083","39360","39360","35894.4834","td","null","null","null","null","null","null","[1,3]","508.21774618795615","446.72045748711463","489.1593184653587"
"","canvas-keyboard-response","123","230857","0.0-6.0-5.16","583","","","","","make choice","288","1","","","critical","t","c","d","240","164","164","240","227.1683","158.0083","trueblood","0.09","w","240","164","164","240","227.1683","158.0083","39360","39360","35894.4834","td","null","null","null","null","null","null","[1,3]","","",""
"","canvas-keyboard-response","124","230875","0.0-6.0-6.16","583","","","","","clear_screen","null","null","","","critical","t","c","d","240","164","164","240","227.1683","158.0083","trueblood","0.09","w","240","164","164","240","227.1683","158.0083","39360","39360","35894.4834","td","null","null","null","null","null","null","[1,3]","","",""
"","canvas-keyboard-response","125","231076","0.0-6.0-0.17","583","","","","","pre trial waiting period","null","null","","","catch","sw","sh","l","180","200","161","173","282","237","spektor","null","null","null","null","null","null","null","null","null","null","null","","180","200","260","200","36000","52000","[1,3]","487.5769977864593","182.09890649804197","492.4348838480721"
"","canvas-keyboard-response","126","231099","0.0-6.0-1.17","583","","","","","clear_screen","null","null","","","catch","sw","sh","l","180","200","161","173","282","237","spektor","null","null","null","null","null","null","null","null","null","null","null","","180","200","260","200","36000","52000","[1,3]","487.5769977864593","182.09890649804197","492.4348838480721"
"","canvas-keyboard-response","127","231610","0.0-6.0-2.17","583","","","","","rectangles no change","null","null","","","catch","sw","sh","l","180","200","161","173","282","237","spektor","null","null","null","null","null","null","null","null","null","null","null","","180","200","260","200","36000","52000","[1,3]","487.5769977864593","182.09890649804197","492.4348838480721"
"","canvas-keyboard-response","128","232945","0.0-6.0-3.17","583","","","","","rectangles with change","null","null","","","catch","sw","sh","l","180","200","161","173","282","237","spektor","null","null","null","null","null","null","null","null","null","null","null","","180","200","260","200","36000","52000","[1,3]","487.5769977864593","182.09890649804197","492.4348838480721"
"","canvas-keyboard-response","129","232962","0.0-6.0-4.17","583","","","","","clear_screen","null","null","","","catch","sw","sh","l","180","200","161","173","282","237","spektor","null","null","null","null","null","null","null","null","null","null","null","","180","200","260","200","36000","52000","[1,3]","487.5769977864593","182.09890649804197","492.4348838480721"
"","canvas-keyboard-response","130","233294","0.0-6.0-5.17","583","","","","","make choice","325","3","","","catch","sw","sh","l","180","200","161","173","282","237","spektor","null","null","null","null","null","null","null","null","null","null","null","","180","200","260","200","36000","52000","[1,3]","","",""
"","canvas-keyboard-response","131","233312","0.0-6.0-6.17","583","","","","","clear_screen","null","null","","","catch","sw","sh","l","180","200","161","173","282","237","spektor","null","null","null","null","null","null","null","null","null","null","null","","180","200","260","200","36000","52000","[1,3]","","",""
"","canvas-keyboard-response","132","233513","0.0-6.0-0.18","583","","","","","pre trial waiting period","null","null","","","critical","t","c","d","164","240","240","164","158.0083","227.1683","trueblood","0.09","h","164","240","240","164","158.0083","227.1683","39360","39360","35894.4834","tc","null","null","null","null","null","null","[1,2]","443.279139295552","500.5446448308502","455.2383916479261"
"","canvas-keyboard-response","133","233531","0.0-6.0-1.18","583","","","","","clear_screen","null","null","","","critical","t","c","d","164","240","240","164","158.0083","227.1683","trueblood","0.09","h","164","240","240","164","158.0083","227.1683","39360","39360","35894.4834","tc","null","null","null","null","null","null","[1,2]","443.279139295552","500.5446448308502","455.2383916479261"
"","canvas-keyboard-response","134","234041","0.0-6.0-2.18","583","","","","","rectangles no change","null","null","","","critical","t","c","d","164","240","240","164","158.0083","227.1683","trueblood","0.09","h","164","240","240","164","158.0083","227.1683","39360","39360","35894.4834","tc","null","null","null","null","null","null","[1,2]","443.279139295552","500.5446448308502","455.2383916479261"
"","canvas-keyboard-response","135","235377","0.0-6.0-3.18","583","","","","","rectangles with change","null","null","","","critical","t","c","d","164","240","240","164","158.0083","227.1683","trueblood","0.09","h","164","240","240","164","158.0083","227.1683","39360","39360","35894.4834","tc","null","null","null","null","null","null","[1,2]","443.279139295552","500.5446448308502","455.2383916479261"
"","canvas-keyboard-response","136","235398","0.0-6.0-4.18","583","","","","","clear_screen","null","null","","","critical","t","c","d","164","240","240","164","158.0083","227.1683","trueblood","0.09","h","164","240","240","164","158.0083","227.1683","39360","39360","35894.4834","tc","null","null","null","null","null","null","[1,2]","443.279139295552","500.5446448308502","455.2383916479261"
"","canvas-keyboard-response","137","235678","0.0-6.0-5.18","583","","","","","make choice","273","2","","","critical","t","c","d","164","240","240","164","158.0083","227.1683","trueblood","0.09","h","164","240","240","164","158.0083","227.1683","39360","39360","35894.4834","tc","null","null","null","null","null","null","[1,2]","","",""
"","canvas-keyboard-response","138","235698","0.0-6.0-6.18","583","","","","","clear_screen","null","null","","","critical","t","c","d","164","240","240","164","158.0083","227.1683","trueblood","0.09","h","164","240","240","164","158.0083","227.1683","39360","39360","35894.4834","tc","null","null","null","null","null","null","[1,2]","","",""
"","canvas-keyboard-response","139","235899","0.0-6.0-0.19","583","","","","","pre trial waiting period","null","null","","","critical","t","c","d","240","164","164","240","237.1485","162.6685","spektor","0.02","w","240","164","164","240","237.1485","162.6685","39360","39360","38576.5967","td","null","null","null","null","null","null","[1,3]","539.3496475347549","123.61038464363949","506.37846319274774"
"","canvas-keyboard-response","140","235920","0.0-6.0-1.19","583","","","","","clear_screen","null","null","","","critical","t","c","d","240","164","164","240","237.1485","162.6685","spektor","0.02","w","240","164","164","240","237.1485","162.6685","39360","39360","38576.5967","td","null","null","null","null","null","null","[1,3]","539.3496475347549","123.61038464363949","506.37846319274774"
"","canvas-keyboard-response","141","236430","0.0-6.0-2.19","583","","","","","rectangles no change","null","null","","","critical","t","c","d","240","164","164","240","237.1485","162.6685","spektor","0.02","w","240","164","164","240","237.1485","162.6685","39360","39360","38576.5967","td","null","null","null","null","null","null","[1,3]","539.3496475347549","123.61038464363949","506.37846319274774"
"","canvas-keyboard-response","142","237766","0.0-6.0-3.19","583","","","","","rectangles with change","null","null","","","critical","t","c","d","240","164","164","240","237.1485","162.6685","spektor","0.02","w","240","164","164","240","237.1485","162.6685","39360","39360","38576.5967","td","null","null","null","null","null","null","[1,3]","539.3496475347549","123.61038464363949","506.37846319274774"
"","canvas-keyboard-response","143","237784","0.0-6.0-4.19","583","","","","","clear_screen","null","null","","","critical","t","c","d","240","164","164","240","237.1485","162.6685","spektor","0.02","w","240","164","164","240","237.1485","162.6685","39360","39360","38576.5967","td","null","null","null","null","null","null","[1,3]","539.3496475347549","123.61038464363949","506.37846319274774"
"","canvas-keyboard-response","144","238126","0.0-6.0-5.19","583","","","","","make choice","335","1","","","critical","t","c","d","240","164","164","240","237.1485","162.6685","spektor","0.02","w","240","164","164","240","237.1485","162.6685","39360","39360","38576.5967","td","null","null","null","null","null","null","[1,3]","","",""
"","canvas-keyboard-response","145","238145","0.0-6.0-6.19","583","","","","","clear_screen","null","null","","","critical","t","c","d","240","164","164","240","237.1485","162.6685","spektor","0.02","w","240","164","164","240","237.1485","162.6685","39360","39360","38576.5967","td","null","null","null","null","null","null","[1,3]","","",""
"","canvas-keyboard-response","146","238348","0.0-6.0-0.20","583","","","","","pre trial waiting period","null","null","","","critical","d","c","t","154.6796","220.0396","240","164","164","240","spektor","0.14","h","164","240","240","164","154.6796","220.0396","39360","39360","34035.6388","dc","null","null","null","null","null","null","[1,2]","509.7018172020456","191.03704372668227","482.2544042128885"
"","canvas-keyboard-response","147","238368","0.0-6.0-1.20","583","","","","","clear_screen","null","null","","","critical","d","c","t","154.6796","220.0396","240","164","164","240","spektor","0.14","h","164","240","240","164","154.6796","220.0396","39360","39360","34035.6388","dc","null","null","null","null","null","null","[1,2]","509.7018172020456","191.03704372668227","482.2544042128885"
"","canvas-keyboard-response","148","238881","0.0-6.0-2.20","583","","","","","rectangles no change","null","null","","","critical","d","c","t","154.6796","220.0396","240","164","164","240","spektor","0.14","h","164","240","240","164","154.6796","220.0396","39360","39360","34035.6388","dc","null","null","null","null","null","null","[1,2]","509.7018172020456","191.03704372668227","482.2544042128885"
"","canvas-keyboard-response","149","240219","0.0-6.0-3.20","583","","","","","rectangles with change","null","null","","","critical","d","c","t","154.6796","220.0396","240","164","164","240","spektor","0.14","h","164","240","240","164","154.6796","220.0396","39360","39360","34035.6388","dc","null","null","null","null","null","null","[1,2]","509.7018172020456","191.03704372668227","482.2544042128885"
"","canvas-keyboard-response","150","240237","0.0-6.0-4.20","583","","","","","clear_screen","null","null","","","critical","d","c","t","154.6796","220.0396","240","164","164","240","spektor","0.14","h","164","240","240","164","154.6796","220.0396","39360","39360","34035.6388","dc","null","null","null","null","null","null","[1,2]","509.7018172020456","191.03704372668227","482.2544042128885"
"","canvas-keyboard-response","151","240583","0.0-6.0-5.20","583","","","","","make choice","338","2","","","critical","d","c","t","154.6796","220.0396","240","164","164","240","spektor","0.14","h","164","240","240","164","154.6796","220.0396","39360","39360","34035.6388","dc","null","null","null","null","null","null","[1,2]","","",""
"","canvas-keyboard-response","152","240600","0.0-6.0-6.20","583","","","","","clear_screen","null","null","","","critical","d","c","t","154.6796","220.0396","240","164","164","240","spektor","0.14","h","164","240","240","164","154.6796","220.0396","39360","39360","34035.6388","dc","null","null","null","null","null","null","[1,2]","","",""
"","canvas-keyboard-response","153","240802","0.0-6.0-0.21","583","","","","","pre trial waiting period","null","null","","","critical","c","t","d","164","240","240","164","220.0396","154.6796","spektor","0.14","w","240","164","164","240","220.0396","154.6796","39360","39360","34035.6388","tc","null","null","null","null","null","null","[2,1]","492.05056296283686","169.65541988174638","518.4723464967618"
"","canvas-keyboard-response","154","240821","0.0-6.0-1.21","583","","","","","clear_screen","null","null","","","critical","c","t","d","164","240","240","164","220.0396","154.6796","spektor","0.14","w","240","164","164","240","220.0396","154.6796","39360","39360","34035.6388","tc","null","null","null","null","null","null","[2,1]","492.05056296283686","169.65541988174638","518.4723464967618"
"","canvas-keyboard-response","155","241333","0.0-6.0-2.21","583","","","","","rectangles no change","null","null","","","critical","c","t","d","164","240","240","164","220.0396","154.6796","spektor","0.14","w","240","164","164","240","220.0396","154.6796","39360","39360","34035.6388","tc","null","null","null","null","null","null","[2,1]","492.05056296283686","169.65541988174638","518.4723464967618"
"","canvas-keyboard-response","156","242667","0.0-6.0-3.21","583","","","","","rectangles with change","null","null","","","critical","c","t","d","164","240","240","164","220.0396","154.6796","spektor","0.14","w","240","164","164","240","220.0396","154.6796","39360","39360","34035.6388","tc","null","null","null","null","null","null","[2,1]","492.05056296283686","169.65541988174638","518.4723464967618"
"","canvas-keyboard-response","157","242685","0.0-6.0-4.21","583","","","","","clear_screen","null","null","","","critical","c","t","d","164","240","240","164","220.0396","154.6796","spektor","0.14","w","240","164","164","240","220.0396","154.6796","39360","39360","34035.6388","tc","null","null","null","null","null","null","[2,1]","492.05056296283686","169.65541988174638","518.4723464967618"
"","canvas-keyboard-response","158","243487","0.0-6.0-5.21","583","","","","","make choice","795","2","","","critical","c","t","d","164","240","240","164","220.0396","154.6796","spektor","0.14","w","240","164","164","240","220.0396","154.6796","39360","39360","34035.6388","tc","null","null","null","null","null","null","[2,1]","","",""
"","canvas-keyboard-response","159","243505","0.0-6.0-6.21","583","","","","","clear_screen","null","null","","","critical","c","t","d","164","240","240","164","220.0396","154.6796","spektor","0.14","w","240","164","164","240","220.0396","154.6796","39360","39360","34035.6388","tc","null","null","null","null","null","null","[2,1]","","",""
"","canvas-keyboard-response","160","243707","0.0-6.0-0.22","583","","","","","pre trial waiting period","null","null","","","critical","c","d","t","240","164","164","240","164","240","trueblood","0","h","164","240","240","164","164","240","39360","39360","39360","tc","null","null","null","null","null","null","[3,1]","474.2369330202424","453.05753249978227","465.7315652869691"
"","canvas-keyboard-response","161","243730","0.0-6.0-1.22","583","","","","","clear_screen","null","null","","","critical","c","d","t","240","164","164","240","164","240","trueblood","0","h","164","240","240","164","164","240","39360","39360","39360","tc","null","null","null","null","null","null","[3,1]","474.2369330202424","453.05753249978227","465.7315652869691"
"","canvas-keyboard-response","162","244241","0.0-6.0-2.22","583","","","","","rectangles no change","null","null","","","critical","c","d","t","240","164","164","240","164","240","trueblood","0","h","164","240","240","164","164","240","39360","39360","39360","tc","null","null","null","null","null","null","[3,1]","474.2369330202424","453.05753249978227","465.7315652869691"
"","canvas-keyboard-response","163","245576","0.0-6.0-3.22","583","","","","","rectangles with change","null","null","","","critical","c","d","t","240","164","164","240","164","240","trueblood","0","h","164","240","240","164","164","240","39360","39360","39360","tc","null","null","null","null","null","null","[3,1]","474.2369330202424","453.05753249978227","465.7315652869691"
"","canvas-keyboard-response","164","245593","0.0-6.0-4.22","583","","","","","clear_screen","null","null","","","critical","c","d","t","240","164","164","240","164","240","trueblood","0","h","164","240","240","164","164","240","39360","39360","39360","tc","null","null","null","null","null","null","[3,1]","474.2369330202424","453.05753249978227","465.7315652869691"
"","canvas-keyboard-response","165","245911","0.0-6.0-5.22","583","","","","","make choice","310","1","","","critical","c","d","t","240","164","164","240","164","240","trueblood","0","h","164","240","240","164","164","240","39360","39360","39360","tc","null","null","null","null","null","null","[3,1]","","",""
"","canvas-keyboard-response","166","245927","0.0-6.0-6.22","583","","","","","clear_screen","null","null","","","critical","c","d","t","240","164","164","240","164","240","trueblood","0","h","164","240","240","164","164","240","39360","39360","39360","tc","null","null","null","null","null","null","[3,1]","","",""
"","canvas-keyboard-response","167","246129","0.0-6.0-0.23","583","","","","","pre trial waiting period","null","null","","","critical","c","t","d","240","164","164","240","154.6796","220.0396","trueblood","0.14","h","164","240","240","164","154.6796","220.0396","39360","39360","34035.6388","td","null","null","null","null","null","null","[2,3]","486.9256283648267","461.7033057046277","476.0080234243305"
"","canvas-keyboard-response","168","246148","0.0-6.0-1.23","583","","","","","clear_screen","null","null","","","critical","c","t","d","240","164","164","240","154.6796","220.0396","trueblood","0.14","h","164","240","240","164","154.6796","220.0396","39360","39360","34035.6388","td","null","null","null","null","null","null","[2,3]","486.9256283648267","461.7033057046277","476.0080234243305"
"","canvas-keyboard-response","169","246658","0.0-6.0-2.23","583","","","","","rectangles no change","null","null","","","critical","c","t","d","240","164","164","240","154.6796","220.0396","trueblood","0.14","h","164","240","240","164","154.6796","220.0396","39360","39360","34035.6388","td","null","null","null","null","null","null","[2,3]","486.9256283648267","461.7033057046277","476.0080234243305"
"","canvas-keyboard-response","170","247993","0.0-6.0-3.23","583","","","","","rectangles with change","null","null","","","critical","c","t","d","240","164","164","240","154.6796","220.0396","trueblood","0.14","h","164","240","240","164","154.6796","220.0396","39360","39360","34035.6388","td","null","null","null","null","null","null","[2,3]","486.9256283648267","461.7033057046277","476.0080234243305"
"","canvas-keyboard-response","171","248013","0.0-6.0-4.23","583","","","","","clear_screen","null","null","","","critical","c","t","d","240","164","164","240","154.6796","220.0396","trueblood","0.14","h","164","240","240","164","154.6796","220.0396","39360","39360","34035.6388","td","null","null","null","null","null","null","[2,3]","486.9256283648267","461.7033057046277","476.0080234243305"
"","canvas-keyboard-response","172","248342","0.0-6.0-5.23","583","","","","","make choice","319","2","","","critical","c","t","d","240","164","164","240","154.6796","220.0396","trueblood","0.14","h","164","240","240","164","154.6796","220.0396","39360","39360","34035.6388","td","null","null","null","null","null","null","[2,3]","","",""
"","canvas-keyboard-response","173","248361","0.0-6.0-6.23","583","","","","","clear_screen","null","null","","","critical","c","t","d","240","164","164","240","154.6796","220.0396","trueblood","0.14","h","164","240","240","164","154.6796","220.0396","39360","39360","34035.6388","td","null","null","null","null","null","null","[2,3]","","",""
"","canvas-keyboard-response","174","248562","0.0-6.0-0.24","583","","","","","pre trial waiting period","null","null","","","critical","d","t","c","162.6685","237.1485","164","240","240","164","trueblood","0.02","h","164","240","240","164","162.6685","237.1485","39360","39360","38576.5967","td","null","null","null","null","null","null","[2,1]","432.0874591439881","436.00596472656673","506.66083916259015"
"","canvas-keyboard-response","175","248580","0.0-6.0-1.24","583","","","","","clear_screen","null","null","","","critical","d","t","c","162.6685","237.1485","164","240","240","164","trueblood","0.02","h","164","240","240","164","162.6685","237.1485","39360","39360","38576.5967","td","null","null","null","null","null","null","[2,1]","432.0874591439881","436.00596472656673","506.66083916259015"
"","canvas-keyboard-response","176","249092","0.0-6.0-2.24","583","","","","","rectangles no change","null","null","","","critical","d","t","c","162.6685","237.1485","164","240","240","164","trueblood","0.02","h","164","240","240","164","162.6685","237.1485","39360","39360","38576.5967","td","null","null","null","null","null","null","[2,1]","432.0874591439881","436.00596472656673","506.66083916259015"
"","canvas-keyboard-response","177","250426","0.0-6.0-3.24","583","","","","","rectangles with change","null","null","","","critical","d","t","c","162.6685","237.1485","164","240","240","164","trueblood","0.02","h","164","240","240","164","162.6685","237.1485","39360","39360","38576.5967","td","null","null","null","null","null","null","[2,1]","432.0874591439881","436.00596472656673","506.66083916259015"
"","canvas-keyboard-response","178","250445","0.0-6.0-4.24","583","","","","","clear_screen","null","null","","","critical","d","t","c","162.6685","237.1485","164","240","240","164","trueblood","0.02","h","164","240","240","164","162.6685","237.1485","39360","39360","38576.5967","td","null","null","null","null","null","null","[2,1]","432.0874591439881","436.00596472656673","506.66083916259015"
"","canvas-keyboard-response","179","250807","0.0-6.0-5.24","583","","","","","make choice","355","1","","","critical","d","t","c","162.6685","237.1485","164","240","240","164","trueblood","0.02","h","164","240","240","164","162.6685","237.1485","39360","39360","38576.5967","td","null","null","null","null","null","null","[2,1]","","",""
"","canvas-keyboard-response","180","250824","0.0-6.0-6.24","583","","","","","clear_screen","null","null","","","critical","d","t","c","162.6685","237.1485","164","240","240","164","trueblood","0.02","h","164","240","240","164","162.6685","237.1485","39360","39360","38576.5967","td","null","null","null","null","null","null","[2,1]","","",""
"","canvas-keyboard-response","181","251026","0.0-6.0-0.25","583","","","","","pre trial waiting period","null","null","","","critical","c","t","d","164","240","240","164","220.0396","154.6796","trueblood","0.14","w","240","164","164","240","220.0396","154.6796","39360","39360","34035.6388","tc","null","null","null","null","null","null","[2,1]","463.0657949918253","470.6197420651031","503.69086067486666"
"","canvas-keyboard-response","182","251045","0.0-6.0-1.25","583","","","","","clear_screen","null","null","","","critical","c","t","d","164","240","240","164","220.0396","154.6796","trueblood","0.14","w","240","164","164","240","220.0396","154.6796","39360","39360","34035.6388","tc","null","null","null","null","null","null","[2,1]","463.0657949918253","470.6197420651031","503.69086067486666"
"","canvas-keyboard-response","183","251556","0.0-6.0-2.25","583","","","","","rectangles no change","null","null","","","critical","c","t","d","164","240","240","164","220.0396","154.6796","trueblood","0.14","w","240","164","164","240","220.0396","154.6796","39360","39360","34035.6388","tc","null","null","null","null","null","null","[2,1]","463.0657949918253","470.6197420651031","503.69086067486666"
"","canvas-keyboard-response","184","252891","0.0-6.0-3.25","583","","","","","rectangles with change","null","null","","","critical","c","t","d","164","240","240","164","220.0396","154.6796","trueblood","0.14","w","240","164","164","240","220.0396","154.6796","39360","39360","34035.6388","tc","null","null","null","null","null","null","[2,1]","463.0657949918253","470.6197420651031","503.69086067486666"
"","canvas-keyboard-response","185","252909","0.0-6.0-4.25","583","","","","","clear_screen","null","null","","","critical","c","t","d","164","240","240","164","220.0396","154.6796","trueblood","0.14","w","240","164","164","240","220.0396","154.6796","39360","39360","34035.6388","tc","null","null","null","null","null","null","[2,1]","463.0657949918253","470.6197420651031","503.69086067486666"
"","canvas-keyboard-response","186","253190","0.0-6.0-5.25","583","","","","","make choice","273","2","","","critical","c","t","d","164","240","240","164","220.0396","154.6796","trueblood","0.14","w","240","164","164","240","220.0396","154.6796","39360","39360","34035.6388","tc","null","null","null","null","null","null","[2,1]","","",""
"","canvas-keyboard-response","187","253208","0.0-6.0-6.25","583","","","","","clear_screen","null","null","","","critical","c","t","d","164","240","240","164","220.0396","154.6796","trueblood","0.14","w","240","164","164","240","220.0396","154.6796","39360","39360","34035.6388","tc","null","null","null","null","null","null","[2,1]","","",""
"","canvas-keyboard-response","188","253409","0.0-6.0-0.26","583","","","","","pre trial waiting period","null","null","","","catch","l","sw","sh","249","161","145","161","199","186","trueblood","null","null","null","null","null","null","null","null","null","null","null","","180","200","260","200","36000","52000","[1,3]","508.19920878990354","501.56747386757684","455.4356211335611"
"","canvas-keyboard-response","189","253429","0.0-6.0-1.26","583","","","","","clear_screen","null","null","","","catch","l","sw","sh","249","161","145","161","199","186","trueblood","null","null","null","null","null","null","null","null","null","null","null","","180","200","260","200","36000","52000","[1,3]","508.19920878990354","501.56747386757684","455.4356211335611"
"","canvas-keyboard-response","190","253939","0.0-6.0-2.26","583","","","","","rectangles no change","null","null","","","catch","l","sw","sh","249","161","145","161","199","186","trueblood","null","null","null","null","null","null","null","null","null","null","null","","180","200","260","200","36000","52000","[1,3]","508.19920878990354","501.56747386757684","455.4356211335611"
"","canvas-keyboard-response","191","255273","0.0-6.0-3.26","583","","","","","rectangles with change","null","null","","","catch","l","sw","sh","249","161","145","161","199","186","trueblood","null","null","null","null","null","null","null","null","null","null","null","","180","200","260","200","36000","52000","[1,3]","508.19920878990354","501.56747386757684","455.4356211335611"
"","canvas-keyboard-response","192","255291","0.0-6.0-4.26","583","","","","","clear_screen","null","null","","","catch","l","sw","sh","249","161","145","161","199","186","trueblood","null","null","null","null","null","null","null","null","null","null","null","","180","200","260","200","36000","52000","[1,3]","508.19920878990354","501.56747386757684","455.4356211335611"
"","canvas-keyboard-response","193","256446","0.0-6.0-5.26","583","","","","","make choice","1148","1","","","catch","l","sw","sh","249","161","145","161","199","186","trueblood","null","null","null","null","null","null","null","null","null","null","null","","180","200","260","200","36000","52000","[1,3]","","",""
"","canvas-keyboard-response","194","256464","0.0-6.0-6.26","583","","","","","clear_screen","null","null","","","catch","l","sw","sh","249","161","145","161","199","186","trueblood","null","null","null","null","null","null","null","null","null","null","null","","180","200","260","200","36000","52000","[1,3]","","",""
"","canvas-keyboard-response","195","256665","0.0-6.0-0.27","583","","","","","pre trial waiting period","null","null","","","critical","t","c","d","240","164","164","240","227.1683","158.0083","spektor","0.09","w","240","164","164","240","227.1683","158.0083","39360","39360","35894.4834","td","null","null","null","null","null","null","[1,3]","507.3647186686786","151.50175040940405","545.1334964726664"
"","canvas-keyboard-response","196","256684","0.0-6.0-1.27","583","","","","","clear_screen","null","null","","","critical","t","c","d","240","164","164","240","227.1683","158.0083","spektor","0.09","w","240","164","164","240","227.1683","158.0083","39360","39360","35894.4834","td","null","null","null","null","null","null","[1,3]","507.3647186686786","151.50175040940405","545.1334964726664"
"","canvas-keyboard-response","197","257193","0.0-6.0-2.27","583","","","","","rectangles no change","null","null","","","critical","t","c","d","240","164","164","240","227.1683","158.0083","spektor","0.09","w","240","164","164","240","227.1683","158.0083","39360","39360","35894.4834","td","null","null","null","null","null","null","[1,3]","507.3647186686786","151.50175040940405","545.1334964726664"
"","canvas-keyboard-response","198","258528","0.0-6.0-3.27","583","","","","","rectangles with change","null","null","","","critical","t","c","d","240","164","164","240","227.1683","158.0083","spektor","0.09","w","240","164","164","240","227.1683","158.0083","39360","39360","35894.4834","td","null","null","null","null","null","null","[1,3]","507.3647186686786","151.50175040940405","545.1334964726664"
"","canvas-keyboard-response","199","258548","0.0-6.0-4.27","583","","","","","clear_screen","null","null","","","critical","t","c","d","240","164","164","240","227.1683","158.0083","spektor","0.09","w","240","164","164","240","227.1683","158.0083","39360","39360","35894.4834","td","null","null","null","null","null","null","[1,3]","507.3647186686786","151.50175040940405","545.1334964726664"
"","canvas-keyboard-response","200","258894","0.0-6.0-5.27","583","","","","","make choice","340","1","","","critical","t","c","d","240","164","164","240","227.1683","158.0083","spektor","0.09","w","240","164","164","240","227.1683","158.0083","39360","39360","35894.4834","td","null","null","null","null","null","null","[1,3]","","",""
"","canvas-keyboard-response","201","258912","0.0-6.0-6.27","583","","","","","clear_screen","null","null","","","critical","t","c","d","240","164","164","240","227.1683","158.0083","spektor","0.09","w","240","164","164","240","227.1683","158.0083","39360","39360","35894.4834","td","null","null","null","null","null","null","[1,3]","","",""
"","canvas-keyboard-response","202","259113","0.0-6.0-0.28","583","","","","","pre trial waiting period","null","null","","","critical","d","t","c","227.1683","158.0083","240","164","164","240","trueblood","0.09","w","240","164","164","240","227.1683","158.0083","39360","39360","35894.4834","tc","null","null","null","null","null","null","[2,3]","493.02229060604327","508.19112424656095","449.38748010274156"
"","canvas-keyboard-response","203","259131","0.0-6.0-1.28","583","","","","","clear_screen","null","null","","","critical","d","t","c","227.1683","158.0083","240","164","164","240","trueblood","0.09","w","240","164","164","240","227.1683","158.0083","39360","39360","35894.4834","tc","null","null","null","null","null","null","[2,3]","493.02229060604327","508.19112424656095","449.38748010274156"
"","canvas-keyboard-response","204","259649","0.0-6.0-2.28","583","","","","","rectangles no change","null","null","","","critical","d","t","c","227.1683","158.0083","240","164","164","240","trueblood","0.09","w","240","164","164","240","227.1683","158.0083","39360","39360","35894.4834","tc","null","null","null","null","null","null","[2,3]","493.02229060604327","508.19112424656095","449.38748010274156"
"","canvas-keyboard-response","205","260984","0.0-6.0-3.28","583","","","","","rectangles with change","null","null","","","critical","d","t","c","227.1683","158.0083","240","164","164","240","trueblood","0.09","w","240","164","164","240","227.1683","158.0083","39360","39360","35894.4834","tc","null","null","null","null","null","null","[2,3]","493.02229060604327","508.19112424656095","449.38748010274156"
"","canvas-keyboard-response","206","261002","0.0-6.0-4.28","583","","","","","clear_screen","null","null","","","critical","d","t","c","227.1683","158.0083","240","164","164","240","trueblood","0.09","w","240","164","164","240","227.1683","158.0083","39360","39360","35894.4834","tc","null","null","null","null","null","null","[2,3]","493.02229060604327","508.19112424656095","449.38748010274156"
"","canvas-keyboard-response","207","261407","0.0-6.0-5.28","583","","","","","make choice","397","2","","","critical","d","t","c","227.1683","158.0083","240","164","164","240","trueblood","0.09","w","240","164","164","240","227.1683","158.0083","39360","39360","35894.4834","tc","null","null","null","null","null","null","[2,3]","","",""
"","canvas-keyboard-response","208","261424","0.0-6.0-6.28","583","","","","","clear_screen","null","null","","","critical","d","t","c","227.1683","158.0083","240","164","164","240","trueblood","0.09","w","240","164","164","240","227.1683","158.0083","39360","39360","35894.4834","tc","null","null","null","null","null","null","[2,3]","","",""
"","canvas-keyboard-response","209","261625","0.0-6.0-0.29","583","","","","","pre trial waiting period","null","null","","","catch","sh","sw","l","211","165","204","176","191","259","spektor","null","null","null","null","null","null","null","null","null","null","null","","180","200","260","200","36000","52000","[2,3]","492.50093502149963","169.59256919467822","455.3183543139924"
"","canvas-keyboard-response","210","261644","0.0-6.0-1.29","583","","","","","clear_screen","null","null","","","catch","sh","sw","l","211","165","204","176","191","259","spektor","null","null","null","null","null","null","null","null","null","null","null","","180","200","260","200","36000","52000","[2,3]","492.50093502149963","169.59256919467822","455.3183543139924"
"","canvas-keyboard-response","211","262157","0.0-6.0-2.29","583","","","","","rectangles no change","null","null","","","catch","sh","sw","l","211","165","204","176","191","259","spektor","null","null","null","null","null","null","null","null","null","null","null","","180","200","260","200","36000","52000","[2,3]","492.50093502149963","169.59256919467822","455.3183543139924"
"","canvas-keyboard-response","212","263492","0.0-6.0-3.29","583","","","","","rectangles with change","null","null","","","catch","sh","sw","l","211","165","204","176","191","259","spektor","null","null","null","null","null","null","null","null","null","null","null","","180","200","260","200","36000","52000","[2,3]","492.50093502149963","169.59256919467822","455.3183543139924"
"","canvas-keyboard-response","213","263511","0.0-6.0-4.29","583","","","","","clear_screen","null","null","","","catch","sh","sw","l","211","165","204","176","191","259","spektor","null","null","null","null","null","null","null","null","null","null","null","","180","200","260","200","36000","52000","[2,3]","492.50093502149963","169.59256919467822","455.3183543139924"
"","canvas-keyboard-response","214","263790","0.0-6.0-5.29","583","","","","","make choice","273","3","","","catch","sh","sw","l","211","165","204","176","191","259","spektor","null","null","null","null","null","null","null","null","null","null","null","","180","200","260","200","36000","52000","[2,3]","","",""
"","canvas-keyboard-response","215","263808","0.0-6.0-6.29","583","","","","","clear_screen","null","null","","","catch","sh","sw","l","211","165","204","176","191","259","spektor","null","null","null","null","null","null","null","null","null","null","null","","180","200","260","200","36000","52000","[2,3]","","",""
"","canvas-keyboard-response","216","264009","0.0-6.0-0.30","583","","","","","pre trial waiting period","null","null","","","critical","t","c","d","164","240","240","164","154.6796","220.0396","spektor","0.14","h","164","240","240","164","154.6796","220.0396","39360","39360","34035.6388","tc","null","null","null","null","null","null","[1,2]","456.6619147048982","160.9862926682266","490.69750030037636"
"","canvas-keyboard-response","217","264028","0.0-6.0-1.30","583","","","","","clear_screen","null","null","","","critical","t","c","d","164","240","240","164","154.6796","220.0396","spektor","0.14","h","164","240","240","164","154.6796","220.0396","39360","39360","34035.6388","tc","null","null","null","null","null","null","[1,2]","456.6619147048982","160.9862926682266","490.69750030037636"
"","canvas-keyboard-response","218","264540","0.0-6.0-2.30","583","","","","","rectangles no change","null","null","","","critical","t","c","d","164","240","240","164","154.6796","220.0396","spektor","0.14","h","164","240","240","164","154.6796","220.0396","39360","39360","34035.6388","tc","null","null","null","null","null","null","[1,2]","456.6619147048982","160.9862926682266","490.69750030037636"
"","canvas-keyboard-response","219","265877","0.0-6.0-3.30","583","","","","","rectangles with change","null","null","","","critical","t","c","d","164","240","240","164","154.6796","220.0396","spektor","0.14","h","164","240","240","164","154.6796","220.0396","39360","39360","34035.6388","tc","null","null","null","null","null","null","[1,2]","456.6619147048982","160.9862926682266","490.69750030037636"
"","canvas-keyboard-response","220","265895","0.0-6.0-4.30","583","","","","","clear_screen","null","null","","","critical","t","c","d","164","240","240","164","154.6796","220.0396","spektor","0.14","h","164","240","240","164","154.6796","220.0396","39360","39360","34035.6388","tc","null","null","null","null","null","null","[1,2]","456.6619147048982","160.9862926682266","490.69750030037636"
"","canvas-keyboard-response","221","266158","0.0-6.0-5.30","583","","","","","make choice","255","2","","","critical","t","c","d","164","240","240","164","154.6796","220.0396","spektor","0.14","h","164","240","240","164","154.6796","220.0396","39360","39360","34035.6388","tc","null","null","null","null","null","null","[1,2]","","",""
"","canvas-keyboard-response","222","266176","0.0-6.0-6.30","583","","","","","clear_screen","null","null","","","critical","t","c","d","164","240","240","164","154.6796","220.0396","spektor","0.14","h","164","240","240","164","154.6796","220.0396","39360","39360","34035.6388","tc","null","null","null","null","null","null","[1,2]","","",""
"","canvas-keyboard-response","223","266378","0.0-6.0-0.31","583","","","","","pre trial waiting period","null","null","","","critical","d","t","c","220.0396","154.6796","240","164","164","240","trueblood","0.14","w","240","164","164","240","220.0396","154.6796","39360","39360","34035.6388","dc","null","null","null","null","null","null","[1,3]","519.9044796434803","496.37995183888165","438.21786112500143"
"","canvas-keyboard-response","224","266396","0.0-6.0-1.31","583","","","","","clear_screen","null","null","","","critical","d","t","c","220.0396","154.6796","240","164","164","240","trueblood","0.14","w","240","164","164","240","220.0396","154.6796","39360","39360","34035.6388","dc","null","null","null","null","null","null","[1,3]","519.9044796434803","496.37995183888165","438.21786112500143"
"","canvas-keyboard-response","225","266905","0.0-6.0-2.31","583","","","","","rectangles no change","null","null","","","critical","d","t","c","220.0396","154.6796","240","164","164","240","trueblood","0.14","w","240","164","164","240","220.0396","154.6796","39360","39360","34035.6388","dc","null","null","null","null","null","null","[1,3]","519.9044796434803","496.37995183888165","438.21786112500143"
"","canvas-keyboard-response","226","268240","0.0-6.0-3.31","583","","","","","rectangles with change","null","null","","","critical","d","t","c","220.0396","154.6796","240","164","164","240","trueblood","0.14","w","240","164","164","240","220.0396","154.6796","39360","39360","34035.6388","dc","null","null","null","null","null","null","[1,3]","519.9044796434803","496.37995183888165","438.21786112500143"
"","canvas-keyboard-response","227","268261","0.0-6.0-4.31","583","","","","","clear_screen","null","null","","","critical","d","t","c","220.0396","154.6796","240","164","164","240","trueblood","0.14","w","240","164","164","240","220.0396","154.6796","39360","39360","34035.6388","dc","null","null","null","null","null","null","[1,3]","519.9044796434803","496.37995183888165","438.21786112500143"
"","canvas-keyboard-response","228","268526","0.0-6.0-5.31","583","","","","","make choice","258","3","","","critical","d","t","c","220.0396","154.6796","240","164","164","240","trueblood","0.14","w","240","164","164","240","220.0396","154.6796","39360","39360","34035.6388","dc","null","null","null","null","null","null","[1,3]","","",""
"","canvas-keyboard-response","229","268544","0.0-6.0-6.31","583","","","","","clear_screen","null","null","","","critical","d","t","c","220.0396","154.6796","240","164","164","240","trueblood","0.14","w","240","164","164","240","220.0396","154.6796","39360","39360","34035.6388","dc","null","null","null","null","null","null","[1,3]","","",""
"","canvas-keyboard-response","230","268745","0.0-6.0-0.32","583","","","","","pre trial waiting period","null","null","","","critical","c","d","t","164","240","220.0396","154.6796","240","164","spektor","0.14","w","240","164","164","240","220.0396","154.6796","39360","39360","34035.6388","dc","null","null","null","null","null","null","[2,1]","461.81007749062564","198.82769014892258","499.588604866755"
"","canvas-keyboard-response","231","268763","0.0-6.0-1.32","583","","","","","clear_screen","null","null","","","critical","c","d","t","164","240","220.0396","154.6796","240","164","spektor","0.14","w","240","164","164","240","220.0396","154.6796","39360","39360","34035.6388","dc","null","null","null","null","null","null","[2,1]","461.81007749062564","198.82769014892258","499.588604866755"
"","canvas-keyboard-response","232","269274","0.0-6.0-2.32","583","","","","","rectangles no change","null","null","","","critical","c","d","t","164","240","220.0396","154.6796","240","164","spektor","0.14","w","240","164","164","240","220.0396","154.6796","39360","39360","34035.6388","dc","null","null","null","null","null","null","[2,1]","461.81007749062564","198.82769014892258","499.588604866755"
"","canvas-keyboard-response","233","270608","0.0-6.0-3.32","583","","","","","rectangles with change","null","null","","","critical","c","d","t","164","240","220.0396","154.6796","240","164","spektor","0.14","w","240","164","164","240","220.0396","154.6796","39360","39360","34035.6388","dc","null","null","null","null","null","null","[2,1]","461.81007749062564","198.82769014892258","499.588604866755"
"","canvas-keyboard-response","234","270626","0.0-6.0-4.32","583","","","","","clear_screen","null","null","","","critical","c","d","t","164","240","220.0396","154.6796","240","164","spektor","0.14","w","240","164","164","240","220.0396","154.6796","39360","39360","34035.6388","dc","null","null","null","null","null","null","[2,1]","461.81007749062564","198.82769014892258","499.588604866755"
"","canvas-keyboard-response","235","270935","0.0-6.0-5.32","583","","","","","make choice","298","1","","","critical","c","d","t","164","240","220.0396","154.6796","240","164","spektor","0.14","w","240","164","164","240","220.0396","154.6796","39360","39360","34035.6388","dc","null","null","null","null","null","null","[2,1]","","",""
"","canvas-keyboard-response","236","270952","0.0-6.0-6.32","583","","","","","clear_screen","null","null","","","critical","c","d","t","164","240","220.0396","154.6796","240","164","spektor","0.14","w","240","164","164","240","220.0396","154.6796","39360","39360","34035.6388","dc","null","null","null","null","null","null","[2,1]","","",""
"","canvas-keyboard-response","237","271154","0.0-6.0-0.33","583","","","","","pre trial waiting period","null","null","","","critical","c","d","t","164","240","240","164","240","164","spektor","0","w","240","164","164","240","240","164","39360","39360","39360","dc","null","null","null","null","null","null","[2,1]","497.89776690799226","195.83343345854988","498.2567231941438"
"","canvas-keyboard-response","238","271172","0.0-6.0-1.33","583","","","","","clear_screen","null","null","","","critical","c","d","t","164","240","240","164","240","164","spektor","0","w","240","164","164","240","240","164","39360","39360","39360","dc","null","null","null","null","null","null","[2,1]","497.89776690799226","195.83343345854988","498.2567231941438"
"","canvas-keyboard-response","239","271684","0.0-6.0-2.33","583","","","","","rectangles no change","null","null","","","critical","c","d","t","164","240","240","164","240","164","spektor","0","w","240","164","164","240","240","164","39360","39360","39360","dc","null","null","null","null","null","null","[2,1]","497.89776690799226","195.83343345854988","498.2567231941438"
"","canvas-keyboard-response","240","273023","0.0-6.0-3.33","583","","","","","rectangles with change","null","null","","","critical","c","d","t","164","240","240","164","240","164","spektor","0","w","240","164","164","240","240","164","39360","39360","39360","dc","null","null","null","null","null","null","[2,1]","497.89776690799226","195.83343345854988","498.2567231941438"
"","canvas-keyboard-response","241","273040","0.0-6.0-4.33","583","","","","","clear_screen","null","null","","","critical","c","d","t","164","240","240","164","240","164","spektor","0","w","240","164","164","240","240","164","39360","39360","39360","dc","null","null","null","null","null","null","[2,1]","497.89776690799226","195.83343345854988","498.2567231941438"
"","canvas-keyboard-response","242","274767","0.0-6.0-5.33","583","","","","","make choice","1718","2","","","critical","c","d","t","164","240","240","164","240","164","spektor","0","w","240","164","164","240","240","164","39360","39360","39360","dc","null","null","null","null","null","null","[2,1]","","",""
"","canvas-keyboard-response","243","274784","0.0-6.0-6.33","583","","","","","clear_screen","null","null","","","critical","c","d","t","164","240","240","164","240","164","spektor","0","w","240","164","164","240","240","164","39360","39360","39360","dc","null","null","null","null","null","null","[2,1]","","",""
"","canvas-keyboard-response","244","274985","0.0-6.0-0.34","583","","","","","pre trial waiting period","null","null","","","catch","sw","sh","l","180","200","168","156","243","175","trueblood","null","null","null","null","null","null","null","null","null","null","null","","180","200","260","200","36000","52000","[2,3]","455.3122697588737","515.2602844132024","493.50705140704935"
"","canvas-keyboard-response","245","275005","0.0-6.0-1.34","583","","","","","clear_screen","null","null","","","catch","sw","sh","l","180","200","168","156","243","175","trueblood","null","null","null","null","null","null","null","null","null","null","null","","180","200","260","200","36000","52000","[2,3]","455.3122697588737","515.2602844132024","493.50705140704935"
"","canvas-keyboard-response","246","275518","0.0-6.0-2.34","583","","","","","rectangles no change","null","null","","","catch","sw","sh","l","180","200","168","156","243","175","trueblood","null","null","null","null","null","null","null","null","null","null","null","","180","200","260","200","36000","52000","[2,3]","455.3122697588737","515.2602844132024","493.50705140704935"
"","canvas-keyboard-response","247","276852","0.0-6.0-3.34","583","","","","","rectangles with change","null","null","","","catch","sw","sh","l","180","200","168","156","243","175","trueblood","null","null","null","null","null","null","null","null","null","null","null","","180","200","260","200","36000","52000","[2,3]","455.3122697588737","515.2602844132024","493.50705140704935"
"","canvas-keyboard-response","248","276863","0.0-6.0-4.34","583","","","","","clear_screen","4","3","","","catch","sw","sh","l","180","200","168","156","243","175","trueblood","null","null","null","null","null","null","null","null","null","null","null","","180","200","260","200","36000","52000","[2,3]","455.3122697588737","515.2602844132024","493.50705140704935"
"","canvas-keyboard-response","249","278990","0.0-6.0-5.34","583","","","","","make choice","2118","3","","","catch","sw","sh","l","180","200","168","156","243","175","trueblood","null","null","null","null","null","null","null","null","null","null","null","","180","200","260","200","36000","52000","[2,3]","","",""
"","canvas-keyboard-response","250","279007","0.0-6.0-6.34","583","","","","","clear_screen","null","null","","","catch","sw","sh","l","180","200","168","156","243","175","trueblood","null","null","null","null","null","null","null","null","null","null","null","","180","200","260","200","36000","52000","[2,3]","","",""
"","canvas-keyboard-response","251","279208","0.0-6.0-0.35","583","","","","","pre trial waiting period","null","null","","","critical","c","d","t","240","164","162.6685","237.1485","164","240","spektor","0.02","h","164","240","240","164","162.6685","237.1485","39360","39360","38576.5967","dc","null","null","null","null","null","null","[2,1]","498.77219578171196","120.73945159973151","473.24377586681857"
"","canvas-keyboard-response","252","279230","0.0-6.0-1.35","583","","","","","clear_screen","null","null","","","critical","c","d","t","240","164","162.6685","237.1485","164","240","spektor","0.02","h","164","240","240","164","162.6685","237.1485","39360","39360","38576.5967","dc","null","null","null","null","null","null","[2,1]","498.77219578171196","120.73945159973151","473.24377586681857"
"","canvas-keyboard-response","253","279741","0.0-6.0-2.35","583","","","","","rectangles no change","null","null","","","critical","c","d","t","240","164","162.6685","237.1485","164","240","spektor","0.02","h","164","240","240","164","162.6685","237.1485","39360","39360","38576.5967","dc","null","null","null","null","null","null","[2,1]","498.77219578171196","120.73945159973151","473.24377586681857"
"","canvas-keyboard-response","254","281075","0.0-6.0-3.35","583","","","","","rectangles with change","null","null","","","critical","c","d","t","240","164","162.6685","237.1485","164","240","spektor","0.02","h","164","240","240","164","162.6685","237.1485","39360","39360","38576.5967","dc","null","null","null","null","null","null","[2,1]","498.77219578171196","120.73945159973151","473.24377586681857"
"","canvas-keyboard-response","255","281094","0.0-6.0-4.35","583","","","","","clear_screen","null","null","","","critical","c","d","t","240","164","162.6685","237.1485","164","240","spektor","0.02","h","164","240","240","164","162.6685","237.1485","39360","39360","38576.5967","dc","null","null","null","null","null","null","[2,1]","498.77219578171196","120.73945159973151","473.24377586681857"
"","canvas-keyboard-response","256","281630","0.0-6.0-5.35","583","","","","","make choice","529","1","","","critical","c","d","t","240","164","162.6685","237.1485","164","240","spektor","0.02","h","164","240","240","164","162.6685","237.1485","39360","39360","38576.5967","dc","null","null","null","null","null","null","[2,1]","","",""
"","canvas-keyboard-response","257","281647","0.0-6.0-6.35","583","","","","","clear_screen","null","null","","","critical","c","d","t","240","164","162.6685","237.1485","164","240","spektor","0.02","h","164","240","240","164","162.6685","237.1485","39360","39360","38576.5967","dc","null","null","null","null","null","null","[2,1]","","",""
"","canvas-keyboard-response","258","281849","0.0-6.0-0.36","583","","","","","pre trial waiting period","null","null","","","catch","sw","l","sh","180","200","249","171","168","196","spektor","null","null","null","null","null","null","null","null","null","null","null","","180","200","260","200","36000","52000","[1,2]","512.6219266546472","206.84192885181545","524.7310877712478"
"","canvas-keyboard-response","259","281868","0.0-6.0-1.36","583","","","","","clear_screen","null","null","","","catch","sw","l","sh","180","200","249","171","168","196","spektor","null","null","null","null","null","null","null","null","null","null","null","","180","200","260","200","36000","52000","[1,2]","512.6219266546472","206.84192885181545","524.7310877712478"
"","canvas-keyboard-response","260","282378","0.0-6.0-2.36","583","","","","","rectangles no change","null","null","","","catch","sw","l","sh","180","200","249","171","168","196","spektor","null","null","null","null","null","null","null","null","null","null","null","","180","200","260","200","36000","52000","[1,2]","512.6219266546472","206.84192885181545","524.7310877712478"
"","canvas-keyboard-response","261","283712","0.0-6.0-3.36","583","","","","","rectangles with change","null","null","","","catch","sw","l","sh","180","200","249","171","168","196","spektor","null","null","null","null","null","null","null","null","null","null","null","","180","200","260","200","36000","52000","[1,2]","512.6219266546472","206.84192885181545","524.7310877712478"
"","canvas-keyboard-response","262","283730","0.0-6.0-4.36","583","","","","","clear_screen","null","null","","","catch","sw","l","sh","180","200","249","171","168","196","spektor","null","null","null","null","null","null","null","null","null","null","null","","180","200","260","200","36000","52000","[1,2]","512.6219266546472","206.84192885181545","524.7310877712478"
"","canvas-keyboard-response","263","284102","0.0-6.0-5.36","583","","","","","make choice","363","2","","","catch","sw","l","sh","180","200","249","171","168","196","spektor","null","null","null","null","null","null","null","null","null","null","null","","180","200","260","200","36000","52000","[1,2]","","",""
"","canvas-keyboard-response","264","284120","0.0-6.0-6.36","583","","","","","clear_screen","null","null","","","catch","sw","l","sh","180","200","249","171","168","196","spektor","null","null","null","null","null","null","null","null","null","null","null","","180","200","260","200","36000","52000","[1,2]","","",""
