"success","trial_type","trial_index","time_elapsed","internal_node_id","sub_n","timeout","failed_images","failed_audio","failed_video","screen_id","rt","response","stimulus","view_history","trial","r1","r2","r3","w1","h1","w2","h2","w3","h3","display","tdd","tdo","tw","th","cw","ch","dw","dh","ta","ca","da","probe","csls","csss","clls","clss","sa","la","probe_rects","r1yloc","r2yloc","r3yloc"
"true","fullscreen","0","2701","0.0-0.0","546","","","","","","","","","","","","","","","","","","","","","","","","","","","","","","","","","","","","","","","","","",""
"true","preload","1","2773","0.0-1.0","546","false","[]","[]","[]","img preload","","","","","","","","","","","","","","","","","","","","","","","","","","","","","","","","","","","","",""
"","survey-html-form","2","6407","0.0-2.0","546","","","","","enter-sub-number","3627","{""response"":""546""}","","","","","","","","","","","","","","","","","","","","","","","","","","","","","","","","","","",""
"","image-button-response","3","58093","0.0-3.0","546","","","","","","51617","0","consent.png","","","","","","","","","","","","","","","","","","","","","","","","","","","","","","","","","",""
"","html-button-response","4","66397","0.0-4.0","546","","","","","intro mssg","8298","0","<div style= ""font-size:25px;"" <p> <strong> Welcome! </strong><br> <p style=""color:#8B0000; font-size:25px;""><strong> Please do NOT exit full screen until you are done with the experiment. </strong> </p><p style=""font-size:25px;color:#8B0000;""> <strong> Your data will be lost <br> if you try to go back or refresh the page after the experiment starts. Feel free to click ""previous"" during the instructions, however.</strong> </p><br><p> <strong> Thanks in advance for your contribution to our research! </strong></p>","","","","","","","","","","","","","","","","","","","","","","","","","","","","","","","","","",""
"","instructions","5","112917","0.0-5.0","546","","","","","instructions","46516","","","[{""page_index"":0,""viewing_time"":10028},{""page_index"":1,""viewing_time"":7143},{""page_index"":2,""viewing_time"":5792},{""page_index"":3,""viewing_time"":10888},{""page_index"":4,""viewing_time"":7137},{""page_index"":5,""viewing_time"":1560},{""page_index"":6,""viewing_time"":2984},{""page_index"":7,""viewing_time"":984}]","","","","","","","","","","","","","","","","","","","","","","","","","","","","","","","","",""
"","canvas-keyboard-response","6","113123","0.0-6.0-0.0","546","","","","","pre trial waiting period","null","null","","","critical","c","d","t","240","164","160.6713","232.8713","164","240","spektor","0.05","h","164","240","240","164","160.6713","232.8713","39360","39360","37415.7294","td","null","null","null","null","null","null","[3,2]","517.0778394562491","118.6562459616474","463.0831808827643"
"","canvas-keyboard-response","7","113145","0.0-6.0-1.0","546","","","","","clear_screen","null","null","","","critical","c","d","t","240","164","160.6713","232.8713","164","240","spektor","0.05","h","164","240","240","164","160.6713","232.8713","39360","39360","37415.7294","td","null","null","null","null","null","null","[3,2]","517.0778394562491","118.6562459616474","463.0831808827643"
"","canvas-keyboard-response","8","113654","0.0-6.0-2.0","546","","","","","rectangles no change","null","null","","","critical","c","d","t","240","164","160.6713","232.8713","164","240","spektor","0.05","h","164","240","240","164","160.6713","232.8713","39360","39360","37415.7294","td","null","null","null","null","null","null","[3,2]","517.0778394562491","118.6562459616474","463.0831808827643"
"","canvas-keyboard-response","9","114989","0.0-6.0-3.0","546","","","","","rectangles with change","null","null","","","critical","c","d","t","240","164","160.6713","232.8713","164","240","spektor","0.05","h","164","240","240","164","160.6713","232.8713","39360","39360","37415.7294","td","null","null","null","null","null","null","[3,2]","517.0778394562491","118.6562459616474","463.0831808827643"
"","canvas-keyboard-response","10","115009","0.0-6.0-4.0","546","","","","","clear_screen","null","null","","","critical","c","d","t","240","164","160.6713","232.8713","164","240","spektor","0.05","h","164","240","240","164","160.6713","232.8713","39360","39360","37415.7294","td","null","null","null","null","null","null","[3,2]","517.0778394562491","118.6562459616474","463.0831808827643"
"","canvas-keyboard-response","11","115228","0.0-6.0-5.0","546","","","","","make choice","213","3","","","critical","c","d","t","240","164","160.6713","232.8713","164","240","spektor","0.05","h","164","240","240","164","160.6713","232.8713","39360","39360","37415.7294","td","null","null","null","null","null","null","[3,2]","","",""
"","canvas-keyboard-response","12","115246","0.0-6.0-6.0","546","","","","","clear_screen","null","null","","","critical","c","d","t","240","164","160.6713","232.8713","164","240","spektor","0.05","h","164","240","240","164","160.6713","232.8713","39360","39360","37415.7294","td","null","null","null","null","null","null","[3,2]","","",""
"","canvas-keyboard-response","13","115447","0.0-6.0-0.1","546","","","","","pre trial waiting period","null","null","","","critical","t","d","c","240","164","240","164","164","240","spektor","0","w","240","164","164","240","240","164","39360","39360","39360","tc","null","null","null","null","null","null","[1,3]","510.67463439918","203.40205359874912","503.61340356030337"
"","canvas-keyboard-response","14","115471","0.0-6.0-1.1","546","","","","","clear_screen","null","null","","","critical","t","d","c","240","164","240","164","164","240","spektor","0","w","240","164","164","240","240","164","39360","39360","39360","tc","null","null","null","null","null","null","[1,3]","510.67463439918","203.40205359874912","503.61340356030337"
"","canvas-keyboard-response","15","115978","0.0-6.0-2.1","546","","","","","rectangles no change","null","null","","","critical","t","d","c","240","164","240","164","164","240","spektor","0","w","240","164","164","240","240","164","39360","39360","39360","tc","null","null","null","null","null","null","[1,3]","510.67463439918","203.40205359874912","503.61340356030337"
"","canvas-keyboard-response","16","117315","0.0-6.0-3.1","546","","","","","rectangles with change","null","null","","","critical","t","d","c","240","164","240","164","164","240","spektor","0","w","240","164","164","240","240","164","39360","39360","39360","tc","null","null","null","null","null","null","[1,3]","510.67463439918","203.40205359874912","503.61340356030337"
"","canvas-keyboard-response","17","117336","0.0-6.0-4.1","546","","","","","clear_screen","null","null","","","critical","t","d","c","240","164","240","164","164","240","spektor","0","w","240","164","164","240","240","164","39360","39360","39360","tc","null","null","null","null","null","null","[1,3]","510.67463439918","203.40205359874912","503.61340356030337"
"","canvas-keyboard-response","18","119437","0.0-6.0-5.1","546","","","","","make choice","2092","1","","","critical","t","d","c","240","164","240","164","164","240","spektor","0","w","240","164","164","240","240","164","39360","39360","39360","tc","null","null","null","null","null","null","[1,3]","","",""
"","canvas-keyboard-response","19","119457","0.0-6.0-6.1","546","","","","","clear_screen","null","null","","","critical","t","d","c","240","164","240","164","164","240","spektor","0","w","240","164","164","240","240","164","39360","39360","39360","tc","null","null","null","null","null","null","[1,3]","","",""
"","canvas-keyboard-response","20","119658","0.0-6.0-0.2","546","","","","","pre trial waiting period","null","null","","","critical","c","d","t","164","240","220.0396","154.6796","240","164","trueblood","0.14","w","240","164","164","240","220.0396","154.6796","39360","39360","34035.6388","tc","null","null","null","null","null","null","[3,1]","450.4093468481197","511.7708842830598","490.33981981085896"
"","canvas-keyboard-response","21","119677","0.0-6.0-1.2","546","","","","","clear_screen","null","null","","","critical","c","d","t","164","240","220.0396","154.6796","240","164","trueblood","0.14","w","240","164","164","240","220.0396","154.6796","39360","39360","34035.6388","tc","null","null","null","null","null","null","[3,1]","450.4093468481197","511.7708842830598","490.33981981085896"
"","canvas-keyboard-response","22","120183","0.0-6.0-2.2","546","","","","","rectangles no change","null","null","","","critical","c","d","t","164","240","220.0396","154.6796","240","164","trueblood","0.14","w","240","164","164","240","220.0396","154.6796","39360","39360","34035.6388","tc","null","null","null","null","null","null","[3,1]","450.4093468481197","511.7708842830598","490.33981981085896"
"","canvas-keyboard-response","23","121523","0.0-6.0-3.2","546","","","","","rectangles with change","null","null","","","critical","c","d","t","164","240","220.0396","154.6796","240","164","trueblood","0.14","w","240","164","164","240","220.0396","154.6796","39360","39360","34035.6388","tc","null","null","null","null","null","null","[3,1]","450.4093468481197","511.7708842830598","490.33981981085896"
"","canvas-keyboard-response","24","121544","0.0-6.0-4.2","546","","","","","clear_screen","null","null","","","critical","c","d","t","164","240","220.0396","154.6796","240","164","trueblood","0.14","w","240","164","164","240","220.0396","154.6796","39360","39360","34035.6388","tc","null","null","null","null","null","null","[3,1]","450.4093468481197","511.7708842830598","490.33981981085896"
"","canvas-keyboard-response","25","123453","0.0-6.0-5.2","546","","","","","make choice","1903","1","","","critical","c","d","t","164","240","220.0396","154.6796","240","164","trueblood","0.14","w","240","164","164","240","220.0396","154.6796","39360","39360","34035.6388","tc","null","null","null","null","null","null","[3,1]","","",""
"","canvas-keyboard-response","26","123472","0.0-6.0-6.2","546","","","","","clear_screen","null","null","","","critical","c","d","t","164","240","220.0396","154.6796","240","164","trueblood","0.14","w","240","164","164","240","220.0396","154.6796","39360","39360","34035.6388","tc","null","null","null","null","null","null","[3,1]","","",""
"","canvas-keyboard-response","27","123673","0.0-6.0-0.3","546","","","","","pre trial waiting period","null","null","","","catch","sw","sh","l","180","200","214","193","230","231","trueblood","null","null","null","null","null","null","null","null","null","null","null","","180","200","260","200","36000","52000","[2,3]","455.68880158122664","494.93243220160275","445.6644875534899"
"","canvas-keyboard-response","28","123694","0.0-6.0-1.3","546","","","","","clear_screen","null","null","","","catch","sw","sh","l","180","200","214","193","230","231","trueblood","null","null","null","null","null","null","null","null","null","null","null","","180","200","260","200","36000","52000","[2,3]","455.68880158122664","494.93243220160275","445.6644875534899"
"","canvas-keyboard-response","29","124200","0.0-6.0-2.3","546","","","","","rectangles no change","null","null","","","catch","sw","sh","l","180","200","214","193","230","231","trueblood","null","null","null","null","null","null","null","null","null","null","null","","180","200","260","200","36000","52000","[2,3]","455.68880158122664","494.93243220160275","445.6644875534899"
"","canvas-keyboard-response","30","125534","0.0-6.0-3.3","546","","","","","rectangles with change","null","null","","","catch","sw","sh","l","180","200","214","193","230","231","trueblood","null","null","null","null","null","null","null","null","null","null","null","","180","200","260","200","36000","52000","[2,3]","455.68880158122664","494.93243220160275","445.6644875534899"
"","canvas-keyboard-response","31","125556","0.0-6.0-4.3","546","","","","","clear_screen","null","null","","","catch","sw","sh","l","180","200","214","193","230","231","trueblood","null","null","null","null","null","null","null","null","null","null","null","","180","200","260","200","36000","52000","[2,3]","455.68880158122664","494.93243220160275","445.6644875534899"
"","canvas-keyboard-response","32","127733","0.0-6.0-5.3","546","","","","","make choice","2169","3","","","catch","sw","sh","l","180","200","214","193","230","231","trueblood","null","null","null","null","null","null","null","null","null","null","null","","180","200","260","200","36000","52000","[2,3]","","",""
"","canvas-keyboard-response","33","127751","0.0-6.0-6.3","546","","","","","clear_screen","null","null","","","catch","sw","sh","l","180","200","214","193","230","231","trueblood","null","null","null","null","null","null","null","null","null","null","null","","180","200","260","200","36000","52000","[2,3]","","",""
"","canvas-keyboard-response","34","127953","0.0-6.0-0.4","546","","","","","pre trial waiting period","null","null","","","critical","t","c","d","164","240","240","164","154.6796","220.0396","spektor","0.14","h","164","240","240","164","154.6796","220.0396","39360","39360","34035.6388","td","null","null","null","null","null","null","[1,3]","481.8502173985707","198.1752324718397","487.26610569831354"
"","canvas-keyboard-response","35","127973","0.0-6.0-1.4","546","","","","","clear_screen","null","null","","","critical","t","c","d","164","240","240","164","154.6796","220.0396","spektor","0.14","h","164","240","240","164","154.6796","220.0396","39360","39360","34035.6388","td","null","null","null","null","null","null","[1,3]","481.8502173985707","198.1752324718397","487.26610569831354"
"","canvas-keyboard-response","36","128482","0.0-6.0-2.4","546","","","","","rectangles no change","null","null","","","critical","t","c","d","164","240","240","164","154.6796","220.0396","spektor","0.14","h","164","240","240","164","154.6796","220.0396","39360","39360","34035.6388","td","null","null","null","null","null","null","[1,3]","481.8502173985707","198.1752324718397","487.26610569831354"
"","canvas-keyboard-response","37","129818","0.0-6.0-3.4","546","","","","","rectangles with change","null","null","","","critical","t","c","d","164","240","240","164","154.6796","220.0396","spektor","0.14","h","164","240","240","164","154.6796","220.0396","39360","39360","34035.6388","td","null","null","null","null","null","null","[1,3]","481.8502173985707","198.1752324718397","487.26610569831354"
"","canvas-keyboard-response","38","129840","0.0-6.0-4.4","546","","","","","clear_screen","null","null","","","critical","t","c","d","164","240","240","164","154.6796","220.0396","spektor","0.14","h","164","240","240","164","154.6796","220.0396","39360","39360","34035.6388","td","null","null","null","null","null","null","[1,3]","481.8502173985707","198.1752324718397","487.26610569831354"
"","canvas-keyboard-response","39","130845","0.0-6.0-5.4","546","","","","","make choice","999","1","","","critical","t","c","d","164","240","240","164","154.6796","220.0396","spektor","0.14","h","164","240","240","164","154.6796","220.0396","39360","39360","34035.6388","td","null","null","null","null","null","null","[1,3]","","",""
"","canvas-keyboard-response","40","130864","0.0-6.0-6.4","546","","","","","clear_screen","null","null","","","critical","t","c","d","164","240","240","164","154.6796","220.0396","spektor","0.14","h","164","240","240","164","154.6796","220.0396","39360","39360","34035.6388","td","null","null","null","null","null","null","[1,3]","","",""
"","canvas-keyboard-response","41","131065","0.0-6.0-0.5","546","","","","","pre trial waiting period","null","null","","","catch","sw","l","sh","180","200","245","182","215","212","spektor","null","null","null","null","null","null","null","null","null","null","null","","180","200","260","200","36000","52000","[1,2]","478.77103187409244","169.16908578928894","511.3185711902336"
"","canvas-keyboard-response","42","131087","0.0-6.0-1.5","546","","","","","clear_screen","null","null","","","catch","sw","l","sh","180","200","245","182","215","212","spektor","null","null","null","null","null","null","null","null","null","null","null","","180","200","260","200","36000","52000","[1,2]","478.77103187409244","169.16908578928894","511.3185711902336"
"","canvas-keyboard-response","43","131599","0.0-6.0-2.5","546","","","","","rectangles no change","null","null","","","catch","sw","l","sh","180","200","245","182","215","212","spektor","null","null","null","null","null","null","null","null","null","null","null","","180","200","260","200","36000","52000","[1,2]","478.77103187409244","169.16908578928894","511.3185711902336"
"","canvas-keyboard-response","44","132939","0.0-6.0-3.5","546","","","","","rectangles with change","null","null","","","catch","sw","l","sh","180","200","245","182","215","212","spektor","null","null","null","null","null","null","null","null","null","null","null","","180","200","260","200","36000","52000","[1,2]","478.77103187409244","169.16908578928894","511.3185711902336"
"","canvas-keyboard-response","45","132959","0.0-6.0-4.5","546","","","","","clear_screen","null","null","","","catch","sw","l","sh","180","200","245","182","215","212","spektor","null","null","null","null","null","null","null","null","null","null","null","","180","200","260","200","36000","52000","[1,2]","478.77103187409244","169.16908578928894","511.3185711902336"
"","canvas-keyboard-response","46","133148","0.0-6.0-5.5","546","","","","","make choice","183","2","","","catch","sw","l","sh","180","200","245","182","215","212","spektor","null","null","null","null","null","null","null","null","null","null","null","","180","200","260","200","36000","52000","[1,2]","","",""
"","canvas-keyboard-response","47","133168","0.0-6.0-6.5","546","","","","","clear_screen","null","null","","","catch","sw","l","sh","180","200","245","182","215","212","spektor","null","null","null","null","null","null","null","null","null","null","null","","180","200","260","200","36000","52000","[1,2]","","",""
"","canvas-keyboard-response","48","133369","0.0-6.0-0.6","546","","","","","pre trial waiting period","null","null","","","critical","d","t","c","237.1485","162.6685","240","164","164","240","trueblood","0.02","w","240","164","164","240","237.1485","162.6685","39360","39360","38576.5967","tc","null","null","null","null","null","null","[2,3]","498.30461743020186","473.07658571066156","468.13353686371323"
"","canvas-keyboard-response","49","133387","0.0-6.0-1.6","546","","","","","clear_screen","null","null","","","critical","d","t","c","237.1485","162.6685","240","164","164","240","trueblood","0.02","w","240","164","164","240","237.1485","162.6685","39360","39360","38576.5967","tc","null","null","null","null","null","null","[2,3]","498.30461743020186","473.07658571066156","468.13353686371323"
"","canvas-keyboard-response","50","133894","0.0-6.0-2.6","546","","","","","rectangles no change","null","null","","","critical","d","t","c","237.1485","162.6685","240","164","164","240","trueblood","0.02","w","240","164","164","240","237.1485","162.6685","39360","39360","38576.5967","tc","null","null","null","null","null","null","[2,3]","498.30461743020186","473.07658571066156","468.13353686371323"
"","canvas-keyboard-response","51","135230","0.0-6.0-3.6","546","","","","","rectangles with change","null","null","","","critical","d","t","c","237.1485","162.6685","240","164","164","240","trueblood","0.02","w","240","164","164","240","237.1485","162.6685","39360","39360","38576.5967","tc","null","null","null","null","null","null","[2,3]","498.30461743020186","473.07658571066156","468.13353686371323"
"","canvas-keyboard-response","52","135248","0.0-6.0-4.6","546","","","","","clear_screen","null","null","","","critical","d","t","c","237.1485","162.6685","240","164","164","240","trueblood","0.02","w","240","164","164","240","237.1485","162.6685","39360","39360","38576.5967","tc","null","null","null","null","null","null","[2,3]","498.30461743020186","473.07658571066156","468.13353686371323"
"","canvas-keyboard-response","53","136172","0.0-6.0-5.6","546","","","","","make choice","918","2","","","critical","d","t","c","237.1485","162.6685","240","164","164","240","trueblood","0.02","w","240","164","164","240","237.1485","162.6685","39360","39360","38576.5967","tc","null","null","null","null","null","null","[2,3]","","",""
"","canvas-keyboard-response","54","136191","0.0-6.0-6.6","546","","","","","clear_screen","null","null","","","critical","d","t","c","237.1485","162.6685","240","164","164","240","trueblood","0.02","w","240","164","164","240","237.1485","162.6685","39360","39360","38576.5967","tc","null","null","null","null","null","null","[2,3]","","",""
"","canvas-keyboard-response","55","136392","0.0-6.0-0.7","546","","","","","pre trial waiting period","null","null","","","critical","d","t","c","154.6796","220.0396","164","240","240","164","trueblood","0.14","h","164","240","240","164","154.6796","220.0396","39360","39360","34035.6388","td","null","null","null","null","null","null","[2,1]","459.1937642282895","440.6097011900739","516.5297143666476"
"","canvas-keyboard-response","56","136411","0.0-6.0-1.7","546","","","","","clear_screen","null","null","","","critical","d","t","c","154.6796","220.0396","164","240","240","164","trueblood","0.14","h","164","240","240","164","154.6796","220.0396","39360","39360","34035.6388","td","null","null","null","null","null","null","[2,1]","459.1937642282895","440.6097011900739","516.5297143666476"
"","canvas-keyboard-response","57","136918","0.0-6.0-2.7","546","","","","","rectangles no change","null","null","","","critical","d","t","c","154.6796","220.0396","164","240","240","164","trueblood","0.14","h","164","240","240","164","154.6796","220.0396","39360","39360","34035.6388","td","null","null","null","null","null","null","[2,1]","459.1937642282895","440.6097011900739","516.5297143666476"
"","canvas-keyboard-response","58","138248","0.0-6.0-3.7","546","","","","","rectangles with change","null","null","","","critical","d","t","c","154.6796","220.0396","164","240","240","164","trueblood","0.14","h","164","240","240","164","154.6796","220.0396","39360","39360","34035.6388","td","null","null","null","null","null","null","[2,1]","459.1937642282895","440.6097011900739","516.5297143666476"
"","canvas-keyboard-response","59","138267","0.0-6.0-4.7","546","","","","","clear_screen","null","null","","","critical","d","t","c","154.6796","220.0396","164","240","240","164","trueblood","0.14","h","164","240","240","164","154.6796","220.0396","39360","39360","34035.6388","td","null","null","null","null","null","null","[2,1]","459.1937642282895","440.6097011900739","516.5297143666476"
"","canvas-keyboard-response","60","138516","0.0-6.0-5.7","546","","","","","make choice","247","2","","","critical","d","t","c","154.6796","220.0396","164","240","240","164","trueblood","0.14","h","164","240","240","164","154.6796","220.0396","39360","39360","34035.6388","td","null","null","null","null","null","null","[2,1]","","",""
"","canvas-keyboard-response","61","138536","0.0-6.0-6.7","546","","","","","clear_screen","null","null","","","critical","d","t","c","154.6796","220.0396","164","240","240","164","trueblood","0.14","h","164","240","240","164","154.6796","220.0396","39360","39360","34035.6388","td","null","null","null","null","null","null","[2,1]","","",""
"","canvas-keyboard-response","62","138737","0.0-6.0-0.8","546","","","","","pre trial waiting period","null","null","","","critical","d","c","t","227.1683","158.0083","164","240","240","164","spektor","0.09","w","240","164","164","240","227.1683","158.0083","39360","39360","35894.4834","dc","null","null","null","null","null","null","[1,2]","540.8539855279172","160.39455021855454","527.5730624491371"
"","canvas-keyboard-response","63","138755","0.0-6.0-1.8","546","","","","","clear_screen","null","null","","","critical","d","c","t","227.1683","158.0083","164","240","240","164","spektor","0.09","w","240","164","164","240","227.1683","158.0083","39360","39360","35894.4834","dc","null","null","null","null","null","null","[1,2]","540.8539855279172","160.39455021855454","527.5730624491371"
"","canvas-keyboard-response","64","139261","0.0-6.0-2.8","546","","","","","rectangles no change","null","null","","","critical","d","c","t","227.1683","158.0083","164","240","240","164","spektor","0.09","w","240","164","164","240","227.1683","158.0083","39360","39360","35894.4834","dc","null","null","null","null","null","null","[1,2]","540.8539855279172","160.39455021855454","527.5730624491371"
"","canvas-keyboard-response","65","140602","0.0-6.0-3.8","546","","","","","rectangles with change","null","null","","","critical","d","c","t","227.1683","158.0083","164","240","240","164","spektor","0.09","w","240","164","164","240","227.1683","158.0083","39360","39360","35894.4834","dc","null","null","null","null","null","null","[1,2]","540.8539855279172","160.39455021855454","527.5730624491371"
"","canvas-keyboard-response","66","140621","0.0-6.0-4.8","546","","","","","clear_screen","null","null","","","critical","d","c","t","227.1683","158.0083","164","240","240","164","spektor","0.09","w","240","164","164","240","227.1683","158.0083","39360","39360","35894.4834","dc","null","null","null","null","null","null","[1,2]","540.8539855279172","160.39455021855454","527.5730624491371"
"","canvas-keyboard-response","67","141243","0.0-6.0-5.8","546","","","","","make choice","613","2","","","critical","d","c","t","227.1683","158.0083","164","240","240","164","spektor","0.09","w","240","164","164","240","227.1683","158.0083","39360","39360","35894.4834","dc","null","null","null","null","null","null","[1,2]","","",""
"","canvas-keyboard-response","68","141264","0.0-6.0-6.8","546","","","","","clear_screen","null","null","","","critical","d","c","t","227.1683","158.0083","164","240","240","164","spektor","0.09","w","240","164","164","240","227.1683","158.0083","39360","39360","35894.4834","dc","null","null","null","null","null","null","[1,2]","","",""
"","canvas-keyboard-response","69","141465","0.0-6.0-0.9","546","","","","","pre trial waiting period","null","null","","","catch","sh","l","sw","207","186","235","207","171","217","trueblood","null","null","null","null","null","null","null","null","null","null","null","","180","200","260","200","36000","52000","[1,2]","474.1670792001052","470.0847970383961","477.0369577637037"
"","canvas-keyboard-response","70","141485","0.0-6.0-1.9","546","","","","","clear_screen","null","null","","","catch","sh","l","sw","207","186","235","207","171","217","trueblood","null","null","null","null","null","null","null","null","null","null","null","","180","200","260","200","36000","52000","[1,2]","474.1670792001052","470.0847970383961","477.0369577637037"
"","canvas-keyboard-response","71","141992","0.0-6.0-2.9","546","","","","","rectangles no change","null","null","","","catch","sh","l","sw","207","186","235","207","171","217","trueblood","null","null","null","null","null","null","null","null","null","null","null","","180","200","260","200","36000","52000","[1,2]","474.1670792001052","470.0847970383961","477.0369577637037"
"","canvas-keyboard-response","72","143331","0.0-6.0-3.9","546","","","","","rectangles with change","null","null","","","catch","sh","l","sw","207","186","235","207","171","217","trueblood","null","null","null","null","null","null","null","null","null","null","null","","180","200","260","200","36000","52000","[1,2]","474.1670792001052","470.0847970383961","477.0369577637037"
"","canvas-keyboard-response","73","143352","0.0-6.0-4.9","546","","","","","clear_screen","null","null","","","catch","sh","l","sw","207","186","235","207","171","217","trueblood","null","null","null","null","null","null","null","null","null","null","null","","180","200","260","200","36000","52000","[1,2]","474.1670792001052","470.0847970383961","477.0369577637037"
"","canvas-keyboard-response","74","143748","0.0-6.0-5.9","546","","","","","make choice","392","2","","","catch","sh","l","sw","207","186","235","207","171","217","trueblood","null","null","null","null","null","null","null","null","null","null","null","","180","200","260","200","36000","52000","[1,2]","","",""
"","canvas-keyboard-response","75","143769","0.0-6.0-6.9","546","","","","","clear_screen","null","null","","","catch","sh","l","sw","207","186","235","207","171","217","trueblood","null","null","null","null","null","null","null","null","null","null","null","","180","200","260","200","36000","52000","[1,2]","","",""
"","canvas-keyboard-response","76","143970","0.0-6.0-0.10","546","","","","","pre trial waiting period","null","null","","","critical","t","c","d","240","164","164","240","240","164","spektor","0","w","240","164","164","240","240","164","39360","39360","39360","dc","null","null","null","null","null","null","[3,2]","515.593318931193","134.23466116065924","527.8717598240024"
"","canvas-keyboard-response","77","143991","0.0-6.0-1.10","546","","","","","clear_screen","null","null","","","critical","t","c","d","240","164","164","240","240","164","spektor","0","w","240","164","164","240","240","164","39360","39360","39360","dc","null","null","null","null","null","null","[3,2]","515.593318931193","134.23466116065924","527.8717598240024"
"","canvas-keyboard-response","78","144501","0.0-6.0-2.10","546","","","","","rectangles no change","null","null","","","critical","t","c","d","240","164","164","240","240","164","spektor","0","w","240","164","164","240","240","164","39360","39360","39360","dc","null","null","null","null","null","null","[3,2]","515.593318931193","134.23466116065924","527.8717598240024"
"","canvas-keyboard-response","79","145837","0.0-6.0-3.10","546","","","","","rectangles with change","null","null","","","critical","t","c","d","240","164","164","240","240","164","spektor","0","w","240","164","164","240","240","164","39360","39360","39360","dc","null","null","null","null","null","null","[3,2]","515.593318931193","134.23466116065924","527.8717598240024"
"","canvas-keyboard-response","80","145855","0.0-6.0-4.10","546","","","","","clear_screen","null","null","","","critical","t","c","d","240","164","164","240","240","164","spektor","0","w","240","164","164","240","240","164","39360","39360","39360","dc","null","null","null","null","null","null","[3,2]","515.593318931193","134.23466116065924","527.8717598240024"
"","canvas-keyboard-response","81","146780","0.0-6.0-5.10","546","","","","","make choice","922","3","","","critical","t","c","d","240","164","164","240","240","164","spektor","0","w","240","164","164","240","240","164","39360","39360","39360","dc","null","null","null","null","null","null","[3,2]","","",""
"","canvas-keyboard-response","82","146797","0.0-6.0-6.10","546","","","","","clear_screen","null","null","","","critical","t","c","d","240","164","164","240","240","164","spektor","0","w","240","164","164","240","240","164","39360","39360","39360","dc","null","null","null","null","null","null","[3,2]","","",""
"","canvas-keyboard-response","83","146998","0.0-6.0-0.11","546","","","","","pre trial waiting period","null","null","","","critical","t","c","d","164","240","240","164","164","240","spektor","0","h","164","240","240","164","164","240","39360","39360","39360","dc","null","null","null","null","null","null","[3,2]","464.1950792589947","149.94577958949867","472.12839788338283"
"","canvas-keyboard-response","84","147017","0.0-6.0-1.11","546","","","","","clear_screen","null","null","","","critical","t","c","d","164","240","240","164","164","240","spektor","0","h","164","240","240","164","164","240","39360","39360","39360","dc","null","null","null","null","null","null","[3,2]","464.1950792589947","149.94577958949867","472.12839788338283"
"","canvas-keyboard-response","85","147524","0.0-6.0-2.11","546","","","","","rectangles no change","null","null","","","critical","t","c","d","164","240","240","164","164","240","spektor","0","h","164","240","240","164","164","240","39360","39360","39360","dc","null","null","null","null","null","null","[3,2]","464.1950792589947","149.94577958949867","472.12839788338283"
"","canvas-keyboard-response","86","148860","0.0-6.0-3.11","546","","","","","rectangles with change","null","null","","","critical","t","c","d","164","240","240","164","164","240","spektor","0","h","164","240","240","164","164","240","39360","39360","39360","dc","null","null","null","null","null","null","[3,2]","464.1950792589947","149.94577958949867","472.12839788338283"
"","canvas-keyboard-response","87","148879","0.0-6.0-4.11","546","","","","","clear_screen","null","null","","","critical","t","c","d","164","240","240","164","164","240","spektor","0","h","164","240","240","164","164","240","39360","39360","39360","dc","null","null","null","null","null","null","[3,2]","464.1950792589947","149.94577958949867","472.12839788338283"
"","canvas-keyboard-response","88","149908","0.0-6.0-5.11","546","","","","","make choice","1022","2","","","critical","t","c","d","164","240","240","164","164","240","spektor","0","h","164","240","240","164","164","240","39360","39360","39360","dc","null","null","null","null","null","null","[3,2]","","",""
"","canvas-keyboard-response","89","149929","0.0-6.0-6.11","546","","","","","clear_screen","null","null","","","critical","t","c","d","164","240","240","164","164","240","spektor","0","h","164","240","240","164","164","240","39360","39360","39360","dc","null","null","null","null","null","null","[3,2]","","",""
"","canvas-keyboard-response","90","150131","0.0-6.0-0.12","546","","","","","pre trial waiting period","null","null","","","critical","c","t","d","164","240","240","164","237.1485","162.6685","spektor","0.02","w","240","164","164","240","237.1485","162.6685","39360","39360","38576.5967","td","null","null","null","null","null","null","[2,3]","460.8880414262027","189.42737669446765","516.765418885523"
"","canvas-keyboard-response","91","150152","0.0-6.0-1.12","546","","","","","clear_screen","null","null","","","critical","c","t","d","164","240","240","164","237.1485","162.6685","spektor","0.02","w","240","164","164","240","237.1485","162.6685","39360","39360","38576.5967","td","null","null","null","null","null","null","[2,3]","460.8880414262027","189.42737669446765","516.765418885523"
"","canvas-keyboard-response","92","150662","0.0-6.0-2.12","546","","","","","rectangles no change","null","null","","","critical","c","t","d","164","240","240","164","237.1485","162.6685","spektor","0.02","w","240","164","164","240","237.1485","162.6685","39360","39360","38576.5967","td","null","null","null","null","null","null","[2,3]","460.8880414262027","189.42737669446765","516.765418885523"
"","canvas-keyboard-response","93","152000","0.0-6.0-3.12","546","","","","","rectangles with change","null","null","","","critical","c","t","d","164","240","240","164","237.1485","162.6685","spektor","0.02","w","240","164","164","240","237.1485","162.6685","39360","39360","38576.5967","td","null","null","null","null","null","null","[2,3]","460.8880414262027","189.42737669446765","516.765418885523"
"","canvas-keyboard-response","94","152022","0.0-6.0-4.12","546","","","","","clear_screen","null","null","","","critical","c","t","d","164","240","240","164","237.1485","162.6685","spektor","0.02","w","240","164","164","240","237.1485","162.6685","39360","39360","38576.5967","td","null","null","null","null","null","null","[2,3]","460.8880414262027","189.42737669446765","516.765418885523"
"","canvas-keyboard-response","95","153132","0.0-6.0-5.12","546","","","","","make choice","1104","3","","","critical","c","t","d","164","240","240","164","237.1485","162.6685","spektor","0.02","w","240","164","164","240","237.1485","162.6685","39360","39360","38576.5967","td","null","null","null","null","null","null","[2,3]","","",""
"","canvas-keyboard-response","96","153151","0.0-6.0-6.12","546","","","","","clear_screen","null","null","","","critical","c","t","d","164","240","240","164","237.1485","162.6685","spektor","0.02","w","240","164","164","240","237.1485","162.6685","39360","39360","38576.5967","td","null","null","null","null","null","null","[2,3]","","",""
"","canvas-keyboard-response","97","153352","0.0-6.0-0.13","546","","","","","pre trial waiting period","null","null","","","critical","t","d","c","164","240","154.6796","220.0396","240","164","spektor","0.14","h","164","240","240","164","154.6796","220.0396","39360","39360","34035.6388","tc","null","null","null","null","null","null","[1,3]","463.72403625364234","147.66156283904857","538.2035793784947"
"","canvas-keyboard-response","98","153371","0.0-6.0-1.13","546","","","","","clear_screen","null","null","","","critical","t","d","c","164","240","154.6796","220.0396","240","164","spektor","0.14","h","164","240","240","164","154.6796","220.0396","39360","39360","34035.6388","tc","null","null","null","null","null","null","[1,3]","463.72403625364234","147.66156283904857","538.2035793784947"
"","canvas-keyboard-response","99","153879","0.0-6.0-2.13","546","","","","","rectangles no change","null","null","","","critical","t","d","c","164","240","154.6796","220.0396","240","164","spektor","0.14","h","164","240","240","164","154.6796","220.0396","39360","39360","34035.6388","tc","null","null","null","null","null","null","[1,3]","463.72403625364234","147.66156283904857","538.2035793784947"
"","canvas-keyboard-response","100","155213","0.0-6.0-3.13","546","","","","","rectangles with change","null","null","","","critical","t","d","c","164","240","154.6796","220.0396","240","164","spektor","0.14","h","164","240","240","164","154.6796","220.0396","39360","39360","34035.6388","tc","null","null","null","null","null","null","[1,3]","463.72403625364234","147.66156283904857","538.2035793784947"
"","canvas-keyboard-response","101","155233","0.0-6.0-4.13","546","","","","","clear_screen","null","null","","","critical","t","d","c","164","240","154.6796","220.0396","240","164","spektor","0.14","h","164","240","240","164","154.6796","220.0396","39360","39360","34035.6388","tc","null","null","null","null","null","null","[1,3]","463.72403625364234","147.66156283904857","538.2035793784947"
"","canvas-keyboard-response","102","155667","0.0-6.0-5.13","546","","","","","make choice","428","3","","","critical","t","d","c","164","240","154.6796","220.0396","240","164","spektor","0.14","h","164","240","240","164","154.6796","220.0396","39360","39360","34035.6388","tc","null","null","null","null","null","null","[1,3]","","",""
"","canvas-keyboard-response","103","155686","0.0-6.0-6.13","546","","","","","clear_screen","null","null","","","critical","t","d","c","164","240","154.6796","220.0396","240","164","spektor","0.14","h","164","240","240","164","154.6796","220.0396","39360","39360","34035.6388","tc","null","null","null","null","null","null","[1,3]","","",""
"","canvas-keyboard-response","104","155886","0.0-6.0-0.14","546","","","","","pre trial waiting period","null","null","","","critical","t","d","c","164","240","160.6713","232.8713","240","164","trueblood","0.05","h","164","240","240","164","160.6713","232.8713","39360","39360","37415.7294","tc","null","null","null","null","null","null","[1,3]","433.5181619525675","443.284790914102","517.0588658313312"
"","canvas-keyboard-response","105","155908","0.0-6.0-1.14","546","","","","","clear_screen","null","null","","","critical","t","d","c","164","240","160.6713","232.8713","240","164","trueblood","0.05","h","164","240","240","164","160.6713","232.8713","39360","39360","37415.7294","tc","null","null","null","null","null","null","[1,3]","433.5181619525675","443.284790914102","517.0588658313312"
"","canvas-keyboard-response","106","156416","0.0-6.0-2.14","546","","","","","rectangles no change","null","null","","","critical","t","d","c","164","240","160.6713","232.8713","240","164","trueblood","0.05","h","164","240","240","164","160.6713","232.8713","39360","39360","37415.7294","tc","null","null","null","null","null","null","[1,3]","433.5181619525675","443.284790914102","517.0588658313312"
"","canvas-keyboard-response","107","157751","0.0-6.0-3.14","546","","","","","rectangles with change","null","null","","","critical","t","d","c","164","240","160.6713","232.8713","240","164","trueblood","0.05","h","164","240","240","164","160.6713","232.8713","39360","39360","37415.7294","tc","null","null","null","null","null","null","[1,3]","433.5181619525675","443.284790914102","517.0588658313312"
"","canvas-keyboard-response","108","157772","0.0-6.0-4.14","546","","","","","clear_screen","null","null","","","critical","t","d","c","164","240","160.6713","232.8713","240","164","trueblood","0.05","h","164","240","240","164","160.6713","232.8713","39360","39360","37415.7294","tc","null","null","null","null","null","null","[1,3]","433.5181619525675","443.284790914102","517.0588658313312"
"","canvas-keyboard-response","109","158252","0.0-6.0-5.14","546","","","","","make choice","477","3","","","critical","t","d","c","164","240","160.6713","232.8713","240","164","trueblood","0.05","h","164","240","240","164","160.6713","232.8713","39360","39360","37415.7294","tc","null","null","null","null","null","null","[1,3]","","",""
"","canvas-keyboard-response","110","158270","0.0-6.0-6.14","546","","","","","clear_screen","null","null","","","critical","t","d","c","164","240","160.6713","232.8713","240","164","trueblood","0.05","h","164","240","240","164","160.6713","232.8713","39360","39360","37415.7294","tc","null","null","null","null","null","null","[1,3]","","",""
"","canvas-keyboard-response","111","158471","0.0-6.0-0.15","546","","","","","pre trial waiting period","null","null","","","catch","l","sh","sw","247","166","196","174","213","236","spektor","null","null","null","null","null","null","null","null","null","null","null","","180","200","260","200","36000","52000","[1,2]","511.5797004424423","167.25650713817856","493.7792607681847"
"","canvas-keyboard-response","112","158493","0.0-6.0-1.15","546","","","","","clear_screen","null","null","","","catch","l","sh","sw","247","166","196","174","213","236","spektor","null","null","null","null","null","null","null","null","null","null","null","","180","200","260","200","36000","52000","[1,2]","511.5797004424423","167.25650713817856","493.7792607681847"
"","canvas-keyboard-response","113","158998","0.0-6.0-2.15","546","","","","","rectangles no change","null","null","","","catch","l","sh","sw","247","166","196","174","213","236","spektor","null","null","null","null","null","null","null","null","null","null","null","","180","200","260","200","36000","52000","[1,2]","511.5797004424423","167.25650713817856","493.7792607681847"
"","canvas-keyboard-response","114","160333","0.0-6.0-3.15","546","","","","","rectangles with change","null","null","","","catch","l","sh","sw","247","166","196","174","213","236","spektor","null","null","null","null","null","null","null","null","null","null","null","","180","200","260","200","36000","52000","[1,2]","511.5797004424423","167.25650713817856","493.7792607681847"
"","canvas-keyboard-response","115","160353","0.0-6.0-4.15","546","","","","","clear_screen","null","null","","","catch","l","sh","sw","247","166","196","174","213","236","spektor","null","null","null","null","null","null","null","null","null","null","null","","180","200","260","200","36000","52000","[1,2]","511.5797004424423","167.25650713817856","493.7792607681847"
"","canvas-keyboard-response","116","160675","0.0-6.0-5.15","546","","","","","make choice","314","1","","","catch","l","sh","sw","247","166","196","174","213","236","spektor","null","null","null","null","null","null","null","null","null","null","null","","180","200","260","200","36000","52000","[1,2]","","",""
"","canvas-keyboard-response","117","160694","0.0-6.0-6.15","546","","","","","clear_screen","null","null","","","catch","l","sh","sw","247","166","196","174","213","236","spektor","null","null","null","null","null","null","null","null","null","null","null","","180","200","260","200","36000","52000","[1,2]","","",""
"","canvas-keyboard-response","118","160895","0.0-6.0-0.16","546","","","","","pre trial waiting period","null","null","","","catch","sw","sh","l","180","200","235","177","189","264","spektor","null","null","null","null","null","null","null","null","null","null","null","","180","200","260","200","36000","52000","[2,3]","487.01259433794326","157.52198921956642","488.20013587423387"
"","canvas-keyboard-response","119","160911","0.0-6.0-1.16","546","","","","","clear_screen","null","null","","","catch","sw","sh","l","180","200","235","177","189","264","spektor","null","null","null","null","null","null","null","null","null","null","null","","180","200","260","200","36000","52000","[2,3]","487.01259433794326","157.52198921956642","488.20013587423387"
"","canvas-keyboard-response","120","161416","0.0-6.0-2.16","546","","","","","rectangles no change","null","null","","","catch","sw","sh","l","180","200","235","177","189","264","spektor","null","null","null","null","null","null","null","null","null","null","null","","180","200","260","200","36000","52000","[2,3]","487.01259433794326","157.52198921956642","488.20013587423387"
"","canvas-keyboard-response","121","162755","0.0-6.0-3.16","546","","","","","rectangles with change","null","null","","","catch","sw","sh","l","180","200","235","177","189","264","spektor","null","null","null","null","null","null","null","null","null","null","null","","180","200","260","200","36000","52000","[2,3]","487.01259433794326","157.52198921956642","488.20013587423387"
"","canvas-keyboard-response","122","162776","0.0-6.0-4.16","546","","","","","clear_screen","null","null","","","catch","sw","sh","l","180","200","235","177","189","264","spektor","null","null","null","null","null","null","null","null","null","null","null","","180","200","260","200","36000","52000","[2,3]","487.01259433794326","157.52198921956642","488.20013587423387"
"","canvas-keyboard-response","123","163172","0.0-6.0-5.16","546","","","","","make choice","392","3","","","catch","sw","sh","l","180","200","235","177","189","264","spektor","null","null","null","null","null","null","null","null","null","null","null","","180","200","260","200","36000","52000","[2,3]","","",""
"","canvas-keyboard-response","124","163192","0.0-6.0-6.16","546","","","","","clear_screen","null","null","","","catch","sw","sh","l","180","200","235","177","189","264","spektor","null","null","null","null","null","null","null","null","null","null","null","","180","200","260","200","36000","52000","[2,3]","","",""
"","canvas-keyboard-response","125","163393","0.0-6.0-0.17","546","","","","","pre trial waiting period","null","null","","","critical","t","c","d","240","164","164","240","240","164","trueblood","0","w","240","164","164","240","240","164","39360","39360","39360","td","null","null","null","null","null","null","[1,3]","516.7924656301889","426.9805260697048","510.9603837013988"
"","canvas-keyboard-response","126","163413","0.0-6.0-1.17","546","","","","","clear_screen","null","null","","","critical","t","c","d","240","164","164","240","240","164","trueblood","0","w","240","164","164","240","240","164","39360","39360","39360","td","null","null","null","null","null","null","[1,3]","516.7924656301889","426.9805260697048","510.9603837013988"
"","canvas-keyboard-response","127","163920","0.0-6.0-2.17","546","","","","","rectangles no change","null","null","","","critical","t","c","d","240","164","164","240","240","164","trueblood","0","w","240","164","164","240","240","164","39360","39360","39360","td","null","null","null","null","null","null","[1,3]","516.7924656301889","426.9805260697048","510.9603837013988"
"","canvas-keyboard-response","128","165257","0.0-6.0-3.17","546","","","","","rectangles with change","null","null","","","critical","t","c","d","240","164","164","240","240","164","trueblood","0","w","240","164","164","240","240","164","39360","39360","39360","td","null","null","null","null","null","null","[1,3]","516.7924656301889","426.9805260697048","510.9603837013988"
"","canvas-keyboard-response","129","165275","0.0-6.0-4.17","546","","","","","clear_screen","null","null","","","critical","t","c","d","240","164","164","240","240","164","trueblood","0","w","240","164","164","240","240","164","39360","39360","39360","td","null","null","null","null","null","null","[1,3]","516.7924656301889","426.9805260697048","510.9603837013988"
"","canvas-keyboard-response","130","165940","0.0-6.0-5.17","546","","","","","make choice","659","1","","","critical","t","c","d","240","164","164","240","240","164","trueblood","0","w","240","164","164","240","240","164","39360","39360","39360","td","null","null","null","null","null","null","[1,3]","","",""
"","canvas-keyboard-response","131","165959","0.0-6.0-6.17","546","","","","","clear_screen","null","null","","","critical","t","c","d","240","164","164","240","240","164","trueblood","0","w","240","164","164","240","240","164","39360","39360","39360","td","null","null","null","null","null","null","[1,3]","","",""
"","canvas-keyboard-response","132","166160","0.0-6.0-0.18","546","","","","","pre trial waiting period","null","null","","","critical","c","d","t","240","164","160.6713","232.8713","164","240","spektor","0.05","h","164","240","240","164","160.6713","232.8713","39360","39360","37415.7294","dc","null","null","null","null","null","null","[2,1]","512.7248452100372","106.04935146502655","488.4596889985206"
"","canvas-keyboard-response","133","166180","0.0-6.0-1.18","546","","","","","clear_screen","null","null","","","critical","c","d","t","240","164","160.6713","232.8713","164","240","spektor","0.05","h","164","240","240","164","160.6713","232.8713","39360","39360","37415.7294","dc","null","null","null","null","null","null","[2,1]","512.7248452100372","106.04935146502655","488.4596889985206"
"","canvas-keyboard-response","134","166687","0.0-6.0-2.18","546","","","","","rectangles no change","null","null","","","critical","c","d","t","240","164","160.6713","232.8713","164","240","spektor","0.05","h","164","240","240","164","160.6713","232.8713","39360","39360","37415.7294","dc","null","null","null","null","null","null","[2,1]","512.7248452100372","106.04935146502655","488.4596889985206"
"","canvas-keyboard-response","135","168021","0.0-6.0-3.18","546","","","","","rectangles with change","null","null","","","critical","c","d","t","240","164","160.6713","232.8713","164","240","spektor","0.05","h","164","240","240","164","160.6713","232.8713","39360","39360","37415.7294","dc","null","null","null","null","null","null","[2,1]","512.7248452100372","106.04935146502655","488.4596889985206"
"","canvas-keyboard-response","136","168040","0.0-6.0-4.18","546","","","","","clear_screen","null","null","","","critical","c","d","t","240","164","160.6713","232.8713","164","240","spektor","0.05","h","164","240","240","164","160.6713","232.8713","39360","39360","37415.7294","dc","null","null","null","null","null","null","[2,1]","512.7248452100372","106.04935146502655","488.4596889985206"
"","canvas-keyboard-response","137","168748","0.0-6.0-5.18","546","","","","","make choice","703","1","","","critical","c","d","t","240","164","160.6713","232.8713","164","240","spektor","0.05","h","164","240","240","164","160.6713","232.8713","39360","39360","37415.7294","dc","null","null","null","null","null","null","[2,1]","","",""
"","canvas-keyboard-response","138","168766","0.0-6.0-6.18","546","","","","","clear_screen","null","null","","","critical","c","d","t","240","164","160.6713","232.8713","164","240","spektor","0.05","h","164","240","240","164","160.6713","232.8713","39360","39360","37415.7294","dc","null","null","null","null","null","null","[2,1]","","",""
"","canvas-keyboard-response","139","168968","0.0-6.0-0.19","546","","","","","pre trial waiting period","null","null","","","critical","d","c","t","227.1683","158.0083","164","240","240","164","trueblood","0.09","w","240","164","164","240","227.1683","158.0083","39360","39360","35894.4834","tc","null","null","null","null","null","null","[3,2]","488.45434108934046","437.29386633306694","483.2919170051611"
"","canvas-keyboard-response","140","168988","0.0-6.0-1.19","546","","","","","clear_screen","null","null","","","critical","d","c","t","227.1683","158.0083","164","240","240","164","trueblood","0.09","w","240","164","164","240","227.1683","158.0083","39360","39360","35894.4834","tc","null","null","null","null","null","null","[3,2]","488.45434108934046","437.29386633306694","483.2919170051611"
"","canvas-keyboard-response","141","169498","0.0-6.0-2.19","546","","","","","rectangles no change","null","null","","","critical","d","c","t","227.1683","158.0083","164","240","240","164","trueblood","0.09","w","240","164","164","240","227.1683","158.0083","39360","39360","35894.4834","tc","null","null","null","null","null","null","[3,2]","488.45434108934046","437.29386633306694","483.2919170051611"
"","canvas-keyboard-response","142","170839","0.0-6.0-3.19","546","","","","","rectangles with change","null","null","","","critical","d","c","t","227.1683","158.0083","164","240","240","164","trueblood","0.09","w","240","164","164","240","227.1683","158.0083","39360","39360","35894.4834","tc","null","null","null","null","null","null","[3,2]","488.45434108934046","437.29386633306694","483.2919170051611"
"","canvas-keyboard-response","143","170859","0.0-6.0-4.19","546","","","","","clear_screen","null","null","","","critical","d","c","t","227.1683","158.0083","164","240","240","164","trueblood","0.09","w","240","164","164","240","227.1683","158.0083","39360","39360","35894.4834","tc","null","null","null","null","null","null","[3,2]","488.45434108934046","437.29386633306694","483.2919170051611"
"","canvas-keyboard-response","144","171380","0.0-6.0-5.19","546","","","","","make choice","514","3","","","critical","d","c","t","227.1683","158.0083","164","240","240","164","trueblood","0.09","w","240","164","164","240","227.1683","158.0083","39360","39360","35894.4834","tc","null","null","null","null","null","null","[3,2]","","",""
"","canvas-keyboard-response","145","171398","0.0-6.0-6.19","546","","","","","clear_screen","null","null","","","critical","d","c","t","227.1683","158.0083","164","240","240","164","trueblood","0.09","w","240","164","164","240","227.1683","158.0083","39360","39360","35894.4834","tc","null","null","null","null","null","null","[3,2]","","",""
"","canvas-keyboard-response","146","171599","0.0-6.0-0.20","546","","","","","pre trial waiting period","null","null","","","critical","c","t","d","164","240","240","164","227.1683","158.0083","spektor","0.09","w","240","164","164","240","227.1683","158.0083","39360","39360","35894.4834","tc","null","null","null","null","null","null","[2,1]","455.99150584487955","215.49844841636704","539.9283897830617"
"","canvas-keyboard-response","147","171617","0.0-6.0-1.20","546","","","","","clear_screen","null","null","","","critical","c","t","d","164","240","240","164","227.1683","158.0083","spektor","0.09","w","240","164","164","240","227.1683","158.0083","39360","39360","35894.4834","tc","null","null","null","null","null","null","[2,1]","455.99150584487955","215.49844841636704","539.9283897830617"
"","canvas-keyboard-response","148","172126","0.0-6.0-2.20","546","","","","","rectangles no change","null","null","","","critical","c","t","d","164","240","240","164","227.1683","158.0083","spektor","0.09","w","240","164","164","240","227.1683","158.0083","39360","39360","35894.4834","tc","null","null","null","null","null","null","[2,1]","455.99150584487955","215.49844841636704","539.9283897830617"
"","canvas-keyboard-response","149","173464","0.0-6.0-3.20","546","","","","","rectangles with change","null","null","","","critical","c","t","d","164","240","240","164","227.1683","158.0083","spektor","0.09","w","240","164","164","240","227.1683","158.0083","39360","39360","35894.4834","tc","null","null","null","null","null","null","[2,1]","455.99150584487955","215.49844841636704","539.9283897830617"
"","canvas-keyboard-response","150","173484","0.0-6.0-4.20","546","","","","","clear_screen","null","null","","","critical","c","t","d","164","240","240","164","227.1683","158.0083","spektor","0.09","w","240","164","164","240","227.1683","158.0083","39360","39360","35894.4834","tc","null","null","null","null","null","null","[2,1]","455.99150584487955","215.49844841636704","539.9283897830617"
"","canvas-keyboard-response","151","174516","0.0-6.0-5.20","546","","","","","make choice","1026","1","","","critical","c","t","d","164","240","240","164","227.1683","158.0083","spektor","0.09","w","240","164","164","240","227.1683","158.0083","39360","39360","35894.4834","tc","null","null","null","null","null","null","[2,1]","","",""
"","canvas-keyboard-response","152","174535","0.0-6.0-6.20","546","","","","","clear_screen","null","null","","","critical","c","t","d","164","240","240","164","227.1683","158.0083","spektor","0.09","w","240","164","164","240","227.1683","158.0083","39360","39360","35894.4834","tc","null","null","null","null","null","null","[2,1]","","",""
"","canvas-keyboard-response","153","174736","0.0-6.0-0.21","546","","","","","pre trial waiting period","null","null","","","critical","c","d","t","164","240","227.1683","158.0083","240","164","trueblood","0.09","w","240","164","164","240","227.1683","158.0083","39360","39360","35894.4834","dc","null","null","null","null","null","null","[2,1]","439.27479872363443","477.689824746305","474.29200191662864"
"","canvas-keyboard-response","154","174756","0.0-6.0-1.21","546","","","","","clear_screen","null","null","","","critical","c","d","t","164","240","227.1683","158.0083","240","164","trueblood","0.09","w","240","164","164","240","227.1683","158.0083","39360","39360","35894.4834","dc","null","null","null","null","null","null","[2,1]","439.27479872363443","477.689824746305","474.29200191662864"
"","canvas-keyboard-response","155","175264","0.0-6.0-2.21","546","","","","","rectangles no change","null","null","","","critical","c","d","t","164","240","227.1683","158.0083","240","164","trueblood","0.09","w","240","164","164","240","227.1683","158.0083","39360","39360","35894.4834","dc","null","null","null","null","null","null","[2,1]","439.27479872363443","477.689824746305","474.29200191662864"
"","canvas-keyboard-response","156","176603","0.0-6.0-3.21","546","","","","","rectangles with change","null","null","","","critical","c","d","t","164","240","227.1683","158.0083","240","164","trueblood","0.09","w","240","164","164","240","227.1683","158.0083","39360","39360","35894.4834","dc","null","null","null","null","null","null","[2,1]","439.27479872363443","477.689824746305","474.29200191662864"
"","canvas-keyboard-response","157","176623","0.0-6.0-4.21","546","","","","","clear_screen","null","null","","","critical","c","d","t","164","240","227.1683","158.0083","240","164","trueblood","0.09","w","240","164","164","240","227.1683","158.0083","39360","39360","35894.4834","dc","null","null","null","null","null","null","[2,1]","439.27479872363443","477.689824746305","474.29200191662864"
"","canvas-keyboard-response","158","177084","0.0-6.0-5.21","546","","","","","make choice","457","1","","","critical","c","d","t","164","240","227.1683","158.0083","240","164","trueblood","0.09","w","240","164","164","240","227.1683","158.0083","39360","39360","35894.4834","dc","null","null","null","null","null","null","[2,1]","","",""
"","canvas-keyboard-response","159","177102","0.0-6.0-6.21","546","","","","","clear_screen","null","null","","","critical","c","d","t","164","240","227.1683","158.0083","240","164","trueblood","0.09","w","240","164","164","240","227.1683","158.0083","39360","39360","35894.4834","dc","null","null","null","null","null","null","[2,1]","","",""
"","canvas-keyboard-response","160","177303","0.0-6.0-0.22","546","","","","","pre trial waiting period","null","null","","","catch","sh","sw","l","203","161","141","188","227","194","spektor","null","null","null","null","null","null","null","null","null","null","null","","180","200","260","200","36000","52000","[2,3]","523.9990984790935","161.55130455003027","495.07032035761205"
"","canvas-keyboard-response","161","177324","0.0-6.0-1.22","546","","","","","clear_screen","null","null","","","catch","sh","sw","l","203","161","141","188","227","194","spektor","null","null","null","null","null","null","null","null","null","null","null","","180","200","260","200","36000","52000","[2,3]","523.9990984790935","161.55130455003027","495.07032035761205"
"","canvas-keyboard-response","162","177832","0.0-6.0-2.22","546","","","","","rectangles no change","null","null","","","catch","sh","sw","l","203","161","141","188","227","194","spektor","null","null","null","null","null","null","null","null","null","null","null","","180","200","260","200","36000","52000","[2,3]","523.9990984790935","161.55130455003027","495.07032035761205"
"","canvas-keyboard-response","163","179169","0.0-6.0-3.22","546","","","","","rectangles with change","null","null","","","catch","sh","sw","l","203","161","141","188","227","194","spektor","null","null","null","null","null","null","null","null","null","null","null","","180","200","260","200","36000","52000","[2,3]","523.9990984790935","161.55130455003027","495.07032035761205"
"","canvas-keyboard-response","164","179190","0.0-6.0-4.22","546","","","","","clear_screen","null","null","","","catch","sh","sw","l","203","161","141","188","227","194","spektor","null","null","null","null","null","null","null","null","null","null","null","","180","200","260","200","36000","52000","[2,3]","523.9990984790935","161.55130455003027","495.07032035761205"
"","canvas-keyboard-response","165","179773","0.0-6.0-5.22","546","","","","","make choice","576","3","","","catch","sh","sw","l","203","161","141","188","227","194","spektor","null","null","null","null","null","null","null","null","null","null","null","","180","200","260","200","36000","52000","[2,3]","","",""
"","canvas-keyboard-response","166","179790","0.0-6.0-6.22","546","","","","","clear_screen","null","null","","","catch","sh","sw","l","203","161","141","188","227","194","spektor","null","null","null","null","null","null","null","null","null","null","null","","180","200","260","200","36000","52000","[2,3]","","",""
"","canvas-keyboard-response","167","179992","0.0-6.0-0.23","546","","","","","pre trial waiting period","null","null","","","critical","d","t","c","158.0083","227.1683","164","240","240","164","spektor","0.09","h","164","240","240","164","158.0083","227.1683","39360","39360","35894.4834","dc","null","null","null","null","null","null","[1,3]","479.4165997983844","140.1076463472436","530.3524496226222"
"","canvas-keyboard-response","168","180013","0.0-6.0-1.23","546","","","","","clear_screen","null","null","","","critical","d","t","c","158.0083","227.1683","164","240","240","164","spektor","0.09","h","164","240","240","164","158.0083","227.1683","39360","39360","35894.4834","dc","null","null","null","null","null","null","[1,3]","479.4165997983844","140.1076463472436","530.3524496226222"
"","canvas-keyboard-response","169","180520","0.0-6.0-2.23","546","","","","","rectangles no change","null","null","","","critical","d","t","c","158.0083","227.1683","164","240","240","164","spektor","0.09","h","164","240","240","164","158.0083","227.1683","39360","39360","35894.4834","dc","null","null","null","null","null","null","[1,3]","479.4165997983844","140.1076463472436","530.3524496226222"
"","canvas-keyboard-response","170","181858","0.0-6.0-3.23","546","","","","","rectangles with change","null","null","","","critical","d","t","c","158.0083","227.1683","164","240","240","164","spektor","0.09","h","164","240","240","164","158.0083","227.1683","39360","39360","35894.4834","dc","null","null","null","null","null","null","[1,3]","479.4165997983844","140.1076463472436","530.3524496226222"
"","canvas-keyboard-response","171","181879","0.0-6.0-4.23","546","","","","","clear_screen","null","null","","","critical","d","t","c","158.0083","227.1683","164","240","240","164","spektor","0.09","h","164","240","240","164","158.0083","227.1683","39360","39360","35894.4834","dc","null","null","null","null","null","null","[1,3]","479.4165997983844","140.1076463472436","530.3524496226222"
"","canvas-keyboard-response","172","182013","0.0-6.0-5.23","546","","","","","make choice","127","3","","","critical","d","t","c","158.0083","227.1683","164","240","240","164","spektor","0.09","h","164","240","240","164","158.0083","227.1683","39360","39360","35894.4834","dc","null","null","null","null","null","null","[1,3]","","",""
"","canvas-keyboard-response","173","182032","0.0-6.0-6.23","546","","","","","clear_screen","null","null","","","critical","d","t","c","158.0083","227.1683","164","240","240","164","spektor","0.09","h","164","240","240","164","158.0083","227.1683","39360","39360","35894.4834","dc","null","null","null","null","null","null","[1,3]","","",""
"","canvas-keyboard-response","174","182234","0.0-6.0-0.24","546","","","","","pre trial waiting period","null","null","","","catch","sh","sw","l","222","143","186","197","208","292","spektor","null","null","null","null","null","null","null","null","null","null","null","","180","200","260","200","36000","52000","[2,3]","535.8081988214778","165.23821706621428","443.3706977310813"
"","canvas-keyboard-response","175","182255","0.0-6.0-1.24","546","","","","","clear_screen","null","null","","","catch","sh","sw","l","222","143","186","197","208","292","spektor","null","null","null","null","null","null","null","null","null","null","null","","180","200","260","200","36000","52000","[2,3]","535.8081988214778","165.23821706621428","443.3706977310813"
"","canvas-keyboard-response","176","182767","0.0-6.0-2.24","546","","","","","rectangles no change","null","null","","","catch","sh","sw","l","222","143","186","197","208","292","spektor","null","null","null","null","null","null","null","null","null","null","null","","180","200","260","200","36000","52000","[2,3]","535.8081988214778","165.23821706621428","443.3706977310813"
"","canvas-keyboard-response","177","184105","0.0-6.0-3.24","546","","","","","rectangles with change","null","null","","","catch","sh","sw","l","222","143","186","197","208","292","spektor","null","null","null","null","null","null","null","null","null","null","null","","180","200","260","200","36000","52000","[2,3]","535.8081988214778","165.23821706621428","443.3706977310813"
"","canvas-keyboard-response","178","184125","0.0-6.0-4.24","546","","","","","clear_screen","null","null","","","catch","sh","sw","l","222","143","186","197","208","292","spektor","null","null","null","null","null","null","null","null","null","null","null","","180","200","260","200","36000","52000","[2,3]","535.8081988214778","165.23821706621428","443.3706977310813"
"","canvas-keyboard-response","179","184916","0.0-6.0-5.24","546","","","","","make choice","785","3","","","catch","sh","sw","l","222","143","186","197","208","292","spektor","null","null","null","null","null","null","null","null","null","null","null","","180","200","260","200","36000","52000","[2,3]","","",""
"","canvas-keyboard-response","180","184936","0.0-6.0-6.24","546","","","","","clear_screen","null","null","","","catch","sh","sw","l","222","143","186","197","208","292","spektor","null","null","null","null","null","null","null","null","null","null","null","","180","200","260","200","36000","52000","[2,3]","","",""
"","canvas-keyboard-response","181","185138","0.0-6.0-0.25","546","","","","","pre trial waiting period","null","null","","","catch","l","sh","sw","288","237","174","195","154","239","trueblood","null","null","null","null","null","null","null","null","null","null","null","","180","200","260","200","36000","52000","[1,3]","466.1805908063712","457.0236744970137","437.45400129034783"
"","canvas-keyboard-response","182","185157","0.0-6.0-1.25","546","","","","","clear_screen","null","null","","","catch","l","sh","sw","288","237","174","195","154","239","trueblood","null","null","null","null","null","null","null","null","null","null","null","","180","200","260","200","36000","52000","[1,3]","466.1805908063712","457.0236744970137","437.45400129034783"
"","canvas-keyboard-response","183","185666","0.0-6.0-2.25","546","","","","","rectangles no change","null","null","","","catch","l","sh","sw","288","237","174","195","154","239","trueblood","null","null","null","null","null","null","null","null","null","null","null","","180","200","260","200","36000","52000","[1,3]","466.1805908063712","457.0236744970137","437.45400129034783"
"","canvas-keyboard-response","184","187004","0.0-6.0-3.25","546","","","","","rectangles with change","null","null","","","catch","l","sh","sw","288","237","174","195","154","239","trueblood","null","null","null","null","null","null","null","null","null","null","null","","180","200","260","200","36000","52000","[1,3]","466.1805908063712","457.0236744970137","437.45400129034783"
"","canvas-keyboard-response","185","187023","0.0-6.0-4.25","546","","","","","clear_screen","null","null","","","catch","l","sh","sw","288","237","174","195","154","239","trueblood","null","null","null","null","null","null","null","null","null","null","null","","180","200","260","200","36000","52000","[1,3]","466.1805908063712","457.0236744970137","437.45400129034783"
"","canvas-keyboard-response","186","187317","0.0-6.0-5.25","546","","","","","make choice","289","1","","","catch","l","sh","sw","288","237","174","195","154","239","trueblood","null","null","null","null","null","null","null","null","null","null","null","","180","200","260","200","36000","52000","[1,3]","","",""
"","canvas-keyboard-response","187","187335","0.0-6.0-6.25","546","","","","","clear_screen","null","null","","","catch","l","sh","sw","288","237","174","195","154","239","trueblood","null","null","null","null","null","null","null","null","null","null","null","","180","200","260","200","36000","52000","[1,3]","","",""
"","canvas-keyboard-response","188","187537","0.0-6.0-0.26","546","","","","","pre trial waiting period","null","null","","","catch","sw","sh","l","180","200","180","178","179","224","trueblood","null","null","null","null","null","null","null","null","null","null","null","","180","200","260","200","36000","52000","[2,3]","460.31807447991764","483.82773213086773","437.7940771649008"
"","canvas-keyboard-response","189","187557","0.0-6.0-1.26","546","","","","","clear_screen","null","null","","","catch","sw","sh","l","180","200","180","178","179","224","trueblood","null","null","null","null","null","null","null","null","null","null","null","","180","200","260","200","36000","52000","[2,3]","460.31807447991764","483.82773213086773","437.7940771649008"
"","canvas-keyboard-response","190","188066","0.0-6.0-2.26","546","","","","","rectangles no change","null","null","","","catch","sw","sh","l","180","200","180","178","179","224","trueblood","null","null","null","null","null","null","null","null","null","null","null","","180","200","260","200","36000","52000","[2,3]","460.31807447991764","483.82773213086773","437.7940771649008"
"","canvas-keyboard-response","191","189404","0.0-6.0-3.26","546","","","","","rectangles with change","null","null","","","catch","sw","sh","l","180","200","180","178","179","224","trueblood","null","null","null","null","null","null","null","null","null","null","null","","180","200","260","200","36000","52000","[2,3]","460.31807447991764","483.82773213086773","437.7940771649008"
"","canvas-keyboard-response","192","189424","0.0-6.0-4.26","546","","","","","clear_screen","null","null","","","catch","sw","sh","l","180","200","180","178","179","224","trueblood","null","null","null","null","null","null","null","null","null","null","null","","180","200","260","200","36000","52000","[2,3]","460.31807447991764","483.82773213086773","437.7940771649008"
"","canvas-keyboard-response","193","189724","0.0-6.0-5.26","546","","","","","make choice","294","3","","","catch","sw","sh","l","180","200","180","178","179","224","trueblood","null","null","null","null","null","null","null","null","null","null","null","","180","200","260","200","36000","52000","[2,3]","","",""
"","canvas-keyboard-response","194","189743","0.0-6.0-6.26","546","","","","","clear_screen","null","null","","","catch","sw","sh","l","180","200","180","178","179","224","trueblood","null","null","null","null","null","null","null","null","null","null","null","","180","200","260","200","36000","52000","[2,3]","","",""
"","canvas-keyboard-response","195","189945","0.0-6.0-0.27","546","","","","","pre trial waiting period","null","null","","","catch","sw","l","sh","180","200","285","211","235","210","trueblood","null","null","null","null","null","null","null","null","null","null","null","","180","200","260","200","36000","52000","[2,3]","491.0719212811913","457.9465660025872","447.9491123766563"
"","canvas-keyboard-response","196","189965","0.0-6.0-1.27","546","","","","","clear_screen","null","null","","","catch","sw","l","sh","180","200","285","211","235","210","trueblood","null","null","null","null","null","null","null","null","null","null","null","","180","200","260","200","36000","52000","[2,3]","491.0719212811913","457.9465660025872","447.9491123766563"
"","canvas-keyboard-response","197","190470","0.0-6.0-2.27","546","","","","","rectangles no change","null","null","","","catch","sw","l","sh","180","200","285","211","235","210","trueblood","null","null","null","null","null","null","null","null","null","null","null","","180","200","260","200","36000","52000","[2,3]","491.0719212811913","457.9465660025872","447.9491123766563"
"","canvas-keyboard-response","198","191808","0.0-6.0-3.27","546","","","","","rectangles with change","null","null","","","catch","sw","l","sh","180","200","285","211","235","210","trueblood","null","null","null","null","null","null","null","null","null","null","null","","180","200","260","200","36000","52000","[2,3]","491.0719212811913","457.9465660025872","447.9491123766563"
"","canvas-keyboard-response","199","191831","0.0-6.0-4.27","546","","","","","clear_screen","null","null","","","catch","sw","l","sh","180","200","285","211","235","210","trueblood","null","null","null","null","null","null","null","null","null","null","null","","180","200","260","200","36000","52000","[2,3]","491.0719212811913","457.9465660025872","447.9491123766563"
"","canvas-keyboard-response","200","192620","0.0-6.0-5.27","546","","","","","make choice","781","2","","","catch","sw","l","sh","180","200","285","211","235","210","trueblood","null","null","null","null","null","null","null","null","null","null","null","","180","200","260","200","36000","52000","[2,3]","","",""
"","canvas-keyboard-response","201","192638","0.0-6.0-6.27","546","","","","","clear_screen","null","null","","","catch","sw","l","sh","180","200","285","211","235","210","trueblood","null","null","null","null","null","null","null","null","null","null","null","","180","200","260","200","36000","52000","[2,3]","","",""
"","canvas-keyboard-response","202","192839","0.0-6.0-0.28","546","","","","","pre trial waiting period","null","null","","","critical","d","c","t","164","240","240","164","164","240","spektor","0","h","164","240","240","164","164","240","39360","39360","39360","tc","null","null","null","null","null","null","[3,2]","472.2678652419985","187.55299883298036","499.6587510258421"
"","canvas-keyboard-response","203","192859","0.0-6.0-1.28","546","","","","","clear_screen","null","null","","","critical","d","c","t","164","240","240","164","164","240","spektor","0","h","164","240","240","164","164","240","39360","39360","39360","tc","null","null","null","null","null","null","[3,2]","472.2678652419985","187.55299883298036","499.6587510258421"
"","canvas-keyboard-response","204","193368","0.0-6.0-2.28","546","","","","","rectangles no change","null","null","","","critical","d","c","t","164","240","240","164","164","240","spektor","0","h","164","240","240","164","164","240","39360","39360","39360","tc","null","null","null","null","null","null","[3,2]","472.2678652419985","187.55299883298036","499.6587510258421"
"","canvas-keyboard-response","205","194707","0.0-6.0-3.28","546","","","","","rectangles with change","null","null","","","critical","d","c","t","164","240","240","164","164","240","spektor","0","h","164","240","240","164","164","240","39360","39360","39360","tc","null","null","null","null","null","null","[3,2]","472.2678652419985","187.55299883298036","499.6587510258421"
"","canvas-keyboard-response","206","194726","0.0-6.0-4.28","546","","","","","clear_screen","null","null","","","critical","d","c","t","164","240","240","164","164","240","spektor","0","h","164","240","240","164","164","240","39360","39360","39360","tc","null","null","null","null","null","null","[3,2]","472.2678652419985","187.55299883298036","499.6587510258421"
"","canvas-keyboard-response","207","195108","0.0-6.0-5.28","546","","","","","make choice","376","3","","","critical","d","c","t","164","240","240","164","164","240","spektor","0","h","164","240","240","164","164","240","39360","39360","39360","tc","null","null","null","null","null","null","[3,2]","","",""
"","canvas-keyboard-response","208","195127","0.0-6.0-6.28","546","","","","","clear_screen","null","null","","","critical","d","c","t","164","240","240","164","164","240","spektor","0","h","164","240","240","164","164","240","39360","39360","39360","tc","null","null","null","null","null","null","[3,2]","","",""
"","canvas-keyboard-response","209","195328","0.0-6.0-0.29","546","","","","","pre trial waiting period","null","null","","","catch","l","sw","sh","236","258","140","184","227","210","trueblood","null","null","null","null","null","null","null","null","null","null","null","","180","200","260","200","36000","52000","[1,2]","411.44218413588226","458.2939439293549","446.20639655260817"
"","canvas-keyboard-response","210","195348","0.0-6.0-1.29","546","","","","","clear_screen","null","null","","","catch","l","sw","sh","236","258","140","184","227","210","trueblood","null","null","null","null","null","null","null","null","null","null","null","","180","200","260","200","36000","52000","[1,2]","411.44218413588226","458.2939439293549","446.20639655260817"
"","canvas-keyboard-response","211","195855","0.0-6.0-2.29","546","","","","","rectangles no change","null","null","","","catch","l","sw","sh","236","258","140","184","227","210","trueblood","null","null","null","null","null","null","null","null","null","null","null","","180","200","260","200","36000","52000","[1,2]","411.44218413588226","458.2939439293549","446.20639655260817"
"","canvas-keyboard-response","212","197191","0.0-6.0-3.29","546","","","","","rectangles with change","null","null","","","catch","l","sw","sh","236","258","140","184","227","210","trueblood","null","null","null","null","null","null","null","null","null","null","null","","180","200","260","200","36000","52000","[1,2]","411.44218413588226","458.2939439293549","446.20639655260817"
"","canvas-keyboard-response","213","197212","0.0-6.0-4.29","546","","","","","clear_screen","null","null","","","catch","l","sw","sh","236","258","140","184","227","210","trueblood","null","null","null","null","null","null","null","null","null","null","null","","180","200","260","200","36000","52000","[1,2]","411.44218413588226","458.2939439293549","446.20639655260817"
"","canvas-keyboard-response","214","197452","0.0-6.0-5.29","546","","","","","make choice","237","1","","","catch","l","sw","sh","236","258","140","184","227","210","trueblood","null","null","null","null","null","null","null","null","null","null","null","","180","200","260","200","36000","52000","[1,2]","","",""
"","canvas-keyboard-response","215","197473","0.0-6.0-6.29","546","","","","","clear_screen","null","null","","","catch","l","sw","sh","236","258","140","184","227","210","trueblood","null","null","null","null","null","null","null","null","null","null","null","","180","200","260","200","36000","52000","[1,2]","","",""
"","canvas-keyboard-response","216","197674","0.0-6.0-0.30","546","","","","","pre trial waiting period","null","null","","","catch","sw","sh","l","180","200","210","201","220","248","spektor","null","null","null","null","null","null","null","null","null","null","null","","180","200","260","200","36000","52000","[2,3]","497.79367879302663","128.05457196700547","471.298350034286"
"","canvas-keyboard-response","217","197695","0.0-6.0-1.30","546","","","","","clear_screen","null","null","","","catch","sw","sh","l","180","200","210","201","220","248","spektor","null","null","null","null","null","null","null","null","null","null","null","","180","200","260","200","36000","52000","[2,3]","497.79367879302663","128.05457196700547","471.298350034286"
"","canvas-keyboard-response","218","198201","0.0-6.0-2.30","546","","","","","rectangles no change","null","null","","","catch","sw","sh","l","180","200","210","201","220","248","spektor","null","null","null","null","null","null","null","null","null","null","null","","180","200","260","200","36000","52000","[2,3]","497.79367879302663","128.05457196700547","471.298350034286"
"","canvas-keyboard-response","219","199537","0.0-6.0-3.30","546","","","","","rectangles with change","null","null","","","catch","sw","sh","l","180","200","210","201","220","248","spektor","null","null","null","null","null","null","null","null","null","null","null","","180","200","260","200","36000","52000","[2,3]","497.79367879302663","128.05457196700547","471.298350034286"
"","canvas-keyboard-response","220","199559","0.0-6.0-4.30","546","","","","","clear_screen","null","null","","","catch","sw","sh","l","180","200","210","201","220","248","spektor","null","null","null","null","null","null","null","null","null","null","null","","180","200","260","200","36000","52000","[2,3]","497.79367879302663","128.05457196700547","471.298350034286"
"","canvas-keyboard-response","221","199924","0.0-6.0-5.30","546","","","","","make choice","360","3","","","catch","sw","sh","l","180","200","210","201","220","248","spektor","null","null","null","null","null","null","null","null","null","null","null","","180","200","260","200","36000","52000","[2,3]","","",""
"","canvas-keyboard-response","222","199944","0.0-6.0-6.30","546","","","","","clear_screen","null","null","","","catch","sw","sh","l","180","200","210","201","220","248","spektor","null","null","null","null","null","null","null","null","null","null","null","","180","200","260","200","36000","52000","[2,3]","","",""
"","canvas-keyboard-response","223","200144","0.0-6.0-0.31","546","","","","","pre trial waiting period","null","null","","","catch","sh","sw","l","234","212","200","168","195","265","spektor","null","null","null","null","null","null","null","null","null","null","null","","180","200","260","200","36000","52000","[1,3]","511.95759875694404","171.83868253266382","448.4110274596349"
"","canvas-keyboard-response","224","200165","0.0-6.0-1.31","546","","","","","clear_screen","null","null","","","catch","sh","sw","l","234","212","200","168","195","265","spektor","null","null","null","null","null","null","null","null","null","null","null","","180","200","260","200","36000","52000","[1,3]","511.95759875694404","171.83868253266382","448.4110274596349"
"","canvas-keyboard-response","225","200677","0.0-6.0-2.31","546","","","","","rectangles no change","null","null","","","catch","sh","sw","l","234","212","200","168","195","265","spektor","null","null","null","null","null","null","null","null","null","null","null","","180","200","260","200","36000","52000","[1,3]","511.95759875694404","171.83868253266382","448.4110274596349"
"","canvas-keyboard-response","226","202013","0.0-6.0-3.31","546","","","","","rectangles with change","null","null","","","catch","sh","sw","l","234","212","200","168","195","265","spektor","null","null","null","null","null","null","null","null","null","null","null","","180","200","260","200","36000","52000","[1,3]","511.95759875694404","171.83868253266382","448.4110274596349"
"","canvas-keyboard-response","227","202036","0.0-6.0-4.31","546","","","","","clear_screen","null","null","","","catch","sh","sw","l","234","212","200","168","195","265","spektor","null","null","null","null","null","null","null","null","null","null","null","","180","200","260","200","36000","52000","[1,3]","511.95759875694404","171.83868253266382","448.4110274596349"
"","canvas-keyboard-response","228","202332","0.0-6.0-5.31","546","","","","","make choice","290","3","","","catch","sh","sw","l","234","212","200","168","195","265","spektor","null","null","null","null","null","null","null","null","null","null","null","","180","200","260","200","36000","52000","[1,3]","","",""
"","canvas-keyboard-response","229","202352","0.0-6.0-6.31","546","","","","","clear_screen","null","null","","","catch","sh","sw","l","234","212","200","168","195","265","spektor","null","null","null","null","null","null","null","null","null","null","null","","180","200","260","200","36000","52000","[1,3]","","",""
"","canvas-keyboard-response","230","202553","0.0-6.0-0.32","546","","","","","pre trial waiting period","null","null","","","catch","sw","sh","l","180","200","237","181","299","180","spektor","null","null","null","null","null","null","null","null","null","null","null","","180","200","260","200","36000","52000","[2,3]","522.1814433452363","160.98877820144423","528.1887661734435"
"","canvas-keyboard-response","231","202573","0.0-6.0-1.32","546","","","","","clear_screen","null","null","","","catch","sw","sh","l","180","200","237","181","299","180","spektor","null","null","null","null","null","null","null","null","null","null","null","","180","200","260","200","36000","52000","[2,3]","522.1814433452363","160.98877820144423","528.1887661734435"
"","canvas-keyboard-response","232","203078","0.0-6.0-2.32","546","","","","","rectangles no change","null","null","","","catch","sw","sh","l","180","200","237","181","299","180","spektor","null","null","null","null","null","null","null","null","null","null","null","","180","200","260","200","36000","52000","[2,3]","522.1814433452363","160.98877820144423","528.1887661734435"
"","canvas-keyboard-response","233","204416","0.0-6.0-3.32","546","","","","","rectangles with change","null","null","","","catch","sw","sh","l","180","200","237","181","299","180","spektor","null","null","null","null","null","null","null","null","null","null","null","","180","200","260","200","36000","52000","[2,3]","522.1814433452363","160.98877820144423","528.1887661734435"
"","canvas-keyboard-response","234","204439","0.0-6.0-4.32","546","","","","","clear_screen","null","null","","","catch","sw","sh","l","180","200","237","181","299","180","spektor","null","null","null","null","null","null","null","null","null","null","null","","180","200","260","200","36000","52000","[2,3]","522.1814433452363","160.98877820144423","528.1887661734435"
"","canvas-keyboard-response","235","204732","0.0-6.0-5.32","546","","","","","make choice","289","3","","","catch","sw","sh","l","180","200","237","181","299","180","spektor","null","null","null","null","null","null","null","null","null","null","null","","180","200","260","200","36000","52000","[2,3]","","",""
"","canvas-keyboard-response","236","204752","0.0-6.0-6.32","546","","","","","clear_screen","null","null","","","catch","sw","sh","l","180","200","237","181","299","180","spektor","null","null","null","null","null","null","null","null","null","null","null","","180","200","260","200","36000","52000","[2,3]","","",""
"","canvas-keyboard-response","237","204953","0.0-6.0-0.33","546","","","","","pre trial waiting period","null","null","","","critical","t","c","d","240","164","164","240","227.1683","158.0083","trueblood","0.09","w","240","164","164","240","227.1683","158.0083","39360","39360","35894.4834","td","null","null","null","null","null","null","[1,3]","516.3172206693358","451.4287895049723","499.50213119028246"
"","canvas-keyboard-response","238","204974","0.0-6.0-1.33","546","","","","","clear_screen","null","null","","","critical","t","c","d","240","164","164","240","227.1683","158.0083","trueblood","0.09","w","240","164","164","240","227.1683","158.0083","39360","39360","35894.4834","td","null","null","null","null","null","null","[1,3]","516.3172206693358","451.4287895049723","499.50213119028246"
"","canvas-keyboard-response","239","205481","0.0-6.0-2.33","546","","","","","rectangles no change","null","null","","","critical","t","c","d","240","164","164","240","227.1683","158.0083","trueblood","0.09","w","240","164","164","240","227.1683","158.0083","39360","39360","35894.4834","td","null","null","null","null","null","null","[1,3]","516.3172206693358","451.4287895049723","499.50213119028246"
"","canvas-keyboard-response","240","206814","0.0-6.0-3.33","546","","","","","rectangles with change","null","null","","","critical","t","c","d","240","164","164","240","227.1683","158.0083","trueblood","0.09","w","240","164","164","240","227.1683","158.0083","39360","39360","35894.4834","td","null","null","null","null","null","null","[1,3]","516.3172206693358","451.4287895049723","499.50213119028246"
"","canvas-keyboard-response","241","206836","0.0-6.0-4.33","546","","","","","clear_screen","null","null","","","critical","t","c","d","240","164","164","240","227.1683","158.0083","trueblood","0.09","w","240","164","164","240","227.1683","158.0083","39360","39360","35894.4834","td","null","null","null","null","null","null","[1,3]","516.3172206693358","451.4287895049723","499.50213119028246"
"","canvas-keyboard-response","242","207156","0.0-6.0-5.33","546","","","","","make choice","315","1","","","critical","t","c","d","240","164","164","240","227.1683","158.0083","trueblood","0.09","w","240","164","164","240","227.1683","158.0083","39360","39360","35894.4834","td","null","null","null","null","null","null","[1,3]","","",""
"","canvas-keyboard-response","243","207173","0.0-6.0-6.33","546","","","","","clear_screen","null","null","","","critical","t","c","d","240","164","164","240","227.1683","158.0083","trueblood","0.09","w","240","164","164","240","227.1683","158.0083","39360","39360","35894.4834","td","null","null","null","null","null","null","[1,3]","","",""
"","canvas-keyboard-response","244","207375","0.0-6.0-0.34","546","","","","","pre trial waiting period","null","null","","","critical","d","c","t","220.0396","154.6796","164","240","240","164","trueblood","0.14","w","240","164","164","240","220.0396","154.6796","39360","39360","34035.6388","td","null","null","null","null","null","null","[3,1]","501.0223516667094","452.2746503177551","480.09348676296446"
"","canvas-keyboard-response","245","207394","0.0-6.0-1.34","546","","","","","clear_screen","null","null","","","critical","d","c","t","220.0396","154.6796","164","240","240","164","trueblood","0.14","w","240","164","164","240","220.0396","154.6796","39360","39360","34035.6388","td","null","null","null","null","null","null","[3,1]","501.0223516667094","452.2746503177551","480.09348676296446"
"","canvas-keyboard-response","246","207902","0.0-6.0-2.34","546","","","","","rectangles no change","null","null","","","critical","d","c","t","220.0396","154.6796","164","240","240","164","trueblood","0.14","w","240","164","164","240","220.0396","154.6796","39360","39360","34035.6388","td","null","null","null","null","null","null","[3,1]","501.0223516667094","452.2746503177551","480.09348676296446"
"","canvas-keyboard-response","247","209237","0.0-6.0-3.34","546","","","","","rectangles with change","null","null","","","critical","d","c","t","220.0396","154.6796","164","240","240","164","trueblood","0.14","w","240","164","164","240","220.0396","154.6796","39360","39360","34035.6388","td","null","null","null","null","null","null","[3,1]","501.0223516667094","452.2746503177551","480.09348676296446"
"","canvas-keyboard-response","248","209257","0.0-6.0-4.34","546","","","","","clear_screen","null","null","","","critical","d","c","t","220.0396","154.6796","164","240","240","164","trueblood","0.14","w","240","164","164","240","220.0396","154.6796","39360","39360","34035.6388","td","null","null","null","null","null","null","[3,1]","501.0223516667094","452.2746503177551","480.09348676296446"
"","canvas-keyboard-response","249","209572","0.0-6.0-5.34","546","","","","","make choice","309","3","","","critical","d","c","t","220.0396","154.6796","164","240","240","164","trueblood","0.14","w","240","164","164","240","220.0396","154.6796","39360","39360","34035.6388","td","null","null","null","null","null","null","[3,1]","","",""
"","canvas-keyboard-response","250","209593","0.0-6.0-6.34","546","","","","","clear_screen","null","null","","","critical","d","c","t","220.0396","154.6796","164","240","240","164","trueblood","0.14","w","240","164","164","240","220.0396","154.6796","39360","39360","34035.6388","td","null","null","null","null","null","null","[3,1]","","",""
"","canvas-keyboard-response","251","209794","0.0-6.0-0.35","546","","","","","pre trial waiting period","null","null","","","critical","t","d","c","240","164","220.0396","154.6796","164","240","spektor","0.14","w","240","164","164","240","220.0396","154.6796","39360","39360","34035.6388","td","null","null","null","null","null","null","[1,2]","521.0233306982802","224.3776263270934","481.9167556015197"
"","canvas-keyboard-response","252","209814","0.0-6.0-1.35","546","","","","","clear_screen","null","null","","","critical","t","d","c","240","164","220.0396","154.6796","164","240","spektor","0.14","w","240","164","164","240","220.0396","154.6796","39360","39360","34035.6388","td","null","null","null","null","null","null","[1,2]","521.0233306982802","224.3776263270934","481.9167556015197"
"","canvas-keyboard-response","253","210322","0.0-6.0-2.35","546","","","","","rectangles no change","null","null","","","critical","t","d","c","240","164","220.0396","154.6796","164","240","spektor","0.14","w","240","164","164","240","220.0396","154.6796","39360","39360","34035.6388","td","null","null","null","null","null","null","[1,2]","521.0233306982802","224.3776263270934","481.9167556015197"
"","canvas-keyboard-response","254","211662","0.0-6.0-3.35","546","","","","","rectangles with change","null","null","","","critical","t","d","c","240","164","220.0396","154.6796","164","240","spektor","0.14","w","240","164","164","240","220.0396","154.6796","39360","39360","34035.6388","td","null","null","null","null","null","null","[1,2]","521.0233306982802","224.3776263270934","481.9167556015197"
"","canvas-keyboard-response","255","211685","0.0-6.0-4.35","546","","","","","clear_screen","null","null","","","critical","t","d","c","240","164","220.0396","154.6796","164","240","spektor","0.14","w","240","164","164","240","220.0396","154.6796","39360","39360","34035.6388","td","null","null","null","null","null","null","[1,2]","521.0233306982802","224.3776263270934","481.9167556015197"
"","canvas-keyboard-response","256","211787","0.0-6.0-5.35","546","","","","","make choice","98","1","","","critical","t","d","c","240","164","220.0396","154.6796","164","240","spektor","0.14","w","240","164","164","240","220.0396","154.6796","39360","39360","34035.6388","td","null","null","null","null","null","null","[1,2]","","",""
"","canvas-keyboard-response","257","211805","0.0-6.0-6.35","546","","","","","clear_screen","null","null","","","critical","t","d","c","240","164","220.0396","154.6796","164","240","spektor","0.14","w","240","164","164","240","220.0396","154.6796","39360","39360","34035.6388","td","null","null","null","null","null","null","[1,2]","","",""
"","canvas-keyboard-response","258","212006","0.0-6.0-0.36","546","","","","","pre trial waiting period","null","null","","","critical","c","d","t","240","164","154.6796","220.0396","164","240","trueblood","0.14","h","164","240","240","164","154.6796","220.0396","39360","39360","34035.6388","dc","null","null","null","null","null","null","[2,1]","475.0865601019708","440.34871855222787","439.63790293327554"
"","canvas-keyboard-response","259","212027","0.0-6.0-1.36","546","","","","","clear_screen","null","null","","","critical","c","d","t","240","164","154.6796","220.0396","164","240","trueblood","0.14","h","164","240","240","164","154.6796","220.0396","39360","39360","34035.6388","dc","null","null","null","null","null","null","[2,1]","475.0865601019708","440.34871855222787","439.63790293327554"
"","canvas-keyboard-response","260","212532","0.0-6.0-2.36","546","","","","","rectangles no change","null","null","","","critical","c","d","t","240","164","154.6796","220.0396","164","240","trueblood","0.14","h","164","240","240","164","154.6796","220.0396","39360","39360","34035.6388","dc","null","null","null","null","null","null","[2,1]","475.0865601019708","440.34871855222787","439.63790293327554"
"","canvas-keyboard-response","261","213868","0.0-6.0-3.36","546","","","","","rectangles with change","null","null","","","critical","c","d","t","240","164","154.6796","220.0396","164","240","trueblood","0.14","h","164","240","240","164","154.6796","220.0396","39360","39360","34035.6388","dc","null","null","null","null","null","null","[2,1]","475.0865601019708","440.34871855222787","439.63790293327554"
"","canvas-keyboard-response","262","213888","0.0-6.0-4.36","546","","","","","clear_screen","null","null","","","critical","c","d","t","240","164","154.6796","220.0396","164","240","trueblood","0.14","h","164","240","240","164","154.6796","220.0396","39360","39360","34035.6388","dc","null","null","null","null","null","null","[2,1]","475.0865601019708","440.34871855222787","439.63790293327554"
"","canvas-keyboard-response","263","214460","0.0-6.0-5.36","546","","","","","make choice","567","1","","","critical","c","d","t","240","164","154.6796","220.0396","164","240","trueblood","0.14","h","164","240","240","164","154.6796","220.0396","39360","39360","34035.6388","dc","null","null","null","null","null","null","[2,1]","","",""
"","canvas-keyboard-response","264","214479","0.0-6.0-6.36","546","","","","","clear_screen","null","null","","","critical","c","d","t","240","164","154.6796","220.0396","164","240","trueblood","0.14","h","164","240","240","164","154.6796","220.0396","39360","39360","34035.6388","dc","null","null","null","null","null","null","[2,1]","","",""
"","canvas-keyboard-response","265","214680","0.0-6.0-0.37","546","","","","","pre trial waiting period","null","null","","","critical","d","c","t","158.0083","227.1683","240","164","164","240","trueblood","0.09","h","164","240","240","164","158.0083","227.1683","39360","39360","35894.4834","td","null","null","null","null","null","null","[3,1]","474.04510697078587","485.69618177866624","436.8723776638346"
"","canvas-keyboard-response","266","214700","0.0-6.0-1.37","546","","","","","clear_screen","null","null","","","critical","d","c","t","158.0083","227.1683","240","164","164","240","trueblood","0.09","h","164","240","240","164","158.0083","227.1683","39360","39360","35894.4834","td","null","null","null","null","null","null","[3,1]","474.04510697078587","485.69618177866624","436.8723776638346"
"","canvas-keyboard-response","267","215208","0.0-6.0-2.37","546","","","","","rectangles no change","null","null","","","critical","d","c","t","158.0083","227.1683","240","164","164","240","trueblood","0.09","h","164","240","240","164","158.0083","227.1683","39360","39360","35894.4834","td","null","null","null","null","null","null","[3,1]","474.04510697078587","485.69618177866624","436.8723776638346"
