"success","trial_type","trial_index","time_elapsed","internal_node_id","sub_n","timeout","failed_images","failed_audio","failed_video","screen_id","rt","response","stimulus","view_history","trial","r1","r2","r3","w1","h1","w2","h2","w3","h3","display","tdd","tdo","tw","th","cw","ch","dw","dh","ta","ca","da","probe","csls","csss","clls","clss","sa","la","probe_rects","r1yloc","r2yloc","r3yloc"
"true","fullscreen","0","8874","0.0-0.0","517","","","","","","","","","","","","","","","","","","","","","","","","","","","","","","","","","","","","","","","","","",""
"true","preload","1","8891","0.0-1.0","517","false","[]","[]","[]","img preload","","","","","","","","","","","","","","","","","","","","","","","","","","","","","","","","","","","","",""
"","survey-html-form","2","17518","0.0-2.0","517","","","","","enter-sub-number","8620","{""response"":""517""}","","","","","","","","","","","","","","","","","","","","","","","","","","","","","","","","","","",""
"","image-button-response","3","54042","0.0-3.0","517","","","","","","36457","0","consent.png","","","","","","","","","","","","","","","","","","","","","","","","","","","","","","","","","",""
"","html-button-response","4","62539","0.0-4.0","517","","","","","intro mssg","8491","0","<div style= ""font-size:25px;"" <p> <strong> Welcome! </strong><br> <p style=""color:#8B0000; font-size:25px;""><strong> Please do NOT exit full screen until you are done with the experiment. </strong> </p><p style=""font-size:25px;color:#8B0000;""> <strong> Your data will be lost <br> if you try to go back or refresh the page after the experiment starts. Feel free to click ""previous"" during the instructions, however.</strong> </p><br><p> <strong> Thanks in advance for your contribution to our research! </strong></p>","","","","","","","","","","","","","","","","","","","","","","","","","","","","","","","","","",""
"","instructions","5","107946","0.0-5.0","517","","","","","instructions","45404","","","[{""page_index"":0,""viewing_time"":7316},{""page_index"":1,""viewing_time"":5600},{""page_index"":2,""viewing_time"":4927},{""page_index"":3,""viewing_time"":15785},{""page_index"":4,""viewing_time"":4423},{""page_index"":5,""viewing_time"":2440},{""page_index"":6,""viewing_time"":3544},{""page_index"":7,""viewing_time"":1368}]","","","","","","","","","","","","","","","","","","","","","","","","","","","","","","","","",""
"","canvas-keyboard-response","6","108152","0.0-6.0-0.0","517","","","","","pre trial waiting period","null","null","","","critical","d","t","c","232.8713","160.6713","240","164","164","240","spektor","0.05","w","240","164","164","240","232.8713","160.6713","39360","39360","37415.7294","dc","null","null","null","null","null","null","[1,3]","540.7656963324","174.21765724192028","495.36000990938766"
"","canvas-keyboard-response","7","108177","0.0-6.0-1.0","517","","","","","clear_screen","null","null","","","critical","d","t","c","232.8713","160.6713","240","164","164","240","spektor","0.05","w","240","164","164","240","232.8713","160.6713","39360","39360","37415.7294","dc","null","null","null","null","null","null","[1,3]","540.7656963324","174.21765724192028","495.36000990938766"
"","canvas-keyboard-response","8","108689","0.0-6.0-2.0","517","","","","","rectangles no change","null","null","","","critical","d","t","c","232.8713","160.6713","240","164","164","240","spektor","0.05","w","240","164","164","240","232.8713","160.6713","39360","39360","37415.7294","dc","null","null","null","null","null","null","[1,3]","540.7656963324","174.21765724192028","495.36000990938766"
"","canvas-keyboard-response","9","110025","0.0-6.0-3.0","517","","","","","rectangles with change","null","null","","","critical","d","t","c","232.8713","160.6713","240","164","164","240","spektor","0.05","w","240","164","164","240","232.8713","160.6713","39360","39360","37415.7294","dc","null","null","null","null","null","null","[1,3]","540.7656963324","174.21765724192028","495.36000990938766"
"","canvas-keyboard-response","10","110044","0.0-6.0-4.0","517","","","","","clear_screen","null","null","","","critical","d","t","c","232.8713","160.6713","240","164","164","240","spektor","0.05","w","240","164","164","240","232.8713","160.6713","39360","39360","37415.7294","dc","null","null","null","null","null","null","[1,3]","540.7656963324","174.21765724192028","495.36000990938766"
"","canvas-keyboard-response","11","112202","0.0-6.0-5.0","517","","","","","make choice","2148","3","","","critical","d","t","c","232.8713","160.6713","240","164","164","240","spektor","0.05","w","240","164","164","240","232.8713","160.6713","39360","39360","37415.7294","dc","null","null","null","null","null","null","[1,3]","","",""
"","canvas-keyboard-response","12","112221","0.0-6.0-6.0","517","","","","","clear_screen","null","null","","","critical","d","t","c","232.8713","160.6713","240","164","164","240","spektor","0.05","w","240","164","164","240","232.8713","160.6713","39360","39360","37415.7294","dc","null","null","null","null","null","null","[1,3]","","",""
"","canvas-keyboard-response","13","112422","0.0-6.0-0.1","517","","","","","pre trial waiting period","null","null","","","critical","d","t","c","237.1485","162.6685","240","164","164","240","spektor","0.02","w","240","164","164","240","237.1485","162.6685","39360","39360","38576.5967","dc","null","null","null","null","null","null","[1,3]","498.2567534563152","212.55832200487143","463.8792630028178"
"","canvas-keyboard-response","14","112445","0.0-6.0-1.1","517","","","","","clear_screen","null","null","","","critical","d","t","c","237.1485","162.6685","240","164","164","240","spektor","0.02","w","240","164","164","240","237.1485","162.6685","39360","39360","38576.5967","dc","null","null","null","null","null","null","[1,3]","498.2567534563152","212.55832200487143","463.8792630028178"
"","canvas-keyboard-response","15","112953","0.0-6.0-2.1","517","","","","","rectangles no change","null","null","","","critical","d","t","c","237.1485","162.6685","240","164","164","240","spektor","0.02","w","240","164","164","240","237.1485","162.6685","39360","39360","38576.5967","dc","null","null","null","null","null","null","[1,3]","498.2567534563152","212.55832200487143","463.8792630028178"
"","canvas-keyboard-response","16","114290","0.0-6.0-3.1","517","","","","","rectangles with change","null","null","","","critical","d","t","c","237.1485","162.6685","240","164","164","240","spektor","0.02","w","240","164","164","240","237.1485","162.6685","39360","39360","38576.5967","dc","null","null","null","null","null","null","[1,3]","498.2567534563152","212.55832200487143","463.8792630028178"
"","canvas-keyboard-response","17","114312","0.0-6.0-4.1","517","","","","","clear_screen","null","null","","","critical","d","t","c","237.1485","162.6685","240","164","164","240","spektor","0.02","w","240","164","164","240","237.1485","162.6685","39360","39360","38576.5967","dc","null","null","null","null","null","null","[1,3]","498.2567534563152","212.55832200487143","463.8792630028178"
"","canvas-keyboard-response","18","116745","0.0-6.0-5.1","517","","","","","make choice","2423","3","","","critical","d","t","c","237.1485","162.6685","240","164","164","240","spektor","0.02","w","240","164","164","240","237.1485","162.6685","39360","39360","38576.5967","dc","null","null","null","null","null","null","[1,3]","","",""
"","canvas-keyboard-response","19","116766","0.0-6.0-6.1","517","","","","","clear_screen","null","null","","","critical","d","t","c","237.1485","162.6685","240","164","164","240","spektor","0.02","w","240","164","164","240","237.1485","162.6685","39360","39360","38576.5967","dc","null","null","null","null","null","null","[1,3]","","",""
"","canvas-keyboard-response","20","116967","0.0-6.0-0.2","517","","","","","pre trial waiting period","null","null","","","critical","d","c","t","162.6685","237.1485","240","164","164","240","trueblood","0.02","h","164","240","240","164","162.6685","237.1485","39360","39360","38576.5967","dc","null","null","null","null","null","null","[1,2]","462.223458589913","488.4002571174879","423.2057206216575"
"","canvas-keyboard-response","21","116987","0.0-6.0-1.2","517","","","","","clear_screen","null","null","","","critical","d","c","t","162.6685","237.1485","240","164","164","240","trueblood","0.02","h","164","240","240","164","162.6685","237.1485","39360","39360","38576.5967","dc","null","null","null","null","null","null","[1,2]","462.223458589913","488.4002571174879","423.2057206216575"
"","canvas-keyboard-response","22","117496","0.0-6.0-2.2","517","","","","","rectangles no change","null","null","","","critical","d","c","t","162.6685","237.1485","240","164","164","240","trueblood","0.02","h","164","240","240","164","162.6685","237.1485","39360","39360","38576.5967","dc","null","null","null","null","null","null","[1,2]","462.223458589913","488.4002571174879","423.2057206216575"
"","canvas-keyboard-response","23","118833","0.0-6.0-3.2","517","","","","","rectangles with change","null","null","","","critical","d","c","t","162.6685","237.1485","240","164","164","240","trueblood","0.02","h","164","240","240","164","162.6685","237.1485","39360","39360","38576.5967","dc","null","null","null","null","null","null","[1,2]","462.223458589913","488.4002571174879","423.2057206216575"
"","canvas-keyboard-response","24","118856","0.0-6.0-4.2","517","","","","","clear_screen","null","null","","","critical","d","c","t","162.6685","237.1485","240","164","164","240","trueblood","0.02","h","164","240","240","164","162.6685","237.1485","39360","39360","38576.5967","dc","null","null","null","null","null","null","[1,2]","462.223458589913","488.4002571174879","423.2057206216575"
"","canvas-keyboard-response","25","122401","0.0-6.0-5.2","517","","","","","make choice","3537","2","","","critical","d","c","t","162.6685","237.1485","240","164","164","240","trueblood","0.02","h","164","240","240","164","162.6685","237.1485","39360","39360","38576.5967","dc","null","null","null","null","null","null","[1,2]","","",""
"","canvas-keyboard-response","26","122423","0.0-6.0-6.2","517","","","","","clear_screen","null","null","","","critical","d","c","t","162.6685","237.1485","240","164","164","240","trueblood","0.02","h","164","240","240","164","162.6685","237.1485","39360","39360","38576.5967","dc","null","null","null","null","null","null","[1,2]","","",""
"","canvas-keyboard-response","27","122624","0.0-6.0-0.3","517","","","","","pre trial waiting period","null","null","","","critical","d","t","c","240","164","240","164","164","240","spektor","0","w","240","164","164","240","240","164","39360","39360","39360","dc","null","null","null","null","null","null","[1,3]","541.4038730896301","171.22747791174538","483.7351502545671"
"","canvas-keyboard-response","28","122646","0.0-6.0-1.3","517","","","","","clear_screen","null","null","","","critical","d","t","c","240","164","240","164","164","240","spektor","0","w","240","164","164","240","240","164","39360","39360","39360","dc","null","null","null","null","null","null","[1,3]","541.4038730896301","171.22747791174538","483.7351502545671"
"","canvas-keyboard-response","29","123155","0.0-6.0-2.3","517","","","","","rectangles no change","null","null","","","critical","d","t","c","240","164","240","164","164","240","spektor","0","w","240","164","164","240","240","164","39360","39360","39360","dc","null","null","null","null","null","null","[1,3]","541.4038730896301","171.22747791174538","483.7351502545671"
"","canvas-keyboard-response","30","124493","0.0-6.0-3.3","517","","","","","rectangles with change","null","null","","","critical","d","t","c","240","164","240","164","164","240","spektor","0","w","240","164","164","240","240","164","39360","39360","39360","dc","null","null","null","null","null","null","[1,3]","541.4038730896301","171.22747791174538","483.7351502545671"
"","canvas-keyboard-response","31","124512","0.0-6.0-4.3","517","","","","","clear_screen","null","null","","","critical","d","t","c","240","164","240","164","164","240","spektor","0","w","240","164","164","240","240","164","39360","39360","39360","dc","null","null","null","null","null","null","[1,3]","541.4038730896301","171.22747791174538","483.7351502545671"
"","canvas-keyboard-response","32","126130","0.0-6.0-5.3","517","","","","","make choice","1609","3","","","critical","d","t","c","240","164","240","164","164","240","spektor","0","w","240","164","164","240","240","164","39360","39360","39360","dc","null","null","null","null","null","null","[1,3]","","",""
"","canvas-keyboard-response","33","126150","0.0-6.0-6.3","517","","","","","clear_screen","null","null","","","critical","d","t","c","240","164","240","164","164","240","spektor","0","w","240","164","164","240","240","164","39360","39360","39360","dc","null","null","null","null","null","null","[1,3]","","",""
"","canvas-keyboard-response","34","126351","0.0-6.0-0.4","517","","","","","pre trial waiting period","null","null","","","catch","l","sw","sh","220","237","145","186","173","172","spektor","null","null","null","null","null","null","null","null","null","null","null","","180","200","260","200","36000","52000","[1,2]","502.71198062456386","149.74068206875899","515.8305837200506"
"","canvas-keyboard-response","35","126369","0.0-6.0-1.4","517","","","","","clear_screen","null","null","","","catch","l","sw","sh","220","237","145","186","173","172","spektor","null","null","null","null","null","null","null","null","null","null","null","","180","200","260","200","36000","52000","[1,2]","502.71198062456386","149.74068206875899","515.8305837200506"
"","canvas-keyboard-response","36","126877","0.0-6.0-2.4","517","","","","","rectangles no change","null","null","","","catch","l","sw","sh","220","237","145","186","173","172","spektor","null","null","null","null","null","null","null","null","null","null","null","","180","200","260","200","36000","52000","[1,2]","502.71198062456386","149.74068206875899","515.8305837200506"
"","canvas-keyboard-response","37","128212","0.0-6.0-3.4","517","","","","","rectangles with change","null","null","","","catch","l","sw","sh","220","237","145","186","173","172","spektor","null","null","null","null","null","null","null","null","null","null","null","","180","200","260","200","36000","52000","[1,2]","502.71198062456386","149.74068206875899","515.8305837200506"
"","canvas-keyboard-response","38","128235","0.0-6.0-4.4","517","","","","","clear_screen","null","null","","","catch","l","sw","sh","220","237","145","186","173","172","spektor","null","null","null","null","null","null","null","null","null","null","null","","180","200","260","200","36000","52000","[1,2]","502.71198062456386","149.74068206875899","515.8305837200506"
"","canvas-keyboard-response","39","129273","0.0-6.0-5.4","517","","","","","make choice","1031","1","","","catch","l","sw","sh","220","237","145","186","173","172","spektor","null","null","null","null","null","null","null","null","null","null","null","","180","200","260","200","36000","52000","[1,2]","","",""
"","canvas-keyboard-response","40","129293","0.0-6.0-6.4","517","","","","","clear_screen","null","null","","","catch","l","sw","sh","220","237","145","186","173","172","spektor","null","null","null","null","null","null","null","null","null","null","null","","180","200","260","200","36000","52000","[1,2]","","",""
"","canvas-keyboard-response","41","129495","0.0-6.0-0.5","517","","","","","pre trial waiting period","null","null","","","critical","d","c","t","158.0083","227.1683","240","164","164","240","trueblood","0.09","h","164","240","240","164","158.0083","227.1683","39360","39360","35894.4834","dc","null","null","null","null","null","null","[1,2]","447.3866354298887","473.02344611051285","451.4534349407974"
"","canvas-keyboard-response","42","129516","0.0-6.0-1.5","517","","","","","clear_screen","null","null","","","critical","d","c","t","158.0083","227.1683","240","164","164","240","trueblood","0.09","h","164","240","240","164","158.0083","227.1683","39360","39360","35894.4834","dc","null","null","null","null","null","null","[1,2]","447.3866354298887","473.02344611051285","451.4534349407974"
"","canvas-keyboard-response","43","130023","0.0-6.0-2.5","517","","","","","rectangles no change","null","null","","","critical","d","c","t","158.0083","227.1683","240","164","164","240","trueblood","0.09","h","164","240","240","164","158.0083","227.1683","39360","39360","35894.4834","dc","null","null","null","null","null","null","[1,2]","447.3866354298887","473.02344611051285","451.4534349407974"
"","canvas-keyboard-response","44","131361","0.0-6.0-3.5","517","","","","","rectangles with change","null","null","","","critical","d","c","t","158.0083","227.1683","240","164","164","240","trueblood","0.09","h","164","240","240","164","158.0083","227.1683","39360","39360","35894.4834","dc","null","null","null","null","null","null","[1,2]","447.3866354298887","473.02344611051285","451.4534349407974"
"","canvas-keyboard-response","45","131382","0.0-6.0-4.5","517","","","","","clear_screen","null","null","","","critical","d","c","t","158.0083","227.1683","240","164","164","240","trueblood","0.09","h","164","240","240","164","158.0083","227.1683","39360","39360","35894.4834","dc","null","null","null","null","null","null","[1,2]","447.3866354298887","473.02344611051285","451.4534349407974"
"","canvas-keyboard-response","46","132288","0.0-6.0-5.5","517","","","","","make choice","900","2","","","critical","d","c","t","158.0083","227.1683","240","164","164","240","trueblood","0.09","h","164","240","240","164","158.0083","227.1683","39360","39360","35894.4834","dc","null","null","null","null","null","null","[1,2]","","",""
"","canvas-keyboard-response","47","132308","0.0-6.0-6.5","517","","","","","clear_screen","null","null","","","critical","d","c","t","158.0083","227.1683","240","164","164","240","trueblood","0.09","h","164","240","240","164","158.0083","227.1683","39360","39360","35894.4834","dc","null","null","null","null","null","null","[1,2]","","",""
"","canvas-keyboard-response","48","132508","0.0-6.0-0.6","517","","","","","pre trial waiting period","null","null","","","critical","c","d","t","164","240","237.1485","162.6685","240","164","spektor","0.02","w","240","164","164","240","237.1485","162.6685","39360","39360","38576.5967","td","null","null","null","null","null","null","[3,2]","479.01924987715597","168.5365165473479","509.0774839806905"
"","canvas-keyboard-response","49","132530","0.0-6.0-1.6","517","","","","","clear_screen","null","null","","","critical","c","d","t","164","240","237.1485","162.6685","240","164","spektor","0.02","w","240","164","164","240","237.1485","162.6685","39360","39360","38576.5967","td","null","null","null","null","null","null","[3,2]","479.01924987715597","168.5365165473479","509.0774839806905"
"","canvas-keyboard-response","50","133038","0.0-6.0-2.6","517","","","","","rectangles no change","null","null","","","critical","c","d","t","164","240","237.1485","162.6685","240","164","spektor","0.02","w","240","164","164","240","237.1485","162.6685","39360","39360","38576.5967","td","null","null","null","null","null","null","[3,2]","479.01924987715597","168.5365165473479","509.0774839806905"
"","canvas-keyboard-response","51","134374","0.0-6.0-3.6","517","","","","","rectangles with change","null","null","","","critical","c","d","t","164","240","237.1485","162.6685","240","164","spektor","0.02","w","240","164","164","240","237.1485","162.6685","39360","39360","38576.5967","td","null","null","null","null","null","null","[3,2]","479.01924987715597","168.5365165473479","509.0774839806905"
"","canvas-keyboard-response","52","134397","0.0-6.0-4.6","517","","","","","clear_screen","null","null","","","critical","c","d","t","164","240","237.1485","162.6685","240","164","spektor","0.02","w","240","164","164","240","237.1485","162.6685","39360","39360","38576.5967","td","null","null","null","null","null","null","[3,2]","479.01924987715597","168.5365165473479","509.0774839806905"
"","canvas-keyboard-response","53","136449","0.0-6.0-5.6","517","","","","","make choice","2044","3","","","critical","c","d","t","164","240","237.1485","162.6685","240","164","spektor","0.02","w","240","164","164","240","237.1485","162.6685","39360","39360","38576.5967","td","null","null","null","null","null","null","[3,2]","","",""
"","canvas-keyboard-response","54","136468","0.0-6.0-6.6","517","","","","","clear_screen","null","null","","","critical","c","d","t","164","240","237.1485","162.6685","240","164","spektor","0.02","w","240","164","164","240","237.1485","162.6685","39360","39360","38576.5967","td","null","null","null","null","null","null","[3,2]","","",""
"","canvas-keyboard-response","55","136669","0.0-6.0-0.7","517","","","","","pre trial waiting period","null","null","","","catch","l","sw","sh","236","171","208","185","229","175","spektor","null","null","null","null","null","null","null","null","null","null","null","","180","200","260","200","36000","52000","[1,2]","532.4699999817542","173.7532712102029","506.8707330760245"
"","canvas-keyboard-response","56","136692","0.0-6.0-1.7","517","","","","","clear_screen","null","null","","","catch","l","sw","sh","236","171","208","185","229","175","spektor","null","null","null","null","null","null","null","null","null","null","null","","180","200","260","200","36000","52000","[1,2]","532.4699999817542","173.7532712102029","506.8707330760245"
"","canvas-keyboard-response","57","137203","0.0-6.0-2.7","517","","","","","rectangles no change","null","null","","","catch","l","sw","sh","236","171","208","185","229","175","spektor","null","null","null","null","null","null","null","null","null","null","null","","180","200","260","200","36000","52000","[1,2]","532.4699999817542","173.7532712102029","506.8707330760245"
"","canvas-keyboard-response","58","138541","0.0-6.0-3.7","517","","","","","rectangles with change","null","null","","","catch","l","sw","sh","236","171","208","185","229","175","spektor","null","null","null","null","null","null","null","null","null","null","null","","180","200","260","200","36000","52000","[1,2]","532.4699999817542","173.7532712102029","506.8707330760245"
"","canvas-keyboard-response","59","138565","0.0-6.0-4.7","517","","","","","clear_screen","null","null","","","catch","l","sw","sh","236","171","208","185","229","175","spektor","null","null","null","null","null","null","null","null","null","null","null","","180","200","260","200","36000","52000","[1,2]","532.4699999817542","173.7532712102029","506.8707330760245"
"","canvas-keyboard-response","60","139586","0.0-6.0-5.7","517","","","","","make choice","1013","1","","","catch","l","sw","sh","236","171","208","185","229","175","spektor","null","null","null","null","null","null","null","null","null","null","null","","180","200","260","200","36000","52000","[1,2]","","",""
"","canvas-keyboard-response","61","139604","0.0-6.0-6.7","517","","","","","clear_screen","null","null","","","catch","l","sw","sh","236","171","208","185","229","175","spektor","null","null","null","null","null","null","null","null","null","null","null","","180","200","260","200","36000","52000","[1,2]","","",""
"","canvas-keyboard-response","62","139804","0.0-6.0-0.8","517","","","","","pre trial waiting period","null","null","","","critical","t","d","c","240","164","232.8713","160.6713","164","240","trueblood","0.05","w","240","164","164","240","232.8713","160.6713","39360","39360","37415.7294","td","null","null","null","null","null","null","[1,2]","516.2095540343547","518.4481593278778","426.5522398622971"
"","canvas-keyboard-response","63","139820","0.0-6.0-1.8","517","","","","","clear_screen","null","null","","","critical","t","d","c","240","164","232.8713","160.6713","164","240","trueblood","0.05","w","240","164","164","240","232.8713","160.6713","39360","39360","37415.7294","td","null","null","null","null","null","null","[1,2]","516.2095540343547","518.4481593278778","426.5522398622971"
"","canvas-keyboard-response","64","140328","0.0-6.0-2.8","517","","","","","rectangles no change","null","null","","","critical","t","d","c","240","164","232.8713","160.6713","164","240","trueblood","0.05","w","240","164","164","240","232.8713","160.6713","39360","39360","37415.7294","td","null","null","null","null","null","null","[1,2]","516.2095540343547","518.4481593278778","426.5522398622971"
"","canvas-keyboard-response","65","141664","0.0-6.0-3.8","517","","","","","rectangles with change","null","null","","","critical","t","d","c","240","164","232.8713","160.6713","164","240","trueblood","0.05","w","240","164","164","240","232.8713","160.6713","39360","39360","37415.7294","td","null","null","null","null","null","null","[1,2]","516.2095540343547","518.4481593278778","426.5522398622971"
"","canvas-keyboard-response","66","141683","0.0-6.0-4.8","517","","","","","clear_screen","null","null","","","critical","t","d","c","240","164","232.8713","160.6713","164","240","trueblood","0.05","w","240","164","164","240","232.8713","160.6713","39360","39360","37415.7294","td","null","null","null","null","null","null","[1,2]","516.2095540343547","518.4481593278778","426.5522398622971"
"","canvas-keyboard-response","67","142456","0.0-6.0-5.8","517","","","","","make choice","766","1","","","critical","t","d","c","240","164","232.8713","160.6713","164","240","trueblood","0.05","w","240","164","164","240","232.8713","160.6713","39360","39360","37415.7294","td","null","null","null","null","null","null","[1,2]","","",""
"","canvas-keyboard-response","68","142477","0.0-6.0-6.8","517","","","","","clear_screen","null","null","","","critical","t","d","c","240","164","232.8713","160.6713","164","240","trueblood","0.05","w","240","164","164","240","232.8713","160.6713","39360","39360","37415.7294","td","null","null","null","null","null","null","[1,2]","","",""
"","canvas-keyboard-response","69","142678","0.0-6.0-0.9","517","","","","","pre trial waiting period","null","null","","","critical","c","d","t","240","164","162.6685","237.1485","164","240","spektor","0.02","h","164","240","240","164","162.6685","237.1485","39360","39360","38576.5967","tc","null","null","null","null","null","null","[3,1]","512.5360750245047","120.07830207421001","470.56812378169116"
"","canvas-keyboard-response","70","142699","0.0-6.0-1.9","517","","","","","clear_screen","null","null","","","critical","c","d","t","240","164","162.6685","237.1485","164","240","spektor","0.02","h","164","240","240","164","162.6685","237.1485","39360","39360","38576.5967","tc","null","null","null","null","null","null","[3,1]","512.5360750245047","120.07830207421001","470.56812378169116"
"","canvas-keyboard-response","71","143209","0.0-6.0-2.9","517","","","","","rectangles no change","null","null","","","critical","c","d","t","240","164","162.6685","237.1485","164","240","spektor","0.02","h","164","240","240","164","162.6685","237.1485","39360","39360","38576.5967","tc","null","null","null","null","null","null","[3,1]","512.5360750245047","120.07830207421001","470.56812378169116"
"","canvas-keyboard-response","72","144549","0.0-6.0-3.9","517","","","","","rectangles with change","null","null","","","critical","c","d","t","240","164","162.6685","237.1485","164","240","spektor","0.02","h","164","240","240","164","162.6685","237.1485","39360","39360","38576.5967","tc","null","null","null","null","null","null","[3,1]","512.5360750245047","120.07830207421001","470.56812378169116"
"","canvas-keyboard-response","73","144568","0.0-6.0-4.9","517","","","","","clear_screen","null","null","","","critical","c","d","t","240","164","162.6685","237.1485","164","240","spektor","0.02","h","164","240","240","164","162.6685","237.1485","39360","39360","38576.5967","tc","null","null","null","null","null","null","[3,1]","512.5360750245047","120.07830207421001","470.56812378169116"
"","canvas-keyboard-response","74","145809","0.0-6.0-5.9","517","","","","","make choice","1234","3","","","critical","c","d","t","240","164","162.6685","237.1485","164","240","spektor","0.02","h","164","240","240","164","162.6685","237.1485","39360","39360","38576.5967","tc","null","null","null","null","null","null","[3,1]","","",""
"","canvas-keyboard-response","75","145827","0.0-6.0-6.9","517","","","","","clear_screen","null","null","","","critical","c","d","t","240","164","162.6685","237.1485","164","240","spektor","0.02","h","164","240","240","164","162.6685","237.1485","39360","39360","38576.5967","tc","null","null","null","null","null","null","[3,1]","","",""
"","canvas-keyboard-response","76","146028","0.0-6.0-0.10","517","","","","","pre trial waiting period","null","null","","","catch","sw","l","sh","180","200","274","177","186","193","trueblood","null","null","null","null","null","null","null","null","null","null","null","","180","200","260","200","36000","52000","[1,2]","487.3872019900535","498.7005620237986","475.4627556393332"
"","canvas-keyboard-response","77","146049","0.0-6.0-1.10","517","","","","","clear_screen","null","null","","","catch","sw","l","sh","180","200","274","177","186","193","trueblood","null","null","null","null","null","null","null","null","null","null","null","","180","200","260","200","36000","52000","[1,2]","487.3872019900535","498.7005620237986","475.4627556393332"
"","canvas-keyboard-response","78","146558","0.0-6.0-2.10","517","","","","","rectangles no change","null","null","","","catch","sw","l","sh","180","200","274","177","186","193","trueblood","null","null","null","null","null","null","null","null","null","null","null","","180","200","260","200","36000","52000","[1,2]","487.3872019900535","498.7005620237986","475.4627556393332"
"","canvas-keyboard-response","79","147897","0.0-6.0-3.10","517","","","","","rectangles with change","null","null","","","catch","sw","l","sh","180","200","274","177","186","193","trueblood","null","null","null","null","null","null","null","null","null","null","null","","180","200","260","200","36000","52000","[1,2]","487.3872019900535","498.7005620237986","475.4627556393332"
"","canvas-keyboard-response","80","147917","0.0-6.0-4.10","517","","","","","clear_screen","null","null","","","catch","sw","l","sh","180","200","274","177","186","193","trueblood","null","null","null","null","null","null","null","null","null","null","null","","180","200","260","200","36000","52000","[1,2]","487.3872019900535","498.7005620237986","475.4627556393332"
"","canvas-keyboard-response","81","148929","0.0-6.0-5.10","517","","","","","make choice","1003","2","","","catch","sw","l","sh","180","200","274","177","186","193","trueblood","null","null","null","null","null","null","null","null","null","null","null","","180","200","260","200","36000","52000","[1,2]","","",""
"","canvas-keyboard-response","82","148949","0.0-6.0-6.10","517","","","","","clear_screen","null","null","","","catch","sw","l","sh","180","200","274","177","186","193","trueblood","null","null","null","null","null","null","null","null","null","null","null","","180","200","260","200","36000","52000","[1,2]","","",""
"","canvas-keyboard-response","83","149150","0.0-6.0-0.11","517","","","","","pre trial waiting period","null","null","","","critical","c","d","t","164","240","232.8713","160.6713","240","164","spektor","0.05","w","240","164","164","240","232.8713","160.6713","39360","39360","37415.7294","td","null","null","null","null","null","null","[3,2]","456.0928863862943","200.64349021340678","525.0232143546327"
"","canvas-keyboard-response","84","149173","0.0-6.0-1.11","517","","","","","clear_screen","null","null","","","critical","c","d","t","164","240","232.8713","160.6713","240","164","spektor","0.05","w","240","164","164","240","232.8713","160.6713","39360","39360","37415.7294","td","null","null","null","null","null","null","[3,2]","456.0928863862943","200.64349021340678","525.0232143546327"
"","canvas-keyboard-response","85","149682","0.0-6.0-2.11","517","","","","","rectangles no change","null","null","","","critical","c","d","t","164","240","232.8713","160.6713","240","164","spektor","0.05","w","240","164","164","240","232.8713","160.6713","39360","39360","37415.7294","td","null","null","null","null","null","null","[3,2]","456.0928863862943","200.64349021340678","525.0232143546327"
"","canvas-keyboard-response","86","151017","0.0-6.0-3.11","517","","","","","rectangles with change","null","null","","","critical","c","d","t","164","240","232.8713","160.6713","240","164","spektor","0.05","w","240","164","164","240","232.8713","160.6713","39360","39360","37415.7294","td","null","null","null","null","null","null","[3,2]","456.0928863862943","200.64349021340678","525.0232143546327"
"","canvas-keyboard-response","87","151036","0.0-6.0-4.11","517","","","","","clear_screen","null","null","","","critical","c","d","t","164","240","232.8713","160.6713","240","164","spektor","0.05","w","240","164","164","240","232.8713","160.6713","39360","39360","37415.7294","td","null","null","null","null","null","null","[3,2]","456.0928863862943","200.64349021340678","525.0232143546327"
"","canvas-keyboard-response","88","151810","0.0-6.0-5.11","517","","","","","make choice","766","3","","","critical","c","d","t","164","240","232.8713","160.6713","240","164","spektor","0.05","w","240","164","164","240","232.8713","160.6713","39360","39360","37415.7294","td","null","null","null","null","null","null","[3,2]","","",""
"","canvas-keyboard-response","89","151829","0.0-6.0-6.11","517","","","","","clear_screen","null","null","","","critical","c","d","t","164","240","232.8713","160.6713","240","164","spektor","0.05","w","240","164","164","240","232.8713","160.6713","39360","39360","37415.7294","td","null","null","null","null","null","null","[3,2]","","",""
"","canvas-keyboard-response","90","152030","0.0-6.0-0.12","517","","","","","pre trial waiting period","null","null","","","critical","t","c","d","240","164","164","240","240","164","spektor","0","w","240","164","164","240","240","164","39360","39360","39360","tc","null","null","null","null","null","null","[1,2]","498.96202006249086","110.63876588358389","505.1294518578059"
"","canvas-keyboard-response","91","152054","0.0-6.0-1.12","517","","","","","clear_screen","null","null","","","critical","t","c","d","240","164","164","240","240","164","spektor","0","w","240","164","164","240","240","164","39360","39360","39360","tc","null","null","null","null","null","null","[1,2]","498.96202006249086","110.63876588358389","505.1294518578059"
"","canvas-keyboard-response","92","152561","0.0-6.0-2.12","517","","","","","rectangles no change","null","null","","","critical","t","c","d","240","164","164","240","240","164","spektor","0","w","240","164","164","240","240","164","39360","39360","39360","tc","null","null","null","null","null","null","[1,2]","498.96202006249086","110.63876588358389","505.1294518578059"
"","canvas-keyboard-response","93","153898","0.0-6.0-3.12","517","","","","","rectangles with change","null","null","","","critical","t","c","d","240","164","164","240","240","164","spektor","0","w","240","164","164","240","240","164","39360","39360","39360","tc","null","null","null","null","null","null","[1,2]","498.96202006249086","110.63876588358389","505.1294518578059"
"","canvas-keyboard-response","94","153917","0.0-6.0-4.12","517","","","","","clear_screen","null","null","","","critical","t","c","d","240","164","164","240","240","164","spektor","0","w","240","164","164","240","240","164","39360","39360","39360","tc","null","null","null","null","null","null","[1,2]","498.96202006249086","110.63876588358389","505.1294518578059"
"","canvas-keyboard-response","95","154649","0.0-6.0-5.12","517","","","","","make choice","727","1","","","critical","t","c","d","240","164","164","240","240","164","spektor","0","w","240","164","164","240","240","164","39360","39360","39360","tc","null","null","null","null","null","null","[1,2]","","",""
"","canvas-keyboard-response","96","154670","0.0-6.0-6.12","517","","","","","clear_screen","null","null","","","critical","t","c","d","240","164","164","240","240","164","spektor","0","w","240","164","164","240","240","164","39360","39360","39360","tc","null","null","null","null","null","null","[1,2]","","",""
"","canvas-keyboard-response","97","154872","0.0-6.0-0.13","517","","","","","pre trial waiting period","null","null","","","critical","d","t","c","237.1485","162.6685","240","164","164","240","trueblood","0.02","w","240","164","164","240","237.1485","162.6685","39360","39360","38576.5967","dc","null","null","null","null","null","null","[1,3]","511.13216496124124","470.77469149312594","420.3961927678654"
"","canvas-keyboard-response","98","154893","0.0-6.0-1.13","517","","","","","clear_screen","null","null","","","critical","d","t","c","237.1485","162.6685","240","164","164","240","trueblood","0.02","w","240","164","164","240","237.1485","162.6685","39360","39360","38576.5967","dc","null","null","null","null","null","null","[1,3]","511.13216496124124","470.77469149312594","420.3961927678654"
"","canvas-keyboard-response","99","155400","0.0-6.0-2.13","517","","","","","rectangles no change","null","null","","","critical","d","t","c","237.1485","162.6685","240","164","164","240","trueblood","0.02","w","240","164","164","240","237.1485","162.6685","39360","39360","38576.5967","dc","null","null","null","null","null","null","[1,3]","511.13216496124124","470.77469149312594","420.3961927678654"
"","canvas-keyboard-response","100","156736","0.0-6.0-3.13","517","","","","","rectangles with change","null","null","","","critical","d","t","c","237.1485","162.6685","240","164","164","240","trueblood","0.02","w","240","164","164","240","237.1485","162.6685","39360","39360","38576.5967","dc","null","null","null","null","null","null","[1,3]","511.13216496124124","470.77469149312594","420.3961927678654"
"","canvas-keyboard-response","101","156757","0.0-6.0-4.13","517","","","","","clear_screen","null","null","","","critical","d","t","c","237.1485","162.6685","240","164","164","240","trueblood","0.02","w","240","164","164","240","237.1485","162.6685","39360","39360","38576.5967","dc","null","null","null","null","null","null","[1,3]","511.13216496124124","470.77469149312594","420.3961927678654"
"","canvas-keyboard-response","102","157761","0.0-6.0-5.13","517","","","","","make choice","998","1","","","critical","d","t","c","237.1485","162.6685","240","164","164","240","trueblood","0.02","w","240","164","164","240","237.1485","162.6685","39360","39360","38576.5967","dc","null","null","null","null","null","null","[1,3]","","",""
"","canvas-keyboard-response","103","157779","0.0-6.0-6.13","517","","","","","clear_screen","null","null","","","critical","d","t","c","237.1485","162.6685","240","164","164","240","trueblood","0.02","w","240","164","164","240","237.1485","162.6685","39360","39360","38576.5967","dc","null","null","null","null","null","null","[1,3]","","",""
"","canvas-keyboard-response","104","157980","0.0-6.0-0.14","517","","","","","pre trial waiting period","null","null","","","critical","c","d","t","240","164","158.0083","227.1683","164","240","spektor","0.09","h","164","240","240","164","158.0083","227.1683","39360","39360","35894.4834","td","null","null","null","null","null","null","[3,2]","503.4091953813043","117.94326595497094","476.1506711643252"
"","canvas-keyboard-response","105","158002","0.0-6.0-1.14","517","","","","","clear_screen","null","null","","","critical","c","d","t","240","164","158.0083","227.1683","164","240","spektor","0.09","h","164","240","240","164","158.0083","227.1683","39360","39360","35894.4834","td","null","null","null","null","null","null","[3,2]","503.4091953813043","117.94326595497094","476.1506711643252"
"","canvas-keyboard-response","106","158508","0.0-6.0-2.14","517","","","","","rectangles no change","null","null","","","critical","c","d","t","240","164","158.0083","227.1683","164","240","spektor","0.09","h","164","240","240","164","158.0083","227.1683","39360","39360","35894.4834","td","null","null","null","null","null","null","[3,2]","503.4091953813043","117.94326595497094","476.1506711643252"
"","canvas-keyboard-response","107","159845","0.0-6.0-3.14","517","","","","","rectangles with change","null","null","","","critical","c","d","t","240","164","158.0083","227.1683","164","240","spektor","0.09","h","164","240","240","164","158.0083","227.1683","39360","39360","35894.4834","td","null","null","null","null","null","null","[3,2]","503.4091953813043","117.94326595497094","476.1506711643252"
"","canvas-keyboard-response","108","159869","0.0-6.0-4.14","517","","","","","clear_screen","null","null","","","critical","c","d","t","240","164","158.0083","227.1683","164","240","spektor","0.09","h","164","240","240","164","158.0083","227.1683","39360","39360","35894.4834","td","null","null","null","null","null","null","[3,2]","503.4091953813043","117.94326595497094","476.1506711643252"
"","canvas-keyboard-response","109","160489","0.0-6.0-5.14","517","","","","","make choice","615","3","","","critical","c","d","t","240","164","158.0083","227.1683","164","240","spektor","0.09","h","164","240","240","164","158.0083","227.1683","39360","39360","35894.4834","td","null","null","null","null","null","null","[3,2]","","",""
"","canvas-keyboard-response","110","160503","0.0-6.0-6.14","517","","","","","clear_screen","null","null","","","critical","c","d","t","240","164","158.0083","227.1683","164","240","spektor","0.09","h","164","240","240","164","158.0083","227.1683","39360","39360","35894.4834","td","null","null","null","null","null","null","[3,2]","","",""
"","canvas-keyboard-response","111","160704","0.0-6.0-0.15","517","","","","","pre trial waiting period","null","null","","","catch","sw","sh","l","180","200","189","188","276","192","trueblood","null","null","null","null","null","null","null","null","null","null","null","","180","200","260","200","36000","52000","[2,3]","463.1287372758541","475.1775666599845","460.76080999153106"
"","canvas-keyboard-response","112","160726","0.0-6.0-1.15","517","","","","","clear_screen","null","null","","","catch","sw","sh","l","180","200","189","188","276","192","trueblood","null","null","null","null","null","null","null","null","null","null","null","","180","200","260","200","36000","52000","[2,3]","463.1287372758541","475.1775666599845","460.76080999153106"
"","canvas-keyboard-response","113","161233","0.0-6.0-2.15","517","","","","","rectangles no change","null","null","","","catch","sw","sh","l","180","200","189","188","276","192","trueblood","null","null","null","null","null","null","null","null","null","null","null","","180","200","260","200","36000","52000","[2,3]","463.1287372758541","475.1775666599845","460.76080999153106"
"","canvas-keyboard-response","114","162569","0.0-6.0-3.15","517","","","","","rectangles with change","null","null","","","catch","sw","sh","l","180","200","189","188","276","192","trueblood","null","null","null","null","null","null","null","null","null","null","null","","180","200","260","200","36000","52000","[2,3]","463.1287372758541","475.1775666599845","460.76080999153106"
"","canvas-keyboard-response","115","162589","0.0-6.0-4.15","517","","","","","clear_screen","null","null","","","catch","sw","sh","l","180","200","189","188","276","192","trueblood","null","null","null","null","null","null","null","null","null","null","null","","180","200","260","200","36000","52000","[2,3]","463.1287372758541","475.1775666599845","460.76080999153106"
"","canvas-keyboard-response","116","163608","0.0-6.0-5.15","517","","","","","make choice","1009","3","","","catch","sw","sh","l","180","200","189","188","276","192","trueblood","null","null","null","null","null","null","null","null","null","null","null","","180","200","260","200","36000","52000","[2,3]","","",""
"","canvas-keyboard-response","117","163630","0.0-6.0-6.15","517","","","","","clear_screen","null","null","","","catch","sw","sh","l","180","200","189","188","276","192","trueblood","null","null","null","null","null","null","null","null","null","null","null","","180","200","260","200","36000","52000","[2,3]","","",""
"","canvas-keyboard-response","118","163831","0.0-6.0-0.16","517","","","","","pre trial waiting period","null","null","","","critical","c","d","t","164","240","220.0396","154.6796","240","164","trueblood","0.14","w","240","164","164","240","220.0396","154.6796","39360","39360","34035.6388","tc","null","null","null","null","null","null","[3,1]","454.8002150623485","487.59625583534165","510.89313095641177"
"","canvas-keyboard-response","119","163853","0.0-6.0-1.16","517","","","","","clear_screen","null","null","","","critical","c","d","t","164","240","220.0396","154.6796","240","164","trueblood","0.14","w","240","164","164","240","220.0396","154.6796","39360","39360","34035.6388","tc","null","null","null","null","null","null","[3,1]","454.8002150623485","487.59625583534165","510.89313095641177"
"","canvas-keyboard-response","120","164362","0.0-6.0-2.16","517","","","","","rectangles no change","null","null","","","critical","c","d","t","164","240","220.0396","154.6796","240","164","trueblood","0.14","w","240","164","164","240","220.0396","154.6796","39360","39360","34035.6388","tc","null","null","null","null","null","null","[3,1]","454.8002150623485","487.59625583534165","510.89313095641177"
"","canvas-keyboard-response","121","165701","0.0-6.0-3.16","517","","","","","rectangles with change","null","null","","","critical","c","d","t","164","240","220.0396","154.6796","240","164","trueblood","0.14","w","240","164","164","240","220.0396","154.6796","39360","39360","34035.6388","tc","null","null","null","null","null","null","[3,1]","454.8002150623485","487.59625583534165","510.89313095641177"
"","canvas-keyboard-response","122","165720","0.0-6.0-4.16","517","","","","","clear_screen","null","null","","","critical","c","d","t","164","240","220.0396","154.6796","240","164","trueblood","0.14","w","240","164","164","240","220.0396","154.6796","39360","39360","34035.6388","tc","null","null","null","null","null","null","[3,1]","454.8002150623485","487.59625583534165","510.89313095641177"
"","canvas-keyboard-response","123","166393","0.0-6.0-5.16","517","","","","","make choice","664","3","","","critical","c","d","t","164","240","220.0396","154.6796","240","164","trueblood","0.14","w","240","164","164","240","220.0396","154.6796","39360","39360","34035.6388","tc","null","null","null","null","null","null","[3,1]","","",""
"","canvas-keyboard-response","124","166413","0.0-6.0-6.16","517","","","","","clear_screen","null","null","","","critical","c","d","t","164","240","220.0396","154.6796","240","164","trueblood","0.14","w","240","164","164","240","220.0396","154.6796","39360","39360","34035.6388","tc","null","null","null","null","null","null","[3,1]","","",""
"","canvas-keyboard-response","125","166615","0.0-6.0-0.17","517","","","","","pre trial waiting period","null","null","","","catch","sh","sw","l","172","191","193","186","230","191","spektor","null","null","null","null","null","null","null","null","null","null","null","","180","200","260","200","36000","52000","[1,3]","512.4733333308327","154.45435265166205","525.2966290520974"
"","canvas-keyboard-response","126","166634","0.0-6.0-1.17","517","","","","","clear_screen","null","null","","","catch","sh","sw","l","172","191","193","186","230","191","spektor","null","null","null","null","null","null","null","null","null","null","null","","180","200","260","200","36000","52000","[1,3]","512.4733333308327","154.45435265166205","525.2966290520974"
"","canvas-keyboard-response","127","167143","0.0-6.0-2.17","517","","","","","rectangles no change","null","null","","","catch","sh","sw","l","172","191","193","186","230","191","spektor","null","null","null","null","null","null","null","null","null","null","null","","180","200","260","200","36000","52000","[1,3]","512.4733333308327","154.45435265166205","525.2966290520974"
"","canvas-keyboard-response","128","168480","0.0-6.0-3.17","517","","","","","rectangles with change","null","null","","","catch","sh","sw","l","172","191","193","186","230","191","spektor","null","null","null","null","null","null","null","null","null","null","null","","180","200","260","200","36000","52000","[1,3]","512.4733333308327","154.45435265166205","525.2966290520974"
"","canvas-keyboard-response","129","168501","0.0-6.0-4.17","517","","","","","clear_screen","null","null","","","catch","sh","sw","l","172","191","193","186","230","191","spektor","null","null","null","null","null","null","null","null","null","null","null","","180","200","260","200","36000","52000","[1,3]","512.4733333308327","154.45435265166205","525.2966290520974"
"","canvas-keyboard-response","130","169145","0.0-6.0-5.17","517","","","","","make choice","637","3","","","catch","sh","sw","l","172","191","193","186","230","191","spektor","null","null","null","null","null","null","null","null","null","null","null","","180","200","260","200","36000","52000","[1,3]","","",""
"","canvas-keyboard-response","131","169164","0.0-6.0-6.17","517","","","","","clear_screen","null","null","","","catch","sh","sw","l","172","191","193","186","230","191","spektor","null","null","null","null","null","null","null","null","null","null","null","","180","200","260","200","36000","52000","[1,3]","","",""
"","canvas-keyboard-response","132","169365","0.0-6.0-0.18","517","","","","","pre trial waiting period","null","null","","","critical","d","c","t","158.0083","227.1683","240","164","164","240","trueblood","0.09","h","164","240","240","164","158.0083","227.1683","39360","39360","35894.4834","td","null","null","null","null","null","null","[3,1]","466.30590166961883","510.46184073161885","423.0592241851159"
"","canvas-keyboard-response","133","169385","0.0-6.0-1.18","517","","","","","clear_screen","null","null","","","critical","d","c","t","158.0083","227.1683","240","164","164","240","trueblood","0.09","h","164","240","240","164","158.0083","227.1683","39360","39360","35894.4834","td","null","null","null","null","null","null","[3,1]","466.30590166961883","510.46184073161885","423.0592241851159"
"","canvas-keyboard-response","134","169894","0.0-6.0-2.18","517","","","","","rectangles no change","null","null","","","critical","d","c","t","158.0083","227.1683","240","164","164","240","trueblood","0.09","h","164","240","240","164","158.0083","227.1683","39360","39360","35894.4834","td","null","null","null","null","null","null","[3,1]","466.30590166961883","510.46184073161885","423.0592241851159"
"","canvas-keyboard-response","135","171230","0.0-6.0-3.18","517","","","","","rectangles with change","null","null","","","critical","d","c","t","158.0083","227.1683","240","164","164","240","trueblood","0.09","h","164","240","240","164","158.0083","227.1683","39360","39360","35894.4834","td","null","null","null","null","null","null","[3,1]","466.30590166961883","510.46184073161885","423.0592241851159"
"","canvas-keyboard-response","136","171253","0.0-6.0-4.18","517","","","","","clear_screen","null","null","","","critical","d","c","t","158.0083","227.1683","240","164","164","240","trueblood","0.09","h","164","240","240","164","158.0083","227.1683","39360","39360","35894.4834","td","null","null","null","null","null","null","[3,1]","466.30590166961883","510.46184073161885","423.0592241851159"
"","canvas-keyboard-response","137","172161","0.0-6.0-5.18","517","","","","","make choice","902","3","","","critical","d","c","t","158.0083","227.1683","240","164","164","240","trueblood","0.09","h","164","240","240","164","158.0083","227.1683","39360","39360","35894.4834","td","null","null","null","null","null","null","[3,1]","","",""
"","canvas-keyboard-response","138","172181","0.0-6.0-6.18","517","","","","","clear_screen","null","null","","","critical","d","c","t","158.0083","227.1683","240","164","164","240","trueblood","0.09","h","164","240","240","164","158.0083","227.1683","39360","39360","35894.4834","td","null","null","null","null","null","null","[3,1]","","",""
"","canvas-keyboard-response","139","172382","0.0-6.0-0.19","517","","","","","pre trial waiting period","null","null","","","catch","sw","l","sh","180","200","233","224","187","146","trueblood","null","null","null","null","null","null","null","null","null","null","null","","180","200","260","200","36000","52000","[1,2]","475.3474616959567","432.4386445704287","485.0034022960247"
"","canvas-keyboard-response","140","172402","0.0-6.0-1.19","517","","","","","clear_screen","null","null","","","catch","sw","l","sh","180","200","233","224","187","146","trueblood","null","null","null","null","null","null","null","null","null","null","null","","180","200","260","200","36000","52000","[1,2]","475.3474616959567","432.4386445704287","485.0034022960247"
"","canvas-keyboard-response","141","172909","0.0-6.0-2.19","517","","","","","rectangles no change","null","null","","","catch","sw","l","sh","180","200","233","224","187","146","trueblood","null","null","null","null","null","null","null","null","null","null","null","","180","200","260","200","36000","52000","[1,2]","475.3474616959567","432.4386445704287","485.0034022960247"
"","canvas-keyboard-response","142","174249","0.0-6.0-3.19","517","","","","","rectangles with change","null","null","","","catch","sw","l","sh","180","200","233","224","187","146","trueblood","null","null","null","null","null","null","null","null","null","null","null","","180","200","260","200","36000","52000","[1,2]","475.3474616959567","432.4386445704287","485.0034022960247"
"","canvas-keyboard-response","143","174273","0.0-6.0-4.19","517","","","","","clear_screen","null","null","","","catch","sw","l","sh","180","200","233","224","187","146","trueblood","null","null","null","null","null","null","null","null","null","null","null","","180","200","260","200","36000","52000","[1,2]","475.3474616959567","432.4386445704287","485.0034022960247"
"","canvas-keyboard-response","144","175201","0.0-6.0-5.19","517","","","","","make choice","923","2","","","catch","sw","l","sh","180","200","233","224","187","146","trueblood","null","null","null","null","null","null","null","null","null","null","null","","180","200","260","200","36000","52000","[1,2]","","",""
"","canvas-keyboard-response","145","175220","0.0-6.0-6.19","517","","","","","clear_screen","null","null","","","catch","sw","l","sh","180","200","233","224","187","146","trueblood","null","null","null","null","null","null","null","null","null","null","null","","180","200","260","200","36000","52000","[1,2]","","",""
"","canvas-keyboard-response","146","175421","0.0-6.0-0.20","517","","","","","pre trial waiting period","null","null","","","critical","d","c","t","220.0396","154.6796","164","240","240","164","trueblood","0.14","w","240","164","164","240","220.0396","154.6796","39360","39360","34035.6388","dc","null","null","null","null","null","null","[1,2]","523.9756498243547","442.22617359934435","505.2733079925564"
"","canvas-keyboard-response","147","175445","0.0-6.0-1.20","517","","","","","clear_screen","null","null","","","critical","d","c","t","220.0396","154.6796","164","240","240","164","trueblood","0.14","w","240","164","164","240","220.0396","154.6796","39360","39360","34035.6388","dc","null","null","null","null","null","null","[1,2]","523.9756498243547","442.22617359934435","505.2733079925564"
"","canvas-keyboard-response","148","175953","0.0-6.0-2.20","517","","","","","rectangles no change","null","null","","","critical","d","c","t","220.0396","154.6796","164","240","240","164","trueblood","0.14","w","240","164","164","240","220.0396","154.6796","39360","39360","34035.6388","dc","null","null","null","null","null","null","[1,2]","523.9756498243547","442.22617359934435","505.2733079925564"
"","canvas-keyboard-response","149","177292","0.0-6.0-3.20","517","","","","","rectangles with change","null","null","","","critical","d","c","t","220.0396","154.6796","164","240","240","164","trueblood","0.14","w","240","164","164","240","220.0396","154.6796","39360","39360","34035.6388","dc","null","null","null","null","null","null","[1,2]","523.9756498243547","442.22617359934435","505.2733079925564"
"","canvas-keyboard-response","150","177313","0.0-6.0-4.20","517","","","","","clear_screen","null","null","","","critical","d","c","t","220.0396","154.6796","164","240","240","164","trueblood","0.14","w","240","164","164","240","220.0396","154.6796","39360","39360","34035.6388","dc","null","null","null","null","null","null","[1,2]","523.9756498243547","442.22617359934435","505.2733079925564"
"","canvas-keyboard-response","151","177992","0.0-6.0-5.20","517","","","","","make choice","673","1","","","critical","d","c","t","220.0396","154.6796","164","240","240","164","trueblood","0.14","w","240","164","164","240","220.0396","154.6796","39360","39360","34035.6388","dc","null","null","null","null","null","null","[1,2]","","",""
"","canvas-keyboard-response","152","178011","0.0-6.0-6.20","517","","","","","clear_screen","null","null","","","critical","d","c","t","220.0396","154.6796","164","240","240","164","trueblood","0.14","w","240","164","164","240","220.0396","154.6796","39360","39360","34035.6388","dc","null","null","null","null","null","null","[1,2]","","",""
"","canvas-keyboard-response","153","178212","0.0-6.0-0.21","517","","","","","pre trial waiting period","null","null","","","critical","d","t","c","154.6796","220.0396","164","240","240","164","spektor","0.14","h","164","240","240","164","154.6796","220.0396","39360","39360","34035.6388","td","null","null","null","null","null","null","[2,1]","480.7211463085722","135.35675362423788","493.45578628980695"
"","canvas-keyboard-response","154","178237","0.0-6.0-1.21","517","","","","","clear_screen","null","null","","","critical","d","t","c","154.6796","220.0396","164","240","240","164","spektor","0.14","h","164","240","240","164","154.6796","220.0396","39360","39360","34035.6388","td","null","null","null","null","null","null","[2,1]","480.7211463085722","135.35675362423788","493.45578628980695"
"","canvas-keyboard-response","155","178744","0.0-6.0-2.21","517","","","","","rectangles no change","null","null","","","critical","d","t","c","154.6796","220.0396","164","240","240","164","spektor","0.14","h","164","240","240","164","154.6796","220.0396","39360","39360","34035.6388","td","null","null","null","null","null","null","[2,1]","480.7211463085722","135.35675362423788","493.45578628980695"
"","canvas-keyboard-response","156","180081","0.0-6.0-3.21","517","","","","","rectangles with change","null","null","","","critical","d","t","c","154.6796","220.0396","164","240","240","164","spektor","0.14","h","164","240","240","164","154.6796","220.0396","39360","39360","34035.6388","td","null","null","null","null","null","null","[2,1]","480.7211463085722","135.35675362423788","493.45578628980695"
"","canvas-keyboard-response","157","180102","0.0-6.0-4.21","517","","","","","clear_screen","null","null","","","critical","d","t","c","154.6796","220.0396","164","240","240","164","spektor","0.14","h","164","240","240","164","154.6796","220.0396","39360","39360","34035.6388","td","null","null","null","null","null","null","[2,1]","480.7211463085722","135.35675362423788","493.45578628980695"
"","canvas-keyboard-response","158","180792","0.0-6.0-5.21","517","","","","","make choice","680","2","","","critical","d","t","c","154.6796","220.0396","164","240","240","164","spektor","0.14","h","164","240","240","164","154.6796","220.0396","39360","39360","34035.6388","td","null","null","null","null","null","null","[2,1]","","",""
"","canvas-keyboard-response","159","180809","0.0-6.0-6.21","517","","","","","clear_screen","null","null","","","critical","d","t","c","154.6796","220.0396","164","240","240","164","spektor","0.14","h","164","240","240","164","154.6796","220.0396","39360","39360","34035.6388","td","null","null","null","null","null","null","[2,1]","","",""
"","canvas-keyboard-response","160","181011","0.0-6.0-0.22","517","","","","","pre trial waiting period","null","null","","","critical","t","d","c","164","240","154.6796","220.0396","240","164","spektor","0.14","h","164","240","240","164","154.6796","220.0396","39360","39360","34035.6388","tc","null","null","null","null","null","null","[1,3]","470.2572551436708","112.7031617547386","504.80028266403224"
"","canvas-keyboard-response","161","181034","0.0-6.0-1.22","517","","","","","clear_screen","null","null","","","critical","t","d","c","164","240","154.6796","220.0396","240","164","spektor","0.14","h","164","240","240","164","154.6796","220.0396","39360","39360","34035.6388","tc","null","null","null","null","null","null","[1,3]","470.2572551436708","112.7031617547386","504.80028266403224"
"","canvas-keyboard-response","162","181542","0.0-6.0-2.22","517","","","","","rectangles no change","null","null","","","critical","t","d","c","164","240","154.6796","220.0396","240","164","spektor","0.14","h","164","240","240","164","154.6796","220.0396","39360","39360","34035.6388","tc","null","null","null","null","null","null","[1,3]","470.2572551436708","112.7031617547386","504.80028266403224"
"","canvas-keyboard-response","163","182879","0.0-6.0-3.22","517","","","","","rectangles with change","null","null","","","critical","t","d","c","164","240","154.6796","220.0396","240","164","spektor","0.14","h","164","240","240","164","154.6796","220.0396","39360","39360","34035.6388","tc","null","null","null","null","null","null","[1,3]","470.2572551436708","112.7031617547386","504.80028266403224"
"","canvas-keyboard-response","164","182898","0.0-6.0-4.22","517","","","","","clear_screen","null","null","","","critical","t","d","c","164","240","154.6796","220.0396","240","164","spektor","0.14","h","164","240","240","164","154.6796","220.0396","39360","39360","34035.6388","tc","null","null","null","null","null","null","[1,3]","470.2572551436708","112.7031617547386","504.80028266403224"
"","canvas-keyboard-response","165","183616","0.0-6.0-5.22","517","","","","","make choice","711","3","","","critical","t","d","c","164","240","154.6796","220.0396","240","164","spektor","0.14","h","164","240","240","164","154.6796","220.0396","39360","39360","34035.6388","tc","null","null","null","null","null","null","[1,3]","","",""
"","canvas-keyboard-response","166","183637","0.0-6.0-6.22","517","","","","","clear_screen","null","null","","","critical","t","d","c","164","240","154.6796","220.0396","240","164","spektor","0.14","h","164","240","240","164","154.6796","220.0396","39360","39360","34035.6388","tc","null","null","null","null","null","null","[1,3]","","",""
"","canvas-keyboard-response","167","183838","0.0-6.0-0.23","517","","","","","pre trial waiting period","null","null","","","catch","l","sh","sw","247","183","173","155","216","192","spektor","null","null","null","null","null","null","null","null","null","null","null","","180","200","260","200","36000","52000","[1,3]","501.75982137347376","213.0472546275482","500.7413159401167"
"","canvas-keyboard-response","168","183860","0.0-6.0-1.23","517","","","","","clear_screen","null","null","","","catch","l","sh","sw","247","183","173","155","216","192","spektor","null","null","null","null","null","null","null","null","null","null","null","","180","200","260","200","36000","52000","[1,3]","501.75982137347376","213.0472546275482","500.7413159401167"
"","canvas-keyboard-response","169","184366","0.0-6.0-2.23","517","","","","","rectangles no change","null","null","","","catch","l","sh","sw","247","183","173","155","216","192","spektor","null","null","null","null","null","null","null","null","null","null","null","","180","200","260","200","36000","52000","[1,3]","501.75982137347376","213.0472546275482","500.7413159401167"
"","canvas-keyboard-response","170","185702","0.0-6.0-3.23","517","","","","","rectangles with change","null","null","","","catch","l","sh","sw","247","183","173","155","216","192","spektor","null","null","null","null","null","null","null","null","null","null","null","","180","200","260","200","36000","52000","[1,3]","501.75982137347376","213.0472546275482","500.7413159401167"
"","canvas-keyboard-response","171","185721","0.0-6.0-4.23","517","","","","","clear_screen","null","null","","","catch","l","sh","sw","247","183","173","155","216","192","spektor","null","null","null","null","null","null","null","null","null","null","null","","180","200","260","200","36000","52000","[1,3]","501.75982137347376","213.0472546275482","500.7413159401167"
"","canvas-keyboard-response","172","186520","0.0-6.0-5.23","517","","","","","make choice","795","1","","","catch","l","sh","sw","247","183","173","155","216","192","spektor","null","null","null","null","null","null","null","null","null","null","null","","180","200","260","200","36000","52000","[1,3]","","",""
"","canvas-keyboard-response","173","186542","0.0-6.0-6.23","517","","","","","clear_screen","null","null","","","catch","l","sh","sw","247","183","173","155","216","192","spektor","null","null","null","null","null","null","null","null","null","null","null","","180","200","260","200","36000","52000","[1,3]","","",""
"","canvas-keyboard-response","174","186743","0.0-6.0-0.24","517","","","","","pre trial waiting period","null","null","","","catch","l","sh","sw","160","243","214","150","167","213","spektor","null","null","null","null","null","null","null","null","null","null","null","","180","200","260","200","36000","52000","[1,3]","456.4801079849995","172.28985537332505","480.13898609270444"
"","canvas-keyboard-response","175","186763","0.0-6.0-1.24","517","","","","","clear_screen","null","null","","","catch","l","sh","sw","160","243","214","150","167","213","spektor","null","null","null","null","null","null","null","null","null","null","null","","180","200","260","200","36000","52000","[1,3]","456.4801079849995","172.28985537332505","480.13898609270444"
"","canvas-keyboard-response","176","187272","0.0-6.0-2.24","517","","","","","rectangles no change","null","null","","","catch","l","sh","sw","160","243","214","150","167","213","spektor","null","null","null","null","null","null","null","null","null","null","null","","180","200","260","200","36000","52000","[1,3]","456.4801079849995","172.28985537332505","480.13898609270444"
"","canvas-keyboard-response","177","188613","0.0-6.0-3.24","517","","","","","rectangles with change","null","null","","","catch","l","sh","sw","160","243","214","150","167","213","spektor","null","null","null","null","null","null","null","null","null","null","null","","180","200","260","200","36000","52000","[1,3]","456.4801079849995","172.28985537332505","480.13898609270444"
"","canvas-keyboard-response","178","188633","0.0-6.0-4.24","517","","","","","clear_screen","null","null","","","catch","l","sh","sw","160","243","214","150","167","213","spektor","null","null","null","null","null","null","null","null","null","null","null","","180","200","260","200","36000","52000","[1,3]","456.4801079849995","172.28985537332505","480.13898609270444"
"","canvas-keyboard-response","179","189761","0.0-6.0-5.24","517","","","","","make choice","1120","1","","","catch","l","sh","sw","160","243","214","150","167","213","spektor","null","null","null","null","null","null","null","null","null","null","null","","180","200","260","200","36000","52000","[1,3]","","",""
"","canvas-keyboard-response","180","189781","0.0-6.0-6.24","517","","","","","clear_screen","null","null","","","catch","l","sh","sw","160","243","214","150","167","213","spektor","null","null","null","null","null","null","null","null","null","null","null","","180","200","260","200","36000","52000","[1,3]","","",""
"","canvas-keyboard-response","181","189982","0.0-6.0-0.25","517","","","","","pre trial waiting period","null","null","","","critical","d","t","c","154.6796","220.0396","164","240","240","164","trueblood","0.14","h","164","240","240","164","154.6796","220.0396","39360","39360","34035.6388","dc","null","null","null","null","null","null","[1,3]","442.6572686762433","455.2393241088896","517.8995387215657"
"","canvas-keyboard-response","182","190003","0.0-6.0-1.25","517","","","","","clear_screen","null","null","","","critical","d","t","c","154.6796","220.0396","164","240","240","164","trueblood","0.14","h","164","240","240","164","154.6796","220.0396","39360","39360","34035.6388","dc","null","null","null","null","null","null","[1,3]","442.6572686762433","455.2393241088896","517.8995387215657"
"","canvas-keyboard-response","183","190511","0.0-6.0-2.25","517","","","","","rectangles no change","null","null","","","critical","d","t","c","154.6796","220.0396","164","240","240","164","trueblood","0.14","h","164","240","240","164","154.6796","220.0396","39360","39360","34035.6388","dc","null","null","null","null","null","null","[1,3]","442.6572686762433","455.2393241088896","517.8995387215657"
"","canvas-keyboard-response","184","191847","0.0-6.0-3.25","517","","","","","rectangles with change","null","null","","","critical","d","t","c","154.6796","220.0396","164","240","240","164","trueblood","0.14","h","164","240","240","164","154.6796","220.0396","39360","39360","34035.6388","dc","null","null","null","null","null","null","[1,3]","442.6572686762433","455.2393241088896","517.8995387215657"
"","canvas-keyboard-response","185","191867","0.0-6.0-4.25","517","","","","","clear_screen","null","null","","","critical","d","t","c","154.6796","220.0396","164","240","240","164","trueblood","0.14","h","164","240","240","164","154.6796","220.0396","39360","39360","34035.6388","dc","null","null","null","null","null","null","[1,3]","442.6572686762433","455.2393241088896","517.8995387215657"
"","canvas-keyboard-response","186","192992","0.0-6.0-5.25","517","","","","","make choice","1120","3","","","critical","d","t","c","154.6796","220.0396","164","240","240","164","trueblood","0.14","h","164","240","240","164","154.6796","220.0396","39360","39360","34035.6388","dc","null","null","null","null","null","null","[1,3]","","",""
"","canvas-keyboard-response","187","193012","0.0-6.0-6.25","517","","","","","clear_screen","null","null","","","critical","d","t","c","154.6796","220.0396","164","240","240","164","trueblood","0.14","h","164","240","240","164","154.6796","220.0396","39360","39360","34035.6388","dc","null","null","null","null","null","null","[1,3]","","",""
"","canvas-keyboard-response","188","193213","0.0-6.0-0.26","517","","","","","pre trial waiting period","null","null","","","catch","sw","l","sh","180","200","197","290","222","141","trueblood","null","null","null","null","null","null","null","null","null","null","null","","180","200","260","200","36000","52000","[2,3]","479.4282189362733","435.68044108807965","497.8947987923814"
"","canvas-keyboard-response","189","193232","0.0-6.0-1.26","517","","","","","clear_screen","null","null","","","catch","sw","l","sh","180","200","197","290","222","141","trueblood","null","null","null","null","null","null","null","null","null","null","null","","180","200","260","200","36000","52000","[2,3]","479.4282189362733","435.68044108807965","497.8947987923814"
"","canvas-keyboard-response","190","193741","0.0-6.0-2.26","517","","","","","rectangles no change","null","null","","","catch","sw","l","sh","180","200","197","290","222","141","trueblood","null","null","null","null","null","null","null","null","null","null","null","","180","200","260","200","36000","52000","[2,3]","479.4282189362733","435.68044108807965","497.8947987923814"
"","canvas-keyboard-response","191","195079","0.0-6.0-3.26","517","","","","","rectangles with change","null","null","","","catch","sw","l","sh","180","200","197","290","222","141","trueblood","null","null","null","null","null","null","null","null","null","null","null","","180","200","260","200","36000","52000","[2,3]","479.4282189362733","435.68044108807965","497.8947987923814"
"","canvas-keyboard-response","192","195101","0.0-6.0-4.26","517","","","","","clear_screen","null","null","","","catch","sw","l","sh","180","200","197","290","222","141","trueblood","null","null","null","null","null","null","null","null","null","null","null","","180","200","260","200","36000","52000","[2,3]","479.4282189362733","435.68044108807965","497.8947987923814"
"","canvas-keyboard-response","193","195560","0.0-6.0-5.26","517","","","","","make choice","454","2","","","catch","sw","l","sh","180","200","197","290","222","141","trueblood","null","null","null","null","null","null","null","null","null","null","null","","180","200","260","200","36000","52000","[2,3]","","",""
"","canvas-keyboard-response","194","195580","0.0-6.0-6.26","517","","","","","clear_screen","null","null","","","catch","sw","l","sh","180","200","197","290","222","141","trueblood","null","null","null","null","null","null","null","null","null","null","null","","180","200","260","200","36000","52000","[2,3]","","",""
"","canvas-keyboard-response","195","195781","0.0-6.0-0.27","517","","","","","pre trial waiting period","null","null","","","critical","d","t","c","240","164","240","164","164","240","spektor","0","w","240","164","164","240","240","164","39360","39360","39360","td","null","null","null","null","null","null","[2,1]","519.9298200618924","184.71080351165594","489.65711932007747"
"","canvas-keyboard-response","196","195801","0.0-6.0-1.27","517","","","","","clear_screen","null","null","","","critical","d","t","c","240","164","240","164","164","240","spektor","0","w","240","164","164","240","240","164","39360","39360","39360","td","null","null","null","null","null","null","[2,1]","519.9298200618924","184.71080351165594","489.65711932007747"
"","canvas-keyboard-response","197","196314","0.0-6.0-2.27","517","","","","","rectangles no change","null","null","","","critical","d","t","c","240","164","240","164","164","240","spektor","0","w","240","164","164","240","240","164","39360","39360","39360","td","null","null","null","null","null","null","[2,1]","519.9298200618924","184.71080351165594","489.65711932007747"
"","canvas-keyboard-response","198","197651","0.0-6.0-3.27","517","","","","","rectangles with change","null","null","","","critical","d","t","c","240","164","240","164","164","240","spektor","0","w","240","164","164","240","240","164","39360","39360","39360","td","null","null","null","null","null","null","[2,1]","519.9298200618924","184.71080351165594","489.65711932007747"
"","canvas-keyboard-response","199","197671","0.0-6.0-4.27","517","","","","","clear_screen","null","null","","","critical","d","t","c","240","164","240","164","164","240","spektor","0","w","240","164","164","240","240","164","39360","39360","39360","td","null","null","null","null","null","null","[2,1]","519.9298200618924","184.71080351165594","489.65711932007747"
"","canvas-keyboard-response","200","198409","0.0-6.0-5.27","517","","","","","make choice","731","2","","","critical","d","t","c","240","164","240","164","164","240","spektor","0","w","240","164","164","240","240","164","39360","39360","39360","td","null","null","null","null","null","null","[2,1]","","",""
"","canvas-keyboard-response","201","198427","0.0-6.0-6.27","517","","","","","clear_screen","null","null","","","critical","d","t","c","240","164","240","164","164","240","spektor","0","w","240","164","164","240","240","164","39360","39360","39360","td","null","null","null","null","null","null","[2,1]","","",""
"","canvas-keyboard-response","202","198628","0.0-6.0-0.28","517","","","","","pre trial waiting period","null","null","","","critical","t","d","c","240","164","227.1683","158.0083","164","240","trueblood","0.09","w","240","164","164","240","227.1683","158.0083","39360","39360","35894.4834","tc","null","null","null","null","null","null","[1,3]","487.2702112359982","504.7423136843176","450.4957610822476"
"","canvas-keyboard-response","203","198649","0.0-6.0-1.28","517","","","","","clear_screen","null","null","","","critical","t","d","c","240","164","227.1683","158.0083","164","240","trueblood","0.09","w","240","164","164","240","227.1683","158.0083","39360","39360","35894.4834","tc","null","null","null","null","null","null","[1,3]","487.2702112359982","504.7423136843176","450.4957610822476"
"","canvas-keyboard-response","204","199156","0.0-6.0-2.28","517","","","","","rectangles no change","null","null","","","critical","t","d","c","240","164","227.1683","158.0083","164","240","trueblood","0.09","w","240","164","164","240","227.1683","158.0083","39360","39360","35894.4834","tc","null","null","null","null","null","null","[1,3]","487.2702112359982","504.7423136843176","450.4957610822476"
"","canvas-keyboard-response","205","200493","0.0-6.0-3.28","517","","","","","rectangles with change","null","null","","","critical","t","d","c","240","164","227.1683","158.0083","164","240","trueblood","0.09","w","240","164","164","240","227.1683","158.0083","39360","39360","35894.4834","tc","null","null","null","null","null","null","[1,3]","487.2702112359982","504.7423136843176","450.4957610822476"
"","canvas-keyboard-response","206","200511","0.0-6.0-4.28","517","","","","","clear_screen","null","null","","","critical","t","d","c","240","164","227.1683","158.0083","164","240","trueblood","0.09","w","240","164","164","240","227.1683","158.0083","39360","39360","35894.4834","tc","null","null","null","null","null","null","[1,3]","487.2702112359982","504.7423136843176","450.4957610822476"
"","canvas-keyboard-response","207","201097","0.0-6.0-5.28","517","","","","","make choice","579","3","","","critical","t","d","c","240","164","227.1683","158.0083","164","240","trueblood","0.09","w","240","164","164","240","227.1683","158.0083","39360","39360","35894.4834","tc","null","null","null","null","null","null","[1,3]","","",""
"","canvas-keyboard-response","208","201117","0.0-6.0-6.28","517","","","","","clear_screen","null","null","","","critical","t","d","c","240","164","227.1683","158.0083","164","240","trueblood","0.09","w","240","164","164","240","227.1683","158.0083","39360","39360","35894.4834","tc","null","null","null","null","null","null","[1,3]","","",""
"","canvas-keyboard-response","209","201318","0.0-6.0-0.29","517","","","","","pre trial waiting period","null","null","","","critical","t","d","c","240","164","240","164","164","240","trueblood","0","w","240","164","164","240","240","164","39360","39360","39360","td","null","null","null","null","null","null","[1,2]","515.0677834564453","490.95807464169127","465.99379499200165"
"","canvas-keyboard-response","210","201340","0.0-6.0-1.29","517","","","","","clear_screen","null","null","","","critical","t","d","c","240","164","240","164","164","240","trueblood","0","w","240","164","164","240","240","164","39360","39360","39360","td","null","null","null","null","null","null","[1,2]","515.0677834564453","490.95807464169127","465.99379499200165"
"","canvas-keyboard-response","211","201847","0.0-6.0-2.29","517","","","","","rectangles no change","null","null","","","critical","t","d","c","240","164","240","164","164","240","trueblood","0","w","240","164","164","240","240","164","39360","39360","39360","td","null","null","null","null","null","null","[1,2]","515.0677834564453","490.95807464169127","465.99379499200165"
"","canvas-keyboard-response","212","203186","0.0-6.0-3.29","517","","","","","rectangles with change","null","null","","","critical","t","d","c","240","164","240","164","164","240","trueblood","0","w","240","164","164","240","240","164","39360","39360","39360","td","null","null","null","null","null","null","[1,2]","515.0677834564453","490.95807464169127","465.99379499200165"
"","canvas-keyboard-response","213","203204","0.0-6.0-4.29","517","","","","","clear_screen","null","null","","","critical","t","d","c","240","164","240","164","164","240","trueblood","0","w","240","164","164","240","240","164","39360","39360","39360","td","null","null","null","null","null","null","[1,2]","515.0677834564453","490.95807464169127","465.99379499200165"
"","canvas-keyboard-response","214","203937","0.0-6.0-5.29","517","","","","","make choice","727","2","","","critical","t","d","c","240","164","240","164","164","240","trueblood","0","w","240","164","164","240","240","164","39360","39360","39360","td","null","null","null","null","null","null","[1,2]","","",""
"","canvas-keyboard-response","215","203955","0.0-6.0-6.29","517","","","","","clear_screen","null","null","","","critical","t","d","c","240","164","240","164","164","240","trueblood","0","w","240","164","164","240","240","164","39360","39360","39360","td","null","null","null","null","null","null","[1,2]","","",""
"","canvas-keyboard-response","216","204156","0.0-6.0-0.30","517","","","","","pre trial waiting period","null","null","","","critical","d","t","c","232.8713","160.6713","240","164","164","240","trueblood","0.05","w","240","164","164","240","232.8713","160.6713","39360","39360","37415.7294","tc","null","null","null","null","null","null","[2,3]","513.2497934998502","508.5405919491472","433.5501128799185"
"","canvas-keyboard-response","217","204177","0.0-6.0-1.30","517","","","","","clear_screen","null","null","","","critical","d","t","c","232.8713","160.6713","240","164","164","240","trueblood","0.05","w","240","164","164","240","232.8713","160.6713","39360","39360","37415.7294","tc","null","null","null","null","null","null","[2,3]","513.2497934998502","508.5405919491472","433.5501128799185"
"","canvas-keyboard-response","218","204685","0.0-6.0-2.30","517","","","","","rectangles no change","null","null","","","critical","d","t","c","232.8713","160.6713","240","164","164","240","trueblood","0.05","w","240","164","164","240","232.8713","160.6713","39360","39360","37415.7294","tc","null","null","null","null","null","null","[2,3]","513.2497934998502","508.5405919491472","433.5501128799185"
"","canvas-keyboard-response","219","206020","0.0-6.0-3.30","517","","","","","rectangles with change","null","null","","","critical","d","t","c","232.8713","160.6713","240","164","164","240","trueblood","0.05","w","240","164","164","240","232.8713","160.6713","39360","39360","37415.7294","tc","null","null","null","null","null","null","[2,3]","513.2497934998502","508.5405919491472","433.5501128799185"
"","canvas-keyboard-response","220","206039","0.0-6.0-4.30","517","","","","","clear_screen","null","null","","","critical","d","t","c","232.8713","160.6713","240","164","164","240","trueblood","0.05","w","240","164","164","240","232.8713","160.6713","39360","39360","37415.7294","tc","null","null","null","null","null","null","[2,3]","513.2497934998502","508.5405919491472","433.5501128799185"
"","canvas-keyboard-response","221","207001","0.0-6.0-5.30","517","","","","","make choice","956","3","","","critical","d","t","c","232.8713","160.6713","240","164","164","240","trueblood","0.05","w","240","164","164","240","232.8713","160.6713","39360","39360","37415.7294","tc","null","null","null","null","null","null","[2,3]","","",""
"","canvas-keyboard-response","222","207024","0.0-6.0-6.30","517","","","","","clear_screen","null","null","","","critical","d","t","c","232.8713","160.6713","240","164","164","240","trueblood","0.05","w","240","164","164","240","232.8713","160.6713","39360","39360","37415.7294","tc","null","null","null","null","null","null","[2,3]","","",""
"","canvas-keyboard-response","223","207224","0.0-6.0-0.31","517","","","","","pre trial waiting period","null","null","","","critical","d","c","t","227.1683","158.0083","164","240","240","164","trueblood","0.09","w","240","164","164","240","227.1683","158.0083","39360","39360","35894.4834","dc","null","null","null","null","null","null","[1,2]","497.624957191886","464.9955699446569","482.7503659050618"
"","canvas-keyboard-response","224","207246","0.0-6.0-1.31","517","","","","","clear_screen","null","null","","","critical","d","c","t","227.1683","158.0083","164","240","240","164","trueblood","0.09","w","240","164","164","240","227.1683","158.0083","39360","39360","35894.4834","dc","null","null","null","null","null","null","[1,2]","497.624957191886","464.9955699446569","482.7503659050618"
"","canvas-keyboard-response","225","207752","0.0-6.0-2.31","517","","","","","rectangles no change","null","null","","","critical","d","c","t","227.1683","158.0083","164","240","240","164","trueblood","0.09","w","240","164","164","240","227.1683","158.0083","39360","39360","35894.4834","dc","null","null","null","null","null","null","[1,2]","497.624957191886","464.9955699446569","482.7503659050618"
"","canvas-keyboard-response","226","209093","0.0-6.0-3.31","517","","","","","rectangles with change","null","null","","","critical","d","c","t","227.1683","158.0083","164","240","240","164","trueblood","0.09","w","240","164","164","240","227.1683","158.0083","39360","39360","35894.4834","dc","null","null","null","null","null","null","[1,2]","497.624957191886","464.9955699446569","482.7503659050618"
"","canvas-keyboard-response","227","209114","0.0-6.0-4.31","517","","","","","clear_screen","null","null","","","critical","d","c","t","227.1683","158.0083","164","240","240","164","trueblood","0.09","w","240","164","164","240","227.1683","158.0083","39360","39360","35894.4834","dc","null","null","null","null","null","null","[1,2]","497.624957191886","464.9955699446569","482.7503659050618"
"","canvas-keyboard-response","228","209945","0.0-6.0-5.31","517","","","","","make choice","825","2","","","critical","d","c","t","227.1683","158.0083","164","240","240","164","trueblood","0.09","w","240","164","164","240","227.1683","158.0083","39360","39360","35894.4834","dc","null","null","null","null","null","null","[1,2]","","",""
"","canvas-keyboard-response","229","209962","0.0-6.0-6.31","517","","","","","clear_screen","null","null","","","critical","d","c","t","227.1683","158.0083","164","240","240","164","trueblood","0.09","w","240","164","164","240","227.1683","158.0083","39360","39360","35894.4834","dc","null","null","null","null","null","null","[1,2]","","",""
"","canvas-keyboard-response","230","210163","0.0-6.0-0.32","517","","","","","pre trial waiting period","null","null","","","catch","sh","sw","l","200","213","148","194","282","206","trueblood","null","null","null","null","null","null","null","null","null","null","null","","180","200","260","200","36000","52000","[2,3]","453.99801111866367","480.91735262165537","465.261863525977"
"","canvas-keyboard-response","231","210183","0.0-6.0-1.32","517","","","","","clear_screen","null","null","","","catch","sh","sw","l","200","213","148","194","282","206","trueblood","null","null","null","null","null","null","null","null","null","null","null","","180","200","260","200","36000","52000","[2,3]","453.99801111866367","480.91735262165537","465.261863525977"
"","canvas-keyboard-response","232","210689","0.0-6.0-2.32","517","","","","","rectangles no change","null","null","","","catch","sh","sw","l","200","213","148","194","282","206","trueblood","null","null","null","null","null","null","null","null","null","null","null","","180","200","260","200","36000","52000","[2,3]","453.99801111866367","480.91735262165537","465.261863525977"
"","canvas-keyboard-response","233","212021","0.0-6.0-3.32","517","","","","","rectangles with change","null","null","","","catch","sh","sw","l","200","213","148","194","282","206","trueblood","null","null","null","null","null","null","null","null","null","null","null","","180","200","260","200","36000","52000","[2,3]","453.99801111866367","480.91735262165537","465.261863525977"
"","canvas-keyboard-response","234","212044","0.0-6.0-4.32","517","","","","","clear_screen","null","null","","","catch","sh","sw","l","200","213","148","194","282","206","trueblood","null","null","null","null","null","null","null","null","null","null","null","","180","200","260","200","36000","52000","[2,3]","453.99801111866367","480.91735262165537","465.261863525977"
"","canvas-keyboard-response","235","212840","0.0-6.0-5.32","517","","","","","make choice","791","3","","","catch","sh","sw","l","200","213","148","194","282","206","trueblood","null","null","null","null","null","null","null","null","null","null","null","","180","200","260","200","36000","52000","[2,3]","","",""
"","canvas-keyboard-response","236","212860","0.0-6.0-6.32","517","","","","","clear_screen","null","null","","","catch","sh","sw","l","200","213","148","194","282","206","trueblood","null","null","null","null","null","null","null","null","null","null","null","","180","200","260","200","36000","52000","[2,3]","","",""
"","canvas-keyboard-response","237","213061","0.0-6.0-0.33","517","","","","","pre trial waiting period","null","null","","","critical","c","d","t","240","164","164","240","164","240","spektor","0","h","164","240","240","164","164","240","39360","39360","39360","dc","null","null","null","null","null","null","[2,1]","493.7481064082412","135.08536098435584","455.20715230171356"
"","canvas-keyboard-response","238","213082","0.0-6.0-1.33","517","","","","","clear_screen","null","null","","","critical","c","d","t","240","164","164","240","164","240","spektor","0","h","164","240","240","164","164","240","39360","39360","39360","dc","null","null","null","null","null","null","[2,1]","493.7481064082412","135.08536098435584","455.20715230171356"
"","canvas-keyboard-response","239","213590","0.0-6.0-2.33","517","","","","","rectangles no change","null","null","","","critical","c","d","t","240","164","164","240","164","240","spektor","0","h","164","240","240","164","164","240","39360","39360","39360","dc","null","null","null","null","null","null","[2,1]","493.7481064082412","135.08536098435584","455.20715230171356"
"","canvas-keyboard-response","240","214929","0.0-6.0-3.33","517","","","","","rectangles with change","null","null","","","critical","c","d","t","240","164","164","240","164","240","spektor","0","h","164","240","240","164","164","240","39360","39360","39360","dc","null","null","null","null","null","null","[2,1]","493.7481064082412","135.08536098435584","455.20715230171356"
"","canvas-keyboard-response","241","214947","0.0-6.0-4.33","517","","","","","clear_screen","null","null","","","critical","c","d","t","240","164","164","240","164","240","spektor","0","h","164","240","240","164","164","240","39360","39360","39360","dc","null","null","null","null","null","null","[2,1]","493.7481064082412","135.08536098435584","455.20715230171356"
"","canvas-keyboard-response","242","215745","0.0-6.0-5.33","517","","","","","make choice","789","1","","","critical","c","d","t","240","164","164","240","164","240","spektor","0","h","164","240","240","164","164","240","39360","39360","39360","dc","null","null","null","null","null","null","[2,1]","","",""
"","canvas-keyboard-response","243","215764","0.0-6.0-6.33","517","","","","","clear_screen","null","null","","","critical","c","d","t","240","164","164","240","164","240","spektor","0","h","164","240","240","164","164","240","39360","39360","39360","dc","null","null","null","null","null","null","[2,1]","","",""
"","canvas-keyboard-response","244","215965","0.0-6.0-0.34","517","","","","","pre trial waiting period","null","null","","","critical","d","c","t","154.6796","220.0396","240","164","164","240","trueblood","0.14","h","164","240","240","164","154.6796","220.0396","39360","39360","34035.6388","tc","null","null","null","null","null","null","[3,2]","432.3441776493003","471.1880951345768","425.25950958377916"
"","canvas-keyboard-response","245","215989","0.0-6.0-1.34","517","","","","","clear_screen","null","null","","","critical","d","c","t","154.6796","220.0396","240","164","164","240","trueblood","0.14","h","164","240","240","164","154.6796","220.0396","39360","39360","34035.6388","tc","null","null","null","null","null","null","[3,2]","432.3441776493003","471.1880951345768","425.25950958377916"
"","canvas-keyboard-response","246","216498","0.0-6.0-2.34","517","","","","","rectangles no change","null","null","","","critical","d","c","t","154.6796","220.0396","240","164","164","240","trueblood","0.14","h","164","240","240","164","154.6796","220.0396","39360","39360","34035.6388","tc","null","null","null","null","null","null","[3,2]","432.3441776493003","471.1880951345768","425.25950958377916"
"","canvas-keyboard-response","247","217833","0.0-6.0-3.34","517","","","","","rectangles with change","null","null","","","critical","d","c","t","154.6796","220.0396","240","164","164","240","trueblood","0.14","h","164","240","240","164","154.6796","220.0396","39360","39360","34035.6388","tc","null","null","null","null","null","null","[3,2]","432.3441776493003","471.1880951345768","425.25950958377916"
"","canvas-keyboard-response","248","217857","0.0-6.0-4.34","517","","","","","clear_screen","null","null","","","critical","d","c","t","154.6796","220.0396","240","164","164","240","trueblood","0.14","h","164","240","240","164","154.6796","220.0396","39360","39360","34035.6388","tc","null","null","null","null","null","null","[3,2]","432.3441776493003","471.1880951345768","425.25950958377916"
"","canvas-keyboard-response","249","218728","0.0-6.0-5.34","517","","","","","make choice","863","2","","","critical","d","c","t","154.6796","220.0396","240","164","164","240","trueblood","0.14","h","164","240","240","164","154.6796","220.0396","39360","39360","34035.6388","tc","null","null","null","null","null","null","[3,2]","","",""
"","canvas-keyboard-response","250","218744","0.0-6.0-6.34","517","","","","","clear_screen","null","null","","","critical","d","c","t","154.6796","220.0396","240","164","164","240","trueblood","0.14","h","164","240","240","164","154.6796","220.0396","39360","39360","34035.6388","tc","null","null","null","null","null","null","[3,2]","","",""
"","canvas-keyboard-response","251","218945","0.0-6.0-0.35","517","","","","","pre trial waiting period","null","null","","","critical","t","c","d","240","164","164","240","237.1485","162.6685","spektor","0.02","w","240","164","164","240","237.1485","162.6685","39360","39360","38576.5967","tc","null","null","null","null","null","null","[1,2]","519.7009167860524","135.09134515305712","506.53931172013563"
"","canvas-keyboard-response","252","218966","0.0-6.0-1.35","517","","","","","clear_screen","null","null","","","critical","t","c","d","240","164","164","240","237.1485","162.6685","spektor","0.02","w","240","164","164","240","237.1485","162.6685","39360","39360","38576.5967","tc","null","null","null","null","null","null","[1,2]","519.7009167860524","135.09134515305712","506.53931172013563"
"","canvas-keyboard-response","253","219473","0.0-6.0-2.35","517","","","","","rectangles no change","null","null","","","critical","t","c","d","240","164","164","240","237.1485","162.6685","spektor","0.02","w","240","164","164","240","237.1485","162.6685","39360","39360","38576.5967","tc","null","null","null","null","null","null","[1,2]","519.7009167860524","135.09134515305712","506.53931172013563"
"","canvas-keyboard-response","254","220813","0.0-6.0-3.35","517","","","","","rectangles with change","null","null","","","critical","t","c","d","240","164","164","240","237.1485","162.6685","spektor","0.02","w","240","164","164","240","237.1485","162.6685","39360","39360","38576.5967","tc","null","null","null","null","null","null","[1,2]","519.7009167860524","135.09134515305712","506.53931172013563"
"","canvas-keyboard-response","255","220836","0.0-6.0-4.35","517","","","","","clear_screen","null","null","","","critical","t","c","d","240","164","164","240","237.1485","162.6685","spektor","0.02","w","240","164","164","240","237.1485","162.6685","39360","39360","38576.5967","tc","null","null","null","null","null","null","[1,2]","519.7009167860524","135.09134515305712","506.53931172013563"
"","canvas-keyboard-response","256","221464","0.0-6.0-5.35","517","","","","","make choice","619","1","","","critical","t","c","d","240","164","164","240","237.1485","162.6685","spektor","0.02","w","240","164","164","240","237.1485","162.6685","39360","39360","38576.5967","tc","null","null","null","null","null","null","[1,2]","","",""
"","canvas-keyboard-response","257","221483","0.0-6.0-6.35","517","","","","","clear_screen","null","null","","","critical","t","c","d","240","164","164","240","237.1485","162.6685","spektor","0.02","w","240","164","164","240","237.1485","162.6685","39360","39360","38576.5967","tc","null","null","null","null","null","null","[1,2]","","",""
"","canvas-keyboard-response","258","221684","0.0-6.0-0.36","517","","","","","pre trial waiting period","null","null","","","critical","t","c","d","164","240","240","164","158.0083","227.1683","spektor","0.09","h","164","240","240","164","158.0083","227.1683","39360","39360","35894.4834","dc","null","null","null","null","null","null","[3,2]","482.89426528431886","195.22086055899035","472.4668055260328"
"","canvas-keyboard-response","259","221703","0.0-6.0-1.36","517","","","","","clear_screen","null","null","","","critical","t","c","d","164","240","240","164","158.0083","227.1683","spektor","0.09","h","164","240","240","164","158.0083","227.1683","39360","39360","35894.4834","dc","null","null","null","null","null","null","[3,2]","482.89426528431886","195.22086055899035","472.4668055260328"
"","canvas-keyboard-response","260","222211","0.0-6.0-2.36","517","","","","","rectangles no change","null","null","","","critical","t","c","d","164","240","240","164","158.0083","227.1683","spektor","0.09","h","164","240","240","164","158.0083","227.1683","39360","39360","35894.4834","dc","null","null","null","null","null","null","[3,2]","482.89426528431886","195.22086055899035","472.4668055260328"
"","canvas-keyboard-response","261","223547","0.0-6.0-3.36","517","","","","","rectangles with change","null","null","","","critical","t","c","d","164","240","240","164","158.0083","227.1683","spektor","0.09","h","164","240","240","164","158.0083","227.1683","39360","39360","35894.4834","dc","null","null","null","null","null","null","[3,2]","482.89426528431886","195.22086055899035","472.4668055260328"
"","canvas-keyboard-response","262","223569","0.0-6.0-4.36","517","","","","","clear_screen","null","null","","","critical","t","c","d","164","240","240","164","158.0083","227.1683","spektor","0.09","h","164","240","240","164","158.0083","227.1683","39360","39360","35894.4834","dc","null","null","null","null","null","null","[3,2]","482.89426528431886","195.22086055899035","472.4668055260328"
"","canvas-keyboard-response","263","224233","0.0-6.0-5.36","517","","","","","make choice","658","2","","","critical","t","c","d","164","240","240","164","158.0083","227.1683","spektor","0.09","h","164","240","240","164","158.0083","227.1683","39360","39360","35894.4834","dc","null","null","null","null","null","null","[3,2]","","",""
"","canvas-keyboard-response","264","224254","0.0-6.0-6.36","517","","","","","clear_screen","null","null","","","critical","t","c","d","164","240","240","164","158.0083","227.1683","spektor","0.09","h","164","240","240","164","158.0083","227.1683","39360","39360","35894.4834","dc","null","null","null","null","null","null","[3,2]","","",""
"","canvas-keyboard-response","265","224455","0.0-6.0-0.37","517","","","","","pre trial waiting period","null","null","","","catch","l","sw","sh","171","243","188","214","186","182","spektor","null","null","null","null","null","null","null","null","null","null","null","","180","200","260","200","36000","52000","[1,3]","463.1358717868165","149.61426618864868","524.4136772758416"
"","canvas-keyboard-response","266","224473","0.0-6.0-1.37","517","","","","","clear_screen","null","null","","","catch","l","sw","sh","171","243","188","214","186","182","spektor","null","null","null","null","null","null","null","null","null","null","null","","180","200","260","200","36000","52000","[1,3]","463.1358717868165","149.61426618864868","524.4136772758416"
