"success","trial_type","trial_index","time_elapsed","internal_node_id","sub_n","timeout","failed_images","failed_audio","failed_video","screen_id","rt","response","stimulus","view_history","trial","r1","r2","r3","w1","h1","w2","h2","w3","h3","display","tdd","tdo","tw","th","cw","ch","dw","dh","ta","ca","da","probe","csls","csss","clls","clss","sa","la","probe_rects","r1yloc","r2yloc","r3yloc"
"true","fullscreen","0","1879","0.0-0.0","520","","","","","","","","","","","","","","","","","","","","","","","","","","","","","","","","","","","","","","","","","",""
"true","preload","1","1896","0.0-1.0","520","false","[]","[]","[]","img preload","","","","","","","","","","","","","","","","","","","","","","","","","","","","","","","","","","","","",""
"","survey-html-form","2","168468","0.0-2.0","520","","","","","enter-sub-number","166565","{""response"":""520""}","","","","","","","","","","","","","","","","","","","","","","","","","","","","","","","","","","",""
"","image-button-response","3","196665","0.0-3.0","520","","","","","","28127","0","consent.png","","","","","","","","","","","","","","","","","","","","","","","","","","","","","","","","","",""
"","html-button-response","4","205313","0.0-4.0","520","","","","","intro mssg","8639","0","<div style= ""font-size:25px;"" <p> <strong> Welcome! </strong><br> <p style=""color:#8B0000; font-size:25px;""><strong> Please do NOT exit full screen until you are done with the experiment. </strong> </p><p style=""font-size:25px;color:#8B0000;""> <strong> Your data will be lost <br> if you try to go back or refresh the page after the experiment starts. Feel free to click ""previous"" during the instructions, however.</strong> </p><br><p> <strong> Thanks in advance for your contribution to our research! </strong></p>","","","","","","","","","","","","","","","","","","","","","","","","","","","","","","","","","",""
"","instructions","5","276816","0.0-5.0","520","","","","","instructions","71498","","","[{""page_index"":0,""viewing_time"":7548},{""page_index"":1,""viewing_time"":6726},{""page_index"":2,""viewing_time"":2153},{""page_index"":3,""viewing_time"":12072},{""page_index"":4,""viewing_time"":7208},{""page_index"":5,""viewing_time"":2376},{""page_index"":6,""viewing_time"":2889},{""page_index"":5,""viewing_time"":159},{""page_index"":4,""viewing_time"":184},{""page_index"":3,""viewing_time"":865},{""page_index"":2,""viewing_time"":1151},{""page_index"":3,""viewing_time"":17408},{""page_index"":4,""viewing_time"":5416},{""page_index"":5,""viewing_time"":1360},{""page_index"":6,""viewing_time"":2904},{""page_index"":7,""viewing_time"":1079}]","","","","","","","","","","","","","","","","","","","","","","","","","","","","","","","","",""
"","canvas-keyboard-response","6","277019","0.0-6.0-0.0","520","","","","","pre trial waiting period","null","null","","","critical","t","c","d","164","240","240","164","158.0083","227.1683","spektor","0.09","h","164","240","240","164","158.0083","227.1683","39360","39360","35894.4834","dc","null","null","null","null","null","null","[3,2]","462.4868308339959","156.3682068338095","478.18677285746946"
"","canvas-keyboard-response","7","277046","0.0-6.0-1.0","520","","","","","clear_screen","null","null","","","critical","t","c","d","164","240","240","164","158.0083","227.1683","spektor","0.09","h","164","240","240","164","158.0083","227.1683","39360","39360","35894.4834","dc","null","null","null","null","null","null","[3,2]","462.4868308339959","156.3682068338095","478.18677285746946"
"","canvas-keyboard-response","8","277560","0.0-6.0-2.0","520","","","","","rectangles no change","null","null","","","critical","t","c","d","164","240","240","164","158.0083","227.1683","spektor","0.09","h","164","240","240","164","158.0083","227.1683","39360","39360","35894.4834","dc","null","null","null","null","null","null","[3,2]","462.4868308339959","156.3682068338095","478.18677285746946"
"","canvas-keyboard-response","9","278897","0.0-6.0-3.0","520","","","","","rectangles with change","null","null","","","critical","t","c","d","164","240","240","164","158.0083","227.1683","spektor","0.09","h","164","240","240","164","158.0083","227.1683","39360","39360","35894.4834","dc","null","null","null","null","null","null","[3,2]","462.4868308339959","156.3682068338095","478.18677285746946"
"","canvas-keyboard-response","10","278916","0.0-6.0-4.0","520","","","","","clear_screen","null","null","","","critical","t","c","d","164","240","240","164","158.0083","227.1683","spektor","0.09","h","164","240","240","164","158.0083","227.1683","39360","39360","35894.4834","dc","null","null","null","null","null","null","[3,2]","462.4868308339959","156.3682068338095","478.18677285746946"
"","canvas-keyboard-response","11","281192","0.0-6.0-5.0","520","","","","","make choice","2266","2","","","critical","t","c","d","164","240","240","164","158.0083","227.1683","spektor","0.09","h","164","240","240","164","158.0083","227.1683","39360","39360","35894.4834","dc","null","null","null","null","null","null","[3,2]","","",""
"","canvas-keyboard-response","12","281213","0.0-6.0-6.0","520","","","","","clear_screen","null","null","","","critical","t","c","d","164","240","240","164","158.0083","227.1683","spektor","0.09","h","164","240","240","164","158.0083","227.1683","39360","39360","35894.4834","dc","null","null","null","null","null","null","[3,2]","","",""
"","canvas-keyboard-response","13","281414","0.0-6.0-0.1","520","","","","","pre trial waiting period","null","null","","","critical","d","t","c","227.1683","158.0083","240","164","164","240","spektor","0.09","w","240","164","164","240","227.1683","158.0083","39360","39360","35894.4834","tc","null","null","null","null","null","null","[2,3]","510.2564074041116","185.86725474436267","457.1563526544087"
"","canvas-keyboard-response","14","281440","0.0-6.0-1.1","520","","","","","clear_screen","null","null","","","critical","d","t","c","227.1683","158.0083","240","164","164","240","spektor","0.09","w","240","164","164","240","227.1683","158.0083","39360","39360","35894.4834","tc","null","null","null","null","null","null","[2,3]","510.2564074041116","185.86725474436267","457.1563526544087"
"","canvas-keyboard-response","15","281949","0.0-6.0-2.1","520","","","","","rectangles no change","null","null","","","critical","d","t","c","227.1683","158.0083","240","164","164","240","spektor","0.09","w","240","164","164","240","227.1683","158.0083","39360","39360","35894.4834","tc","null","null","null","null","null","null","[2,3]","510.2564074041116","185.86725474436267","457.1563526544087"
"","canvas-keyboard-response","16","283285","0.0-6.0-3.1","520","","","","","rectangles with change","null","null","","","critical","d","t","c","227.1683","158.0083","240","164","164","240","spektor","0.09","w","240","164","164","240","227.1683","158.0083","39360","39360","35894.4834","tc","null","null","null","null","null","null","[2,3]","510.2564074041116","185.86725474436267","457.1563526544087"
"","canvas-keyboard-response","17","283308","0.0-6.0-4.1","520","","","","","clear_screen","null","null","","","critical","d","t","c","227.1683","158.0083","240","164","164","240","spektor","0.09","w","240","164","164","240","227.1683","158.0083","39360","39360","35894.4834","tc","null","null","null","null","null","null","[2,3]","510.2564074041116","185.86725474436267","457.1563526544087"
"","canvas-keyboard-response","18","283984","0.0-6.0-5.1","520","","","","","make choice","666","3","","","critical","d","t","c","227.1683","158.0083","240","164","164","240","spektor","0.09","w","240","164","164","240","227.1683","158.0083","39360","39360","35894.4834","tc","null","null","null","null","null","null","[2,3]","","",""
"","canvas-keyboard-response","19","284003","0.0-6.0-6.1","520","","","","","clear_screen","null","null","","","critical","d","t","c","227.1683","158.0083","240","164","164","240","spektor","0.09","w","240","164","164","240","227.1683","158.0083","39360","39360","35894.4834","tc","null","null","null","null","null","null","[2,3]","","",""
"","canvas-keyboard-response","20","284204","0.0-6.0-0.2","520","","","","","pre trial waiting period","null","null","","","critical","t","c","d","164","240","240","164","154.6796","220.0396","trueblood","0.14","h","164","240","240","164","154.6796","220.0396","39360","39360","34035.6388","dc","null","null","null","null","null","null","[3,2]","465.99586243912086","502.3180927150168","473.5308338360792"
"","canvas-keyboard-response","21","284227","0.0-6.0-1.2","520","","","","","clear_screen","null","null","","","critical","t","c","d","164","240","240","164","154.6796","220.0396","trueblood","0.14","h","164","240","240","164","154.6796","220.0396","39360","39360","34035.6388","dc","null","null","null","null","null","null","[3,2]","465.99586243912086","502.3180927150168","473.5308338360792"
"","canvas-keyboard-response","22","284736","0.0-6.0-2.2","520","","","","","rectangles no change","null","null","","","critical","t","c","d","164","240","240","164","154.6796","220.0396","trueblood","0.14","h","164","240","240","164","154.6796","220.0396","39360","39360","34035.6388","dc","null","null","null","null","null","null","[3,2]","465.99586243912086","502.3180927150168","473.5308338360792"
"","canvas-keyboard-response","23","286073","0.0-6.0-3.2","520","","","","","rectangles with change","null","null","","","critical","t","c","d","164","240","240","164","154.6796","220.0396","trueblood","0.14","h","164","240","240","164","154.6796","220.0396","39360","39360","34035.6388","dc","null","null","null","null","null","null","[3,2]","465.99586243912086","502.3180927150168","473.5308338360792"
"","canvas-keyboard-response","24","286094","0.0-6.0-4.2","520","","","","","clear_screen","null","null","","","critical","t","c","d","164","240","240","164","154.6796","220.0396","trueblood","0.14","h","164","240","240","164","154.6796","220.0396","39360","39360","34035.6388","dc","null","null","null","null","null","null","[3,2]","465.99586243912086","502.3180927150168","473.5308338360792"
"","canvas-keyboard-response","25","286888","0.0-6.0-5.2","520","","","","","make choice","789","2","","","critical","t","c","d","164","240","240","164","154.6796","220.0396","trueblood","0.14","h","164","240","240","164","154.6796","220.0396","39360","39360","34035.6388","dc","null","null","null","null","null","null","[3,2]","","",""
"","canvas-keyboard-response","26","286907","0.0-6.0-6.2","520","","","","","clear_screen","null","null","","","critical","t","c","d","164","240","240","164","154.6796","220.0396","trueblood","0.14","h","164","240","240","164","154.6796","220.0396","39360","39360","34035.6388","dc","null","null","null","null","null","null","[3,2]","","",""
"","canvas-keyboard-response","27","287108","0.0-6.0-0.3","520","","","","","pre trial waiting period","null","null","","","critical","t","c","d","164","240","240","164","158.0083","227.1683","spektor","0.09","h","164","240","240","164","158.0083","227.1683","39360","39360","35894.4834","td","null","null","null","null","null","null","[1,3]","487.05933715648166","194.76765387290567","491.4080750951342"
"","canvas-keyboard-response","28","287128","0.0-6.0-1.3","520","","","","","clear_screen","null","null","","","critical","t","c","d","164","240","240","164","158.0083","227.1683","spektor","0.09","h","164","240","240","164","158.0083","227.1683","39360","39360","35894.4834","td","null","null","null","null","null","null","[1,3]","487.05933715648166","194.76765387290567","491.4080750951342"
"","canvas-keyboard-response","29","287637","0.0-6.0-2.3","520","","","","","rectangles no change","null","null","","","critical","t","c","d","164","240","240","164","158.0083","227.1683","spektor","0.09","h","164","240","240","164","158.0083","227.1683","39360","39360","35894.4834","td","null","null","null","null","null","null","[1,3]","487.05933715648166","194.76765387290567","491.4080750951342"
"","canvas-keyboard-response","30","288976","0.0-6.0-3.3","520","","","","","rectangles with change","null","null","","","critical","t","c","d","164","240","240","164","158.0083","227.1683","spektor","0.09","h","164","240","240","164","158.0083","227.1683","39360","39360","35894.4834","td","null","null","null","null","null","null","[1,3]","487.05933715648166","194.76765387290567","491.4080750951342"
"","canvas-keyboard-response","31","289000","0.0-6.0-4.3","520","","","","","clear_screen","null","null","","","critical","t","c","d","164","240","240","164","158.0083","227.1683","spektor","0.09","h","164","240","240","164","158.0083","227.1683","39360","39360","35894.4834","td","null","null","null","null","null","null","[1,3]","487.05933715648166","194.76765387290567","491.4080750951342"
"","canvas-keyboard-response","32","290304","0.0-6.0-5.3","520","","","","","make choice","1297","1","","","critical","t","c","d","164","240","240","164","158.0083","227.1683","spektor","0.09","h","164","240","240","164","158.0083","227.1683","39360","39360","35894.4834","td","null","null","null","null","null","null","[1,3]","","",""
"","canvas-keyboard-response","33","290325","0.0-6.0-6.3","520","","","","","clear_screen","null","null","","","critical","t","c","d","164","240","240","164","158.0083","227.1683","spektor","0.09","h","164","240","240","164","158.0083","227.1683","39360","39360","35894.4834","td","null","null","null","null","null","null","[1,3]","","",""
"","canvas-keyboard-response","34","290526","0.0-6.0-0.4","520","","","","","pre trial waiting period","null","null","","","critical","d","t","c","160.6713","232.8713","164","240","240","164","spektor","0.05","h","164","240","240","164","160.6713","232.8713","39360","39360","37415.7294","tc","null","null","null","null","null","null","[2,3]","488.7574849813245","96.56546035038359","494.4433823993411"
"","canvas-keyboard-response","35","290547","0.0-6.0-1.4","520","","","","","clear_screen","null","null","","","critical","d","t","c","160.6713","232.8713","164","240","240","164","spektor","0.05","h","164","240","240","164","160.6713","232.8713","39360","39360","37415.7294","tc","null","null","null","null","null","null","[2,3]","488.7574849813245","96.56546035038359","494.4433823993411"
"","canvas-keyboard-response","36","291056","0.0-6.0-2.4","520","","","","","rectangles no change","null","null","","","critical","d","t","c","160.6713","232.8713","164","240","240","164","spektor","0.05","h","164","240","240","164","160.6713","232.8713","39360","39360","37415.7294","tc","null","null","null","null","null","null","[2,3]","488.7574849813245","96.56546035038359","494.4433823993411"
"","canvas-keyboard-response","37","292392","0.0-6.0-3.4","520","","","","","rectangles with change","null","null","","","critical","d","t","c","160.6713","232.8713","164","240","240","164","spektor","0.05","h","164","240","240","164","160.6713","232.8713","39360","39360","37415.7294","tc","null","null","null","null","null","null","[2,3]","488.7574849813245","96.56546035038359","494.4433823993411"
"","canvas-keyboard-response","38","292415","0.0-6.0-4.4","520","","","","","clear_screen","null","null","","","critical","d","t","c","160.6713","232.8713","164","240","240","164","spektor","0.05","h","164","240","240","164","160.6713","232.8713","39360","39360","37415.7294","tc","null","null","null","null","null","null","[2,3]","488.7574849813245","96.56546035038359","494.4433823993411"
"","canvas-keyboard-response","39","293136","0.0-6.0-5.4","520","","","","","make choice","714","3","","","critical","d","t","c","160.6713","232.8713","164","240","240","164","spektor","0.05","h","164","240","240","164","160.6713","232.8713","39360","39360","37415.7294","tc","null","null","null","null","null","null","[2,3]","","",""
"","canvas-keyboard-response","40","293157","0.0-6.0-6.4","520","","","","","clear_screen","null","null","","","critical","d","t","c","160.6713","232.8713","164","240","240","164","spektor","0.05","h","164","240","240","164","160.6713","232.8713","39360","39360","37415.7294","tc","null","null","null","null","null","null","[2,3]","","",""
"","canvas-keyboard-response","41","293358","0.0-6.0-0.5","520","","","","","pre trial waiting period","null","null","","","critical","t","d","c","240","164","237.1485","162.6685","164","240","spektor","0.02","w","240","164","164","240","237.1485","162.6685","39360","39360","38576.5967","dc","null","null","null","null","null","null","[2,3]","511.6035733479212","184.36254182656285","480.0618193712518"
"","canvas-keyboard-response","42","293378","0.0-6.0-1.5","520","","","","","clear_screen","null","null","","","critical","t","d","c","240","164","237.1485","162.6685","164","240","spektor","0.02","w","240","164","164","240","237.1485","162.6685","39360","39360","38576.5967","dc","null","null","null","null","null","null","[2,3]","511.6035733479212","184.36254182656285","480.0618193712518"
"","canvas-keyboard-response","43","293890","0.0-6.0-2.5","520","","","","","rectangles no change","null","null","","","critical","t","d","c","240","164","237.1485","162.6685","164","240","spektor","0.02","w","240","164","164","240","237.1485","162.6685","39360","39360","38576.5967","dc","null","null","null","null","null","null","[2,3]","511.6035733479212","184.36254182656285","480.0618193712518"
"","canvas-keyboard-response","44","295228","0.0-6.0-3.5","520","","","","","rectangles with change","null","null","","","critical","t","d","c","240","164","237.1485","162.6685","164","240","spektor","0.02","w","240","164","164","240","237.1485","162.6685","39360","39360","38576.5967","dc","null","null","null","null","null","null","[2,3]","511.6035733479212","184.36254182656285","480.0618193712518"
"","canvas-keyboard-response","45","295246","0.0-6.0-4.5","520","","","","","clear_screen","null","null","","","critical","t","d","c","240","164","237.1485","162.6685","164","240","spektor","0.02","w","240","164","164","240","237.1485","162.6685","39360","39360","38576.5967","dc","null","null","null","null","null","null","[2,3]","511.6035733479212","184.36254182656285","480.0618193712518"
"","canvas-keyboard-response","46","295864","0.0-6.0-5.5","520","","","","","make choice","610","2","","","critical","t","d","c","240","164","237.1485","162.6685","164","240","spektor","0.02","w","240","164","164","240","237.1485","162.6685","39360","39360","38576.5967","dc","null","null","null","null","null","null","[2,3]","","",""
"","canvas-keyboard-response","47","295885","0.0-6.0-6.5","520","","","","","clear_screen","null","null","","","critical","t","d","c","240","164","237.1485","162.6685","164","240","spektor","0.02","w","240","164","164","240","237.1485","162.6685","39360","39360","38576.5967","dc","null","null","null","null","null","null","[2,3]","","",""
"","canvas-keyboard-response","48","296086","0.0-6.0-0.6","520","","","","","pre trial waiting period","null","null","","","critical","c","d","t","164","240","240","164","240","164","spektor","0","w","240","164","164","240","240","164","39360","39360","39360","dc","null","null","null","null","null","null","[2,1]","484.2248268365395","171.58937610560645","514.7003788346235"
"","canvas-keyboard-response","49","296105","0.0-6.0-1.6","520","","","","","clear_screen","null","null","","","critical","c","d","t","164","240","240","164","240","164","spektor","0","w","240","164","164","240","240","164","39360","39360","39360","dc","null","null","null","null","null","null","[2,1]","484.2248268365395","171.58937610560645","514.7003788346235"
"","canvas-keyboard-response","50","296614","0.0-6.0-2.6","520","","","","","rectangles no change","null","null","","","critical","c","d","t","164","240","240","164","240","164","spektor","0","w","240","164","164","240","240","164","39360","39360","39360","dc","null","null","null","null","null","null","[2,1]","484.2248268365395","171.58937610560645","514.7003788346235"
"","canvas-keyboard-response","51","297948","0.0-6.0-3.6","520","","","","","rectangles with change","null","null","","","critical","c","d","t","164","240","240","164","240","164","spektor","0","w","240","164","164","240","240","164","39360","39360","39360","dc","null","null","null","null","null","null","[2,1]","484.2248268365395","171.58937610560645","514.7003788346235"
"","canvas-keyboard-response","52","297972","0.0-6.0-4.6","520","","","","","clear_screen","null","null","","","critical","c","d","t","164","240","240","164","240","164","spektor","0","w","240","164","164","240","240","164","39360","39360","39360","dc","null","null","null","null","null","null","[2,1]","484.2248268365395","171.58937610560645","514.7003788346235"
"","canvas-keyboard-response","53","298312","0.0-6.0-5.6","520","","","","","make choice","332","2","","","critical","c","d","t","164","240","240","164","240","164","spektor","0","w","240","164","164","240","240","164","39360","39360","39360","dc","null","null","null","null","null","null","[2,1]","","",""
"","canvas-keyboard-response","54","298333","0.0-6.0-6.6","520","","","","","clear_screen","null","null","","","critical","c","d","t","164","240","240","164","240","164","spektor","0","w","240","164","164","240","240","164","39360","39360","39360","dc","null","null","null","null","null","null","[2,1]","","",""
"","canvas-keyboard-response","55","298534","0.0-6.0-0.7","520","","","","","pre trial waiting period","null","null","","","critical","c","d","t","164","240","240","164","240","164","trueblood","0","w","240","164","164","240","240","164","39360","39360","39360","dc","null","null","null","null","null","null","[2,1]","442.13486355839285","468.93515062324946","485.5555189471014"
"","canvas-keyboard-response","56","298557","0.0-6.0-1.7","520","","","","","clear_screen","null","null","","","critical","c","d","t","164","240","240","164","240","164","trueblood","0","w","240","164","164","240","240","164","39360","39360","39360","dc","null","null","null","null","null","null","[2,1]","442.13486355839285","468.93515062324946","485.5555189471014"
"","canvas-keyboard-response","57","299063","0.0-6.0-2.7","520","","","","","rectangles no change","null","null","","","critical","c","d","t","164","240","240","164","240","164","trueblood","0","w","240","164","164","240","240","164","39360","39360","39360","dc","null","null","null","null","null","null","[2,1]","442.13486355839285","468.93515062324946","485.5555189471014"
"","canvas-keyboard-response","58","300404","0.0-6.0-3.7","520","","","","","rectangles with change","null","null","","","critical","c","d","t","164","240","240","164","240","164","trueblood","0","w","240","164","164","240","240","164","39360","39360","39360","dc","null","null","null","null","null","null","[2,1]","442.13486355839285","468.93515062324946","485.5555189471014"
"","canvas-keyboard-response","59","300427","0.0-6.0-4.7","520","","","","","clear_screen","null","null","","","critical","c","d","t","164","240","240","164","240","164","trueblood","0","w","240","164","164","240","240","164","39360","39360","39360","dc","null","null","null","null","null","null","[2,1]","442.13486355839285","468.93515062324946","485.5555189471014"
"","canvas-keyboard-response","60","301160","0.0-6.0-5.7","520","","","","","make choice","727","1","","","critical","c","d","t","164","240","240","164","240","164","trueblood","0","w","240","164","164","240","240","164","39360","39360","39360","dc","null","null","null","null","null","null","[2,1]","","",""
"","canvas-keyboard-response","61","301182","0.0-6.0-6.7","520","","","","","clear_screen","null","null","","","critical","c","d","t","164","240","240","164","240","164","trueblood","0","w","240","164","164","240","240","164","39360","39360","39360","dc","null","null","null","null","null","null","[2,1]","","",""
"","canvas-keyboard-response","62","301384","0.0-6.0-0.8","520","","","","","pre trial waiting period","null","null","","","critical","d","t","c","160.6713","232.8713","164","240","240","164","trueblood","0.05","h","164","240","240","164","160.6713","232.8713","39360","39360","37415.7294","td","null","null","null","null","null","null","[2,1]","427.1691553846633","428.19655968492464","485.09740182371723"
"","canvas-keyboard-response","63","301403","0.0-6.0-1.8","520","","","","","clear_screen","null","null","","","critical","d","t","c","160.6713","232.8713","164","240","240","164","trueblood","0.05","h","164","240","240","164","160.6713","232.8713","39360","39360","37415.7294","td","null","null","null","null","null","null","[2,1]","427.1691553846633","428.19655968492464","485.09740182371723"
"","canvas-keyboard-response","64","301911","0.0-6.0-2.8","520","","","","","rectangles no change","null","null","","","critical","d","t","c","160.6713","232.8713","164","240","240","164","trueblood","0.05","h","164","240","240","164","160.6713","232.8713","39360","39360","37415.7294","td","null","null","null","null","null","null","[2,1]","427.1691553846633","428.19655968492464","485.09740182371723"
"","canvas-keyboard-response","65","303245","0.0-6.0-3.8","520","","","","","rectangles with change","null","null","","","critical","d","t","c","160.6713","232.8713","164","240","240","164","trueblood","0.05","h","164","240","240","164","160.6713","232.8713","39360","39360","37415.7294","td","null","null","null","null","null","null","[2,1]","427.1691553846633","428.19655968492464","485.09740182371723"
"","canvas-keyboard-response","66","303265","0.0-6.0-4.8","520","","","","","clear_screen","null","null","","","critical","d","t","c","160.6713","232.8713","164","240","240","164","trueblood","0.05","h","164","240","240","164","160.6713","232.8713","39360","39360","37415.7294","td","null","null","null","null","null","null","[2,1]","427.1691553846633","428.19655968492464","485.09740182371723"
"","canvas-keyboard-response","67","303897","0.0-6.0-5.8","520","","","","","make choice","623","2","","","critical","d","t","c","160.6713","232.8713","164","240","240","164","trueblood","0.05","h","164","240","240","164","160.6713","232.8713","39360","39360","37415.7294","td","null","null","null","null","null","null","[2,1]","","",""
"","canvas-keyboard-response","68","303917","0.0-6.0-6.8","520","","","","","clear_screen","null","null","","","critical","d","t","c","160.6713","232.8713","164","240","240","164","trueblood","0.05","h","164","240","240","164","160.6713","232.8713","39360","39360","37415.7294","td","null","null","null","null","null","null","[2,1]","","",""
"","canvas-keyboard-response","69","304118","0.0-6.0-0.9","520","","","","","pre trial waiting period","null","null","","","catch","sw","l","sh","180","200","297","165","209","194","spektor","null","null","null","null","null","null","null","null","null","null","null","","180","200","260","200","36000","52000","[2,3]","517.0117215551106","212.04708986912138","493.36402161065575"
"","canvas-keyboard-response","70","304138","0.0-6.0-1.9","520","","","","","clear_screen","null","null","","","catch","sw","l","sh","180","200","297","165","209","194","spektor","null","null","null","null","null","null","null","null","null","null","null","","180","200","260","200","36000","52000","[2,3]","517.0117215551106","212.04708986912138","493.36402161065575"
"","canvas-keyboard-response","71","304647","0.0-6.0-2.9","520","","","","","rectangles no change","null","null","","","catch","sw","l","sh","180","200","297","165","209","194","spektor","null","null","null","null","null","null","null","null","null","null","null","","180","200","260","200","36000","52000","[2,3]","517.0117215551106","212.04708986912138","493.36402161065575"
"","canvas-keyboard-response","72","305986","0.0-6.0-3.9","520","","","","","rectangles with change","null","null","","","catch","sw","l","sh","180","200","297","165","209","194","spektor","null","null","null","null","null","null","null","null","null","null","null","","180","200","260","200","36000","52000","[2,3]","517.0117215551106","212.04708986912138","493.36402161065575"
"","canvas-keyboard-response","73","306006","0.0-6.0-4.9","520","","","","","clear_screen","null","null","","","catch","sw","l","sh","180","200","297","165","209","194","spektor","null","null","null","null","null","null","null","null","null","null","null","","180","200","260","200","36000","52000","[2,3]","517.0117215551106","212.04708986912138","493.36402161065575"
"","canvas-keyboard-response","74","306489","0.0-6.0-5.9","520","","","","","make choice","477","2","","","catch","sw","l","sh","180","200","297","165","209","194","spektor","null","null","null","null","null","null","null","null","null","null","null","","180","200","260","200","36000","52000","[2,3]","","",""
"","canvas-keyboard-response","75","306506","0.0-6.0-6.9","520","","","","","clear_screen","null","null","","","catch","sw","l","sh","180","200","297","165","209","194","spektor","null","null","null","null","null","null","null","null","null","null","null","","180","200","260","200","36000","52000","[2,3]","","",""
"","canvas-keyboard-response","76","306707","0.0-6.0-0.10","520","","","","","pre trial waiting period","null","null","","","critical","c","t","d","240","164","164","240","162.6685","237.1485","spektor","0.02","h","164","240","240","164","162.6685","237.1485","39360","39360","38576.5967","tc","null","null","null","null","null","null","[2,1]","506.9880416278789","107.45662949291105","466.695964971374"
"","canvas-keyboard-response","77","306726","0.0-6.0-1.10","520","","","","","clear_screen","null","null","","","critical","c","t","d","240","164","164","240","162.6685","237.1485","spektor","0.02","h","164","240","240","164","162.6685","237.1485","39360","39360","38576.5967","tc","null","null","null","null","null","null","[2,1]","506.9880416278789","107.45662949291105","466.695964971374"
"","canvas-keyboard-response","78","307235","0.0-6.0-2.10","520","","","","","rectangles no change","null","null","","","critical","c","t","d","240","164","164","240","162.6685","237.1485","spektor","0.02","h","164","240","240","164","162.6685","237.1485","39360","39360","38576.5967","tc","null","null","null","null","null","null","[2,1]","506.9880416278789","107.45662949291105","466.695964971374"
"","canvas-keyboard-response","79","308573","0.0-6.0-3.10","520","","","","","rectangles with change","null","null","","","critical","c","t","d","240","164","164","240","162.6685","237.1485","spektor","0.02","h","164","240","240","164","162.6685","237.1485","39360","39360","38576.5967","tc","null","null","null","null","null","null","[2,1]","506.9880416278789","107.45662949291105","466.695964971374"
"","canvas-keyboard-response","80","308593","0.0-6.0-4.10","520","","","","","clear_screen","null","null","","","critical","c","t","d","240","164","164","240","162.6685","237.1485","spektor","0.02","h","164","240","240","164","162.6685","237.1485","39360","39360","38576.5967","tc","null","null","null","null","null","null","[2,1]","506.9880416278789","107.45662949291105","466.695964971374"
"","canvas-keyboard-response","81","309280","0.0-6.0-5.10","520","","","","","make choice","682","1","","","critical","c","t","d","240","164","164","240","162.6685","237.1485","spektor","0.02","h","164","240","240","164","162.6685","237.1485","39360","39360","38576.5967","tc","null","null","null","null","null","null","[2,1]","","",""
"","canvas-keyboard-response","82","309300","0.0-6.0-6.10","520","","","","","clear_screen","null","null","","","critical","c","t","d","240","164","164","240","162.6685","237.1485","spektor","0.02","h","164","240","240","164","162.6685","237.1485","39360","39360","38576.5967","tc","null","null","null","null","null","null","[2,1]","","",""
"","canvas-keyboard-response","83","309502","0.0-6.0-0.11","520","","","","","pre trial waiting period","null","null","","","catch","sh","l","sw","202","172","205","271","203","170","spektor","null","null","null","null","null","null","null","null","null","null","null","","180","200","260","200","36000","52000","[2,3]","490.5842027578025","105.1841194902875","517.791393807841"
"","canvas-keyboard-response","84","309524","0.0-6.0-1.11","520","","","","","clear_screen","null","null","","","catch","sh","l","sw","202","172","205","271","203","170","spektor","null","null","null","null","null","null","null","null","null","null","null","","180","200","260","200","36000","52000","[2,3]","490.5842027578025","105.1841194902875","517.791393807841"
"","canvas-keyboard-response","85","310033","0.0-6.0-2.11","520","","","","","rectangles no change","null","null","","","catch","sh","l","sw","202","172","205","271","203","170","spektor","null","null","null","null","null","null","null","null","null","null","null","","180","200","260","200","36000","52000","[2,3]","490.5842027578025","105.1841194902875","517.791393807841"
"","canvas-keyboard-response","86","311372","0.0-6.0-3.11","520","","","","","rectangles with change","null","null","","","catch","sh","l","sw","202","172","205","271","203","170","spektor","null","null","null","null","null","null","null","null","null","null","null","","180","200","260","200","36000","52000","[2,3]","490.5842027578025","105.1841194902875","517.791393807841"
"","canvas-keyboard-response","87","311390","0.0-6.0-4.11","520","","","","","clear_screen","null","null","","","catch","sh","l","sw","202","172","205","271","203","170","spektor","null","null","null","null","null","null","null","null","null","null","null","","180","200","260","200","36000","52000","[2,3]","490.5842027578025","105.1841194902875","517.791393807841"
"","canvas-keyboard-response","88","311792","0.0-6.0-5.11","520","","","","","make choice","394","2","","","catch","sh","l","sw","202","172","205","271","203","170","spektor","null","null","null","null","null","null","null","null","null","null","null","","180","200","260","200","36000","52000","[2,3]","","",""
"","canvas-keyboard-response","89","311810","0.0-6.0-6.11","520","","","","","clear_screen","null","null","","","catch","sh","l","sw","202","172","205","271","203","170","spektor","null","null","null","null","null","null","null","null","null","null","null","","180","200","260","200","36000","52000","[2,3]","","",""
"","canvas-keyboard-response","90","312011","0.0-6.0-0.12","520","","","","","pre trial waiting period","null","null","","","critical","t","c","d","240","164","164","240","232.8713","160.6713","spektor","0.05","w","240","164","164","240","232.8713","160.6713","39360","39360","37415.7294","td","null","null","null","null","null","null","[1,3]","513.0241955315784","156.21819284157667","527.6797130032909"
"","canvas-keyboard-response","91","312031","0.0-6.0-1.12","520","","","","","clear_screen","null","null","","","critical","t","c","d","240","164","164","240","232.8713","160.6713","spektor","0.05","w","240","164","164","240","232.8713","160.6713","39360","39360","37415.7294","td","null","null","null","null","null","null","[1,3]","513.0241955315784","156.21819284157667","527.6797130032909"
"","canvas-keyboard-response","92","312538","0.0-6.0-2.12","520","","","","","rectangles no change","null","null","","","critical","t","c","d","240","164","164","240","232.8713","160.6713","spektor","0.05","w","240","164","164","240","232.8713","160.6713","39360","39360","37415.7294","td","null","null","null","null","null","null","[1,3]","513.0241955315784","156.21819284157667","527.6797130032909"
"","canvas-keyboard-response","93","313880","0.0-6.0-3.12","520","","","","","rectangles with change","null","null","","","critical","t","c","d","240","164","164","240","232.8713","160.6713","spektor","0.05","w","240","164","164","240","232.8713","160.6713","39360","39360","37415.7294","td","null","null","null","null","null","null","[1,3]","513.0241955315784","156.21819284157667","527.6797130032909"
"","canvas-keyboard-response","94","313904","0.0-6.0-4.12","520","","","","","clear_screen","null","null","","","critical","t","c","d","240","164","164","240","232.8713","160.6713","spektor","0.05","w","240","164","164","240","232.8713","160.6713","39360","39360","37415.7294","td","null","null","null","null","null","null","[1,3]","513.0241955315784","156.21819284157667","527.6797130032909"
"","canvas-keyboard-response","95","314512","0.0-6.0-5.12","520","","","","","make choice","602","1","","","critical","t","c","d","240","164","164","240","232.8713","160.6713","spektor","0.05","w","240","164","164","240","232.8713","160.6713","39360","39360","37415.7294","td","null","null","null","null","null","null","[1,3]","","",""
"","canvas-keyboard-response","96","314532","0.0-6.0-6.12","520","","","","","clear_screen","null","null","","","critical","t","c","d","240","164","164","240","232.8713","160.6713","spektor","0.05","w","240","164","164","240","232.8713","160.6713","39360","39360","37415.7294","td","null","null","null","null","null","null","[1,3]","","",""
"","canvas-keyboard-response","97","314733","0.0-6.0-0.13","520","","","","","pre trial waiting period","null","null","","","critical","t","d","c","240","164","220.0396","154.6796","164","240","spektor","0.14","w","240","164","164","240","220.0396","154.6796","39360","39360","34035.6388","tc","null","null","null","null","null","null","[1,3]","505.9696287341601","188.0465226694658","457.6252808877983"
"","canvas-keyboard-response","98","314756","0.0-6.0-1.13","520","","","","","clear_screen","null","null","","","critical","t","d","c","240","164","220.0396","154.6796","164","240","spektor","0.14","w","240","164","164","240","220.0396","154.6796","39360","39360","34035.6388","tc","null","null","null","null","null","null","[1,3]","505.9696287341601","188.0465226694658","457.6252808877983"
"","canvas-keyboard-response","99","315264","0.0-6.0-2.13","520","","","","","rectangles no change","null","null","","","critical","t","d","c","240","164","220.0396","154.6796","164","240","spektor","0.14","w","240","164","164","240","220.0396","154.6796","39360","39360","34035.6388","tc","null","null","null","null","null","null","[1,3]","505.9696287341601","188.0465226694658","457.6252808877983"
"","canvas-keyboard-response","100","316599","0.0-6.0-3.13","520","","","","","rectangles with change","null","null","","","critical","t","d","c","240","164","220.0396","154.6796","164","240","spektor","0.14","w","240","164","164","240","220.0396","154.6796","39360","39360","34035.6388","tc","null","null","null","null","null","null","[1,3]","505.9696287341601","188.0465226694658","457.6252808877983"
"","canvas-keyboard-response","101","316618","0.0-6.0-4.13","520","","","","","clear_screen","null","null","","","critical","t","d","c","240","164","220.0396","154.6796","164","240","spektor","0.14","w","240","164","164","240","220.0396","154.6796","39360","39360","34035.6388","tc","null","null","null","null","null","null","[1,3]","505.9696287341601","188.0465226694658","457.6252808877983"
"","canvas-keyboard-response","102","317192","0.0-6.0-5.13","520","","","","","make choice","568","3","","","critical","t","d","c","240","164","220.0396","154.6796","164","240","spektor","0.14","w","240","164","164","240","220.0396","154.6796","39360","39360","34035.6388","tc","null","null","null","null","null","null","[1,3]","","",""
"","canvas-keyboard-response","103","317213","0.0-6.0-6.13","520","","","","","clear_screen","null","null","","","critical","t","d","c","240","164","220.0396","154.6796","164","240","spektor","0.14","w","240","164","164","240","220.0396","154.6796","39360","39360","34035.6388","tc","null","null","null","null","null","null","[1,3]","","",""
"","canvas-keyboard-response","104","317413","0.0-6.0-0.14","520","","","","","pre trial waiting period","null","null","","","critical","d","c","t","220.0396","154.6796","164","240","240","164","spektor","0.14","w","240","164","164","240","220.0396","154.6796","39360","39360","34035.6388","td","null","null","null","null","null","null","[3,1]","525.9550934493396","120.35647073628033","495.96581870364844"
"","canvas-keyboard-response","105","317433","0.0-6.0-1.14","520","","","","","clear_screen","null","null","","","critical","d","c","t","220.0396","154.6796","164","240","240","164","spektor","0.14","w","240","164","164","240","220.0396","154.6796","39360","39360","34035.6388","td","null","null","null","null","null","null","[3,1]","525.9550934493396","120.35647073628033","495.96581870364844"
"","canvas-keyboard-response","106","317942","0.0-6.0-2.14","520","","","","","rectangles no change","null","null","","","critical","d","c","t","220.0396","154.6796","164","240","240","164","spektor","0.14","w","240","164","164","240","220.0396","154.6796","39360","39360","34035.6388","td","null","null","null","null","null","null","[3,1]","525.9550934493396","120.35647073628033","495.96581870364844"
"","canvas-keyboard-response","107","319281","0.0-6.0-3.14","520","","","","","rectangles with change","null","null","","","critical","d","c","t","220.0396","154.6796","164","240","240","164","spektor","0.14","w","240","164","164","240","220.0396","154.6796","39360","39360","34035.6388","td","null","null","null","null","null","null","[3,1]","525.9550934493396","120.35647073628033","495.96581870364844"
"","canvas-keyboard-response","108","319304","0.0-6.0-4.14","520","","","","","clear_screen","null","null","","","critical","d","c","t","220.0396","154.6796","164","240","240","164","spektor","0.14","w","240","164","164","240","220.0396","154.6796","39360","39360","34035.6388","td","null","null","null","null","null","null","[3,1]","525.9550934493396","120.35647073628033","495.96581870364844"
"","canvas-keyboard-response","109","319865","0.0-6.0-5.14","520","","","","","make choice","554","3","","","critical","d","c","t","220.0396","154.6796","164","240","240","164","spektor","0.14","w","240","164","164","240","220.0396","154.6796","39360","39360","34035.6388","td","null","null","null","null","null","null","[3,1]","","",""
"","canvas-keyboard-response","110","319884","0.0-6.0-6.14","520","","","","","clear_screen","null","null","","","critical","d","c","t","220.0396","154.6796","164","240","240","164","spektor","0.14","w","240","164","164","240","220.0396","154.6796","39360","39360","34035.6388","td","null","null","null","null","null","null","[3,1]","","",""
"","canvas-keyboard-response","111","320085","0.0-6.0-0.15","520","","","","","pre trial waiting period","null","null","","","critical","d","t","c","220.0396","154.6796","240","164","164","240","trueblood","0.14","w","240","164","164","240","220.0396","154.6796","39360","39360","34035.6388","td","null","null","null","null","null","null","[2,1]","476.46954484096216","473.0450500313881","435.0792098523098"
"","canvas-keyboard-response","112","320106","0.0-6.0-1.15","520","","","","","clear_screen","null","null","","","critical","d","t","c","220.0396","154.6796","240","164","164","240","trueblood","0.14","w","240","164","164","240","220.0396","154.6796","39360","39360","34035.6388","td","null","null","null","null","null","null","[2,1]","476.46954484096216","473.0450500313881","435.0792098523098"
"","canvas-keyboard-response","113","320614","0.0-6.0-2.15","520","","","","","rectangles no change","null","null","","","critical","d","t","c","220.0396","154.6796","240","164","164","240","trueblood","0.14","w","240","164","164","240","220.0396","154.6796","39360","39360","34035.6388","td","null","null","null","null","null","null","[2,1]","476.46954484096216","473.0450500313881","435.0792098523098"
"","canvas-keyboard-response","114","321951","0.0-6.0-3.15","520","","","","","rectangles with change","null","null","","","critical","d","t","c","220.0396","154.6796","240","164","164","240","trueblood","0.14","w","240","164","164","240","220.0396","154.6796","39360","39360","34035.6388","td","null","null","null","null","null","null","[2,1]","476.46954484096216","473.0450500313881","435.0792098523098"
"","canvas-keyboard-response","115","321973","0.0-6.0-4.15","520","","","","","clear_screen","null","null","","","critical","d","t","c","220.0396","154.6796","240","164","164","240","trueblood","0.14","w","240","164","164","240","220.0396","154.6796","39360","39360","34035.6388","td","null","null","null","null","null","null","[2,1]","476.46954484096216","473.0450500313881","435.0792098523098"
"","canvas-keyboard-response","116","322336","0.0-6.0-5.15","520","","","","","make choice","355","2","","","critical","d","t","c","220.0396","154.6796","240","164","164","240","trueblood","0.14","w","240","164","164","240","220.0396","154.6796","39360","39360","34035.6388","td","null","null","null","null","null","null","[2,1]","","",""
"","canvas-keyboard-response","117","322357","0.0-6.0-6.15","520","","","","","clear_screen","null","null","","","critical","d","t","c","220.0396","154.6796","240","164","164","240","trueblood","0.14","w","240","164","164","240","220.0396","154.6796","39360","39360","34035.6388","td","null","null","null","null","null","null","[2,1]","","",""
"","canvas-keyboard-response","118","322558","0.0-6.0-0.16","520","","","","","pre trial waiting period","null","null","","","critical","d","c","t","160.6713","232.8713","240","164","164","240","trueblood","0.05","h","164","240","240","164","160.6713","232.8713","39360","39360","37415.7294","dc","null","null","null","null","null","null","[1,2]","459.31878321442315","471.15565123650435","435.62129326236277"
"","canvas-keyboard-response","119","322579","0.0-6.0-1.16","520","","","","","clear_screen","null","null","","","critical","d","c","t","160.6713","232.8713","240","164","164","240","trueblood","0.05","h","164","240","240","164","160.6713","232.8713","39360","39360","37415.7294","dc","null","null","null","null","null","null","[1,2]","459.31878321442315","471.15565123650435","435.62129326236277"
"","canvas-keyboard-response","120","323085","0.0-6.0-2.16","520","","","","","rectangles no change","null","null","","","critical","d","c","t","160.6713","232.8713","240","164","164","240","trueblood","0.05","h","164","240","240","164","160.6713","232.8713","39360","39360","37415.7294","dc","null","null","null","null","null","null","[1,2]","459.31878321442315","471.15565123650435","435.62129326236277"
"","canvas-keyboard-response","121","324420","0.0-6.0-3.16","520","","","","","rectangles with change","null","null","","","critical","d","c","t","160.6713","232.8713","240","164","164","240","trueblood","0.05","h","164","240","240","164","160.6713","232.8713","39360","39360","37415.7294","dc","null","null","null","null","null","null","[1,2]","459.31878321442315","471.15565123650435","435.62129326236277"
"","canvas-keyboard-response","122","324444","0.0-6.0-4.16","520","","","","","clear_screen","null","null","","","critical","d","c","t","160.6713","232.8713","240","164","164","240","trueblood","0.05","h","164","240","240","164","160.6713","232.8713","39360","39360","37415.7294","dc","null","null","null","null","null","null","[1,2]","459.31878321442315","471.15565123650435","435.62129326236277"
"","canvas-keyboard-response","123","325456","0.0-6.0-5.16","520","","","","","make choice","1005","1","","","critical","d","c","t","160.6713","232.8713","240","164","164","240","trueblood","0.05","h","164","240","240","164","160.6713","232.8713","39360","39360","37415.7294","dc","null","null","null","null","null","null","[1,2]","","",""
"","canvas-keyboard-response","124","325474","0.0-6.0-6.16","520","","","","","clear_screen","null","null","","","critical","d","c","t","160.6713","232.8713","240","164","164","240","trueblood","0.05","h","164","240","240","164","160.6713","232.8713","39360","39360","37415.7294","dc","null","null","null","null","null","null","[1,2]","","",""
"","canvas-keyboard-response","125","325675","0.0-6.0-0.17","520","","","","","pre trial waiting period","null","null","","","critical","c","d","t","164","240","237.1485","162.6685","240","164","spektor","0.02","w","240","164","164","240","237.1485","162.6685","39360","39360","38576.5967","td","null","null","null","null","null","null","[3,2]","504.3386646654727","213.9915936013462","527.6253428650426"
"","canvas-keyboard-response","126","325693","0.0-6.0-1.17","520","","","","","clear_screen","null","null","","","critical","c","d","t","164","240","237.1485","162.6685","240","164","spektor","0.02","w","240","164","164","240","237.1485","162.6685","39360","39360","38576.5967","td","null","null","null","null","null","null","[3,2]","504.3386646654727","213.9915936013462","527.6253428650426"
"","canvas-keyboard-response","127","326204","0.0-6.0-2.17","520","","","","","rectangles no change","null","null","","","critical","c","d","t","164","240","237.1485","162.6685","240","164","spektor","0.02","w","240","164","164","240","237.1485","162.6685","39360","39360","38576.5967","td","null","null","null","null","null","null","[3,2]","504.3386646654727","213.9915936013462","527.6253428650426"
"","canvas-keyboard-response","128","327540","0.0-6.0-3.17","520","","","","","rectangles with change","null","null","","","critical","c","d","t","164","240","237.1485","162.6685","240","164","spektor","0.02","w","240","164","164","240","237.1485","162.6685","39360","39360","38576.5967","td","null","null","null","null","null","null","[3,2]","504.3386646654727","213.9915936013462","527.6253428650426"
"","canvas-keyboard-response","129","327560","0.0-6.0-4.17","520","","","","","clear_screen","null","null","","","critical","c","d","t","164","240","237.1485","162.6685","240","164","spektor","0.02","w","240","164","164","240","237.1485","162.6685","39360","39360","38576.5967","td","null","null","null","null","null","null","[3,2]","504.3386646654727","213.9915936013462","527.6253428650426"
"","canvas-keyboard-response","130","328128","0.0-6.0-5.17","520","","","","","make choice","560","3","","","critical","c","d","t","164","240","237.1485","162.6685","240","164","spektor","0.02","w","240","164","164","240","237.1485","162.6685","39360","39360","38576.5967","td","null","null","null","null","null","null","[3,2]","","",""
"","canvas-keyboard-response","131","328149","0.0-6.0-6.17","520","","","","","clear_screen","null","null","","","critical","c","d","t","164","240","237.1485","162.6685","240","164","spektor","0.02","w","240","164","164","240","237.1485","162.6685","39360","39360","38576.5967","td","null","null","null","null","null","null","[3,2]","","",""
"","canvas-keyboard-response","132","328350","0.0-6.0-0.18","520","","","","","pre trial waiting period","null","null","","","critical","d","c","t","237.1485","162.6685","164","240","240","164","trueblood","0.02","w","240","164","164","240","237.1485","162.6685","39360","39360","38576.5967","dc","null","null","null","null","null","null","[1,2]","473.8010832629419","446.24080746539676","495.2941852922798"
"","canvas-keyboard-response","133","328368","0.0-6.0-1.18","520","","","","","clear_screen","null","null","","","critical","d","c","t","237.1485","162.6685","164","240","240","164","trueblood","0.02","w","240","164","164","240","237.1485","162.6685","39360","39360","38576.5967","dc","null","null","null","null","null","null","[1,2]","473.8010832629419","446.24080746539676","495.2941852922798"
"","canvas-keyboard-response","134","328876","0.0-6.0-2.18","520","","","","","rectangles no change","null","null","","","critical","d","c","t","237.1485","162.6685","164","240","240","164","trueblood","0.02","w","240","164","164","240","237.1485","162.6685","39360","39360","38576.5967","dc","null","null","null","null","null","null","[1,2]","473.8010832629419","446.24080746539676","495.2941852922798"
"","canvas-keyboard-response","135","330214","0.0-6.0-3.18","520","","","","","rectangles with change","null","null","","","critical","d","c","t","237.1485","162.6685","164","240","240","164","trueblood","0.02","w","240","164","164","240","237.1485","162.6685","39360","39360","38576.5967","dc","null","null","null","null","null","null","[1,2]","473.8010832629419","446.24080746539676","495.2941852922798"
"","canvas-keyboard-response","136","330234","0.0-6.0-4.18","520","","","","","clear_screen","null","null","","","critical","d","c","t","237.1485","162.6685","164","240","240","164","trueblood","0.02","w","240","164","164","240","237.1485","162.6685","39360","39360","38576.5967","dc","null","null","null","null","null","null","[1,2]","473.8010832629419","446.24080746539676","495.2941852922798"
"","canvas-keyboard-response","137","330856","0.0-6.0-5.18","520","","","","","make choice","617","1","","","critical","d","c","t","237.1485","162.6685","164","240","240","164","trueblood","0.02","w","240","164","164","240","237.1485","162.6685","39360","39360","38576.5967","dc","null","null","null","null","null","null","[1,2]","","",""
"","canvas-keyboard-response","138","330877","0.0-6.0-6.18","520","","","","","clear_screen","null","null","","","critical","d","c","t","237.1485","162.6685","164","240","240","164","trueblood","0.02","w","240","164","164","240","237.1485","162.6685","39360","39360","38576.5967","dc","null","null","null","null","null","null","[1,2]","","",""
"","canvas-keyboard-response","139","331078","0.0-6.0-0.19","520","","","","","pre trial waiting period","null","null","","","catch","sh","l","sw","185","147","222","277","208","232","spektor","null","null","null","null","null","null","null","null","null","null","null","","180","200","260","200","36000","52000","[2,3]","541.0675457688898","84.48278026207727","486.01539254850167"
"","canvas-keyboard-response","140","331099","0.0-6.0-1.19","520","","","","","clear_screen","null","null","","","catch","sh","l","sw","185","147","222","277","208","232","spektor","null","null","null","null","null","null","null","null","null","null","null","","180","200","260","200","36000","52000","[2,3]","541.0675457688898","84.48278026207727","486.01539254850167"
"","canvas-keyboard-response","141","331605","0.0-6.0-2.19","520","","","","","rectangles no change","null","null","","","catch","sh","l","sw","185","147","222","277","208","232","spektor","null","null","null","null","null","null","null","null","null","null","null","","180","200","260","200","36000","52000","[2,3]","541.0675457688898","84.48278026207727","486.01539254850167"
"","canvas-keyboard-response","142","332944","0.0-6.0-3.19","520","","","","","rectangles with change","null","null","","","catch","sh","l","sw","185","147","222","277","208","232","spektor","null","null","null","null","null","null","null","null","null","null","null","","180","200","260","200","36000","52000","[2,3]","541.0675457688898","84.48278026207727","486.01539254850167"
"","canvas-keyboard-response","143","332967","0.0-6.0-4.19","520","","","","","clear_screen","null","null","","","catch","sh","l","sw","185","147","222","277","208","232","spektor","null","null","null","null","null","null","null","null","null","null","null","","180","200","260","200","36000","52000","[2,3]","541.0675457688898","84.48278026207727","486.01539254850167"
"","canvas-keyboard-response","144","333359","0.0-6.0-5.19","520","","","","","make choice","387","3","","","catch","sh","l","sw","185","147","222","277","208","232","spektor","null","null","null","null","null","null","null","null","null","null","null","","180","200","260","200","36000","52000","[2,3]","","",""
"","canvas-keyboard-response","145","333378","0.0-6.0-6.19","520","","","","","clear_screen","null","null","","","catch","sh","l","sw","185","147","222","277","208","232","spektor","null","null","null","null","null","null","null","null","null","null","null","","180","200","260","200","36000","52000","[2,3]","","",""
"","canvas-keyboard-response","146","333580","0.0-6.0-0.20","520","","","","","pre trial waiting period","null","null","","","catch","l","sw","sh","296","171","199","238","190","198","spektor","null","null","null","null","null","null","null","null","null","null","null","","180","200","260","200","36000","52000","[1,3]","495.78057464020776","145.91485439537465","480.2273663688117"
"","canvas-keyboard-response","147","333599","0.0-6.0-1.20","520","","","","","clear_screen","null","null","","","catch","l","sw","sh","296","171","199","238","190","198","spektor","null","null","null","null","null","null","null","null","null","null","null","","180","200","260","200","36000","52000","[1,3]","495.78057464020776","145.91485439537465","480.2273663688117"
"","canvas-keyboard-response","148","334108","0.0-6.0-2.20","520","","","","","rectangles no change","null","null","","","catch","l","sw","sh","296","171","199","238","190","198","spektor","null","null","null","null","null","null","null","null","null","null","null","","180","200","260","200","36000","52000","[1,3]","495.78057464020776","145.91485439537465","480.2273663688117"
"","canvas-keyboard-response","149","335444","0.0-6.0-3.20","520","","","","","rectangles with change","null","null","","","catch","l","sw","sh","296","171","199","238","190","198","spektor","null","null","null","null","null","null","null","null","null","null","null","","180","200","260","200","36000","52000","[1,3]","495.78057464020776","145.91485439537465","480.2273663688117"
"","canvas-keyboard-response","150","335465","0.0-6.0-4.20","520","","","","","clear_screen","null","null","","","catch","l","sw","sh","296","171","199","238","190","198","spektor","null","null","null","null","null","null","null","null","null","null","null","","180","200","260","200","36000","52000","[1,3]","495.78057464020776","145.91485439537465","480.2273663688117"
"","canvas-keyboard-response","151","335792","0.0-6.0-5.20","520","","","","","make choice","321","1","","","catch","l","sw","sh","296","171","199","238","190","198","spektor","null","null","null","null","null","null","null","null","null","null","null","","180","200","260","200","36000","52000","[1,3]","","",""
"","canvas-keyboard-response","152","335812","0.0-6.0-6.20","520","","","","","clear_screen","null","null","","","catch","l","sw","sh","296","171","199","238","190","198","spektor","null","null","null","null","null","null","null","null","null","null","null","","180","200","260","200","36000","52000","[1,3]","","",""
"","canvas-keyboard-response","153","336013","0.0-6.0-0.21","520","","","","","pre trial waiting period","null","null","","","critical","c","t","d","240","164","164","240","164","240","spektor","0","h","164","240","240","164","164","240","39360","39360","39360","dc","null","null","null","null","null","null","[3,1]","538.7832161843027","136.0148539860381","499.1639547334783"
"","canvas-keyboard-response","154","336033","0.0-6.0-1.21","520","","","","","clear_screen","null","null","","","critical","c","t","d","240","164","164","240","164","240","spektor","0","h","164","240","240","164","164","240","39360","39360","39360","dc","null","null","null","null","null","null","[3,1]","538.7832161843027","136.0148539860381","499.1639547334783"
"","canvas-keyboard-response","155","336541","0.0-6.0-2.21","520","","","","","rectangles no change","null","null","","","critical","c","t","d","240","164","164","240","164","240","spektor","0","h","164","240","240","164","164","240","39360","39360","39360","dc","null","null","null","null","null","null","[3,1]","538.7832161843027","136.0148539860381","499.1639547334783"
"","canvas-keyboard-response","156","337878","0.0-6.0-3.21","520","","","","","rectangles with change","null","null","","","critical","c","t","d","240","164","164","240","164","240","spektor","0","h","164","240","240","164","164","240","39360","39360","39360","dc","null","null","null","null","null","null","[3,1]","538.7832161843027","136.0148539860381","499.1639547334783"
"","canvas-keyboard-response","157","337897","0.0-6.0-4.21","520","","","","","clear_screen","null","null","","","critical","c","t","d","240","164","164","240","164","240","spektor","0","h","164","240","240","164","164","240","39360","39360","39360","dc","null","null","null","null","null","null","[3,1]","538.7832161843027","136.0148539860381","499.1639547334783"
"","canvas-keyboard-response","158","339303","0.0-6.0-5.21","520","","","","","make choice","1398","3","","","critical","c","t","d","240","164","164","240","164","240","spektor","0","h","164","240","240","164","164","240","39360","39360","39360","dc","null","null","null","null","null","null","[3,1]","","",""
"","canvas-keyboard-response","159","339324","0.0-6.0-6.21","520","","","","","clear_screen","null","null","","","critical","c","t","d","240","164","164","240","164","240","spektor","0","h","164","240","240","164","164","240","39360","39360","39360","dc","null","null","null","null","null","null","[3,1]","","",""
"","canvas-keyboard-response","160","339525","0.0-6.0-0.22","520","","","","","pre trial waiting period","null","null","","","critical","c","d","t","240","164","158.0083","227.1683","164","240","spektor","0.09","h","164","240","240","164","158.0083","227.1683","39360","39360","35894.4834","tc","null","null","null","null","null","null","[3,1]","536.6107092836893","134.93521837314316","455.57159126036237"
"","canvas-keyboard-response","161","339545","0.0-6.0-1.22","520","","","","","clear_screen","null","null","","","critical","c","d","t","240","164","158.0083","227.1683","164","240","spektor","0.09","h","164","240","240","164","158.0083","227.1683","39360","39360","35894.4834","tc","null","null","null","null","null","null","[3,1]","536.6107092836893","134.93521837314316","455.57159126036237"
"","canvas-keyboard-response","162","340053","0.0-6.0-2.22","520","","","","","rectangles no change","null","null","","","critical","c","d","t","240","164","158.0083","227.1683","164","240","spektor","0.09","h","164","240","240","164","158.0083","227.1683","39360","39360","35894.4834","tc","null","null","null","null","null","null","[3,1]","536.6107092836893","134.93521837314316","455.57159126036237"
"","canvas-keyboard-response","163","341389","0.0-6.0-3.22","520","","","","","rectangles with change","null","null","","","critical","c","d","t","240","164","158.0083","227.1683","164","240","spektor","0.09","h","164","240","240","164","158.0083","227.1683","39360","39360","35894.4834","tc","null","null","null","null","null","null","[3,1]","536.6107092836893","134.93521837314316","455.57159126036237"
"","canvas-keyboard-response","164","341409","0.0-6.0-4.22","520","","","","","clear_screen","null","null","","","critical","c","d","t","240","164","158.0083","227.1683","164","240","spektor","0.09","h","164","240","240","164","158.0083","227.1683","39360","39360","35894.4834","tc","null","null","null","null","null","null","[3,1]","536.6107092836893","134.93521837314316","455.57159126036237"
"","canvas-keyboard-response","165","341752","0.0-6.0-5.22","520","","","","","make choice","336","1","","","critical","c","d","t","240","164","158.0083","227.1683","164","240","spektor","0.09","h","164","240","240","164","158.0083","227.1683","39360","39360","35894.4834","tc","null","null","null","null","null","null","[3,1]","","",""
"","canvas-keyboard-response","166","341772","0.0-6.0-6.22","520","","","","","clear_screen","null","null","","","critical","c","d","t","240","164","158.0083","227.1683","164","240","spektor","0.09","h","164","240","240","164","158.0083","227.1683","39360","39360","35894.4834","tc","null","null","null","null","null","null","[3,1]","","",""
"","canvas-keyboard-response","167","341973","0.0-6.0-0.23","520","","","","","pre trial waiting period","null","null","","","catch","sh","l","sw","170","198","235","172","180","228","spektor","null","null","null","null","null","null","null","null","null","null","null","","180","200","260","200","36000","52000","[1,2]","508.6804496041671","171.61127747449092","466.7866012411194"
"","canvas-keyboard-response","168","341993","0.0-6.0-1.23","520","","","","","clear_screen","null","null","","","catch","sh","l","sw","170","198","235","172","180","228","spektor","null","null","null","null","null","null","null","null","null","null","null","","180","200","260","200","36000","52000","[1,2]","508.6804496041671","171.61127747449092","466.7866012411194"
"","canvas-keyboard-response","169","342503","0.0-6.0-2.23","520","","","","","rectangles no change","null","null","","","catch","sh","l","sw","170","198","235","172","180","228","spektor","null","null","null","null","null","null","null","null","null","null","null","","180","200","260","200","36000","52000","[1,2]","508.6804496041671","171.61127747449092","466.7866012411194"
"","canvas-keyboard-response","170","343843","0.0-6.0-3.23","520","","","","","rectangles with change","null","null","","","catch","sh","l","sw","170","198","235","172","180","228","spektor","null","null","null","null","null","null","null","null","null","null","null","","180","200","260","200","36000","52000","[1,2]","508.6804496041671","171.61127747449092","466.7866012411194"
"","canvas-keyboard-response","171","343863","0.0-6.0-4.23","520","","","","","clear_screen","null","null","","","catch","sh","l","sw","170","198","235","172","180","228","spektor","null","null","null","null","null","null","null","null","null","null","null","","180","200","260","200","36000","52000","[1,2]","508.6804496041671","171.61127747449092","466.7866012411194"
"","canvas-keyboard-response","172","344376","0.0-6.0-5.23","520","","","","","make choice","507","2","","","catch","sh","l","sw","170","198","235","172","180","228","spektor","null","null","null","null","null","null","null","null","null","null","null","","180","200","260","200","36000","52000","[1,2]","","",""
"","canvas-keyboard-response","173","344396","0.0-6.0-6.23","520","","","","","clear_screen","null","null","","","catch","sh","l","sw","170","198","235","172","180","228","spektor","null","null","null","null","null","null","null","null","null","null","null","","180","200","260","200","36000","52000","[1,2]","","",""
"","canvas-keyboard-response","174","344597","0.0-6.0-0.24","520","","","","","pre trial waiting period","null","null","","","critical","t","c","d","164","240","240","164","154.6796","220.0396","trueblood","0.14","h","164","240","240","164","154.6796","220.0396","39360","39360","34035.6388","tc","null","null","null","null","null","null","[1,2]","435.38492290783984","500.1222164009957","461.2486243832946"
"","canvas-keyboard-response","175","344618","0.0-6.0-1.24","520","","","","","clear_screen","null","null","","","critical","t","c","d","164","240","240","164","154.6796","220.0396","trueblood","0.14","h","164","240","240","164","154.6796","220.0396","39360","39360","34035.6388","tc","null","null","null","null","null","null","[1,2]","435.38492290783984","500.1222164009957","461.2486243832946"
"","canvas-keyboard-response","176","345126","0.0-6.0-2.24","520","","","","","rectangles no change","null","null","","","critical","t","c","d","164","240","240","164","154.6796","220.0396","trueblood","0.14","h","164","240","240","164","154.6796","220.0396","39360","39360","34035.6388","tc","null","null","null","null","null","null","[1,2]","435.38492290783984","500.1222164009957","461.2486243832946"
"","canvas-keyboard-response","177","346467","0.0-6.0-3.24","520","","","","","rectangles with change","null","null","","","critical","t","c","d","164","240","240","164","154.6796","220.0396","trueblood","0.14","h","164","240","240","164","154.6796","220.0396","39360","39360","34035.6388","tc","null","null","null","null","null","null","[1,2]","435.38492290783984","500.1222164009957","461.2486243832946"
"","canvas-keyboard-response","178","346490","0.0-6.0-4.24","520","","","","","clear_screen","null","null","","","critical","t","c","d","164","240","240","164","154.6796","220.0396","trueblood","0.14","h","164","240","240","164","154.6796","220.0396","39360","39360","34035.6388","tc","null","null","null","null","null","null","[1,2]","435.38492290783984","500.1222164009957","461.2486243832946"
"","canvas-keyboard-response","179","346896","0.0-6.0-5.24","520","","","","","make choice","400","1","","","critical","t","c","d","164","240","240","164","154.6796","220.0396","trueblood","0.14","h","164","240","240","164","154.6796","220.0396","39360","39360","34035.6388","tc","null","null","null","null","null","null","[1,2]","","",""
"","canvas-keyboard-response","180","346916","0.0-6.0-6.24","520","","","","","clear_screen","null","null","","","critical","t","c","d","164","240","240","164","154.6796","220.0396","trueblood","0.14","h","164","240","240","164","154.6796","220.0396","39360","39360","34035.6388","tc","null","null","null","null","null","null","[1,2]","","",""
"","canvas-keyboard-response","181","347117","0.0-6.0-0.25","520","","","","","pre trial waiting period","null","null","","","critical","d","t","c","237.1485","162.6685","240","164","164","240","spektor","0.02","w","240","164","164","240","237.1485","162.6685","39360","39360","38576.5967","tc","null","null","null","null","null","null","[2,3]","539.8708751333968","174.33466546728891","492.2690151103792"
"","canvas-keyboard-response","182","347138","0.0-6.0-1.25","520","","","","","clear_screen","null","null","","","critical","d","t","c","237.1485","162.6685","240","164","164","240","spektor","0.02","w","240","164","164","240","237.1485","162.6685","39360","39360","38576.5967","tc","null","null","null","null","null","null","[2,3]","539.8708751333968","174.33466546728891","492.2690151103792"
"","canvas-keyboard-response","183","347645","0.0-6.0-2.25","520","","","","","rectangles no change","null","null","","","critical","d","t","c","237.1485","162.6685","240","164","164","240","spektor","0.02","w","240","164","164","240","237.1485","162.6685","39360","39360","38576.5967","tc","null","null","null","null","null","null","[2,3]","539.8708751333968","174.33466546728891","492.2690151103792"
"","canvas-keyboard-response","184","348984","0.0-6.0-3.25","520","","","","","rectangles with change","null","null","","","critical","d","t","c","237.1485","162.6685","240","164","164","240","spektor","0.02","w","240","164","164","240","237.1485","162.6685","39360","39360","38576.5967","tc","null","null","null","null","null","null","[2,3]","539.8708751333968","174.33466546728891","492.2690151103792"
"","canvas-keyboard-response","185","349007","0.0-6.0-4.25","520","","","","","clear_screen","null","null","","","critical","d","t","c","237.1485","162.6685","240","164","164","240","spektor","0.02","w","240","164","164","240","237.1485","162.6685","39360","39360","38576.5967","tc","null","null","null","null","null","null","[2,3]","539.8708751333968","174.33466546728891","492.2690151103792"
"","canvas-keyboard-response","186","349312","0.0-6.0-5.25","520","","","","","make choice","297","2","","","critical","d","t","c","237.1485","162.6685","240","164","164","240","spektor","0.02","w","240","164","164","240","237.1485","162.6685","39360","39360","38576.5967","tc","null","null","null","null","null","null","[2,3]","","",""
"","canvas-keyboard-response","187","349334","0.0-6.0-6.25","520","","","","","clear_screen","null","null","","","critical","d","t","c","237.1485","162.6685","240","164","164","240","spektor","0.02","w","240","164","164","240","237.1485","162.6685","39360","39360","38576.5967","tc","null","null","null","null","null","null","[2,3]","","",""
"","canvas-keyboard-response","188","349534","0.0-6.0-0.26","520","","","","","pre trial waiting period","null","null","","","critical","t","d","c","240","164","220.0396","154.6796","164","240","spektor","0.14","w","240","164","164","240","220.0396","154.6796","39360","39360","34035.6388","dc","null","null","null","null","null","null","[2,3]","513.3932362762132","212.22775459468025","459.4286525388396"
"","canvas-keyboard-response","189","349554","0.0-6.0-1.26","520","","","","","clear_screen","null","null","","","critical","t","d","c","240","164","220.0396","154.6796","164","240","spektor","0.14","w","240","164","164","240","220.0396","154.6796","39360","39360","34035.6388","dc","null","null","null","null","null","null","[2,3]","513.3932362762132","212.22775459468025","459.4286525388396"
"","canvas-keyboard-response","190","350063","0.0-6.0-2.26","520","","","","","rectangles no change","null","null","","","critical","t","d","c","240","164","220.0396","154.6796","164","240","spektor","0.14","w","240","164","164","240","220.0396","154.6796","39360","39360","34035.6388","dc","null","null","null","null","null","null","[2,3]","513.3932362762132","212.22775459468025","459.4286525388396"
"","canvas-keyboard-response","191","351402","0.0-6.0-3.26","520","","","","","rectangles with change","null","null","","","critical","t","d","c","240","164","220.0396","154.6796","164","240","spektor","0.14","w","240","164","164","240","220.0396","154.6796","39360","39360","34035.6388","dc","null","null","null","null","null","null","[2,3]","513.3932362762132","212.22775459468025","459.4286525388396"
"","canvas-keyboard-response","192","351424","0.0-6.0-4.26","520","","","","","clear_screen","null","null","","","critical","t","d","c","240","164","220.0396","154.6796","164","240","spektor","0.14","w","240","164","164","240","220.0396","154.6796","39360","39360","34035.6388","dc","null","null","null","null","null","null","[2,3]","513.3932362762132","212.22775459468025","459.4286525388396"
"","canvas-keyboard-response","193","351759","0.0-6.0-5.26","520","","","","","make choice","328","3","","","critical","t","d","c","240","164","220.0396","154.6796","164","240","spektor","0.14","w","240","164","164","240","220.0396","154.6796","39360","39360","34035.6388","dc","null","null","null","null","null","null","[2,3]","","",""
"","canvas-keyboard-response","194","351777","0.0-6.0-6.26","520","","","","","clear_screen","null","null","","","critical","t","d","c","240","164","220.0396","154.6796","164","240","spektor","0.14","w","240","164","164","240","220.0396","154.6796","39360","39360","34035.6388","dc","null","null","null","null","null","null","[2,3]","","",""
"","canvas-keyboard-response","195","351978","0.0-6.0-0.27","520","","","","","pre trial waiting period","null","null","","","critical","t","d","c","240","164","227.1683","158.0083","164","240","trueblood","0.09","w","240","164","164","240","227.1683","158.0083","39360","39360","35894.4834","dc","null","null","null","null","null","null","[2,3]","482.1526860128644","491.87067527215095","433.44003322175917"
"","canvas-keyboard-response","196","352000","0.0-6.0-1.27","520","","","","","clear_screen","null","null","","","critical","t","d","c","240","164","227.1683","158.0083","164","240","trueblood","0.09","w","240","164","164","240","227.1683","158.0083","39360","39360","35894.4834","dc","null","null","null","null","null","null","[2,3]","482.1526860128644","491.87067527215095","433.44003322175917"
"","canvas-keyboard-response","197","352512","0.0-6.0-2.27","520","","","","","rectangles no change","null","null","","","critical","t","d","c","240","164","227.1683","158.0083","164","240","trueblood","0.09","w","240","164","164","240","227.1683","158.0083","39360","39360","35894.4834","dc","null","null","null","null","null","null","[2,3]","482.1526860128644","491.87067527215095","433.44003322175917"
"","canvas-keyboard-response","198","353852","0.0-6.0-3.27","520","","","","","rectangles with change","null","null","","","critical","t","d","c","240","164","227.1683","158.0083","164","240","trueblood","0.09","w","240","164","164","240","227.1683","158.0083","39360","39360","35894.4834","dc","null","null","null","null","null","null","[2,3]","482.1526860128644","491.87067527215095","433.44003322175917"
"","canvas-keyboard-response","199","353871","0.0-6.0-4.27","520","","","","","clear_screen","null","null","","","critical","t","d","c","240","164","227.1683","158.0083","164","240","trueblood","0.09","w","240","164","164","240","227.1683","158.0083","39360","39360","35894.4834","dc","null","null","null","null","null","null","[2,3]","482.1526860128644","491.87067527215095","433.44003322175917"
"","canvas-keyboard-response","200","354424","0.0-6.0-5.27","520","","","","","make choice","544","3","","","critical","t","d","c","240","164","227.1683","158.0083","164","240","trueblood","0.09","w","240","164","164","240","227.1683","158.0083","39360","39360","35894.4834","dc","null","null","null","null","null","null","[2,3]","","",""
"","canvas-keyboard-response","201","354442","0.0-6.0-6.27","520","","","","","clear_screen","null","null","","","critical","t","d","c","240","164","227.1683","158.0083","164","240","trueblood","0.09","w","240","164","164","240","227.1683","158.0083","39360","39360","35894.4834","dc","null","null","null","null","null","null","[2,3]","","",""
"","canvas-keyboard-response","202","354643","0.0-6.0-0.28","520","","","","","pre trial waiting period","null","null","","","critical","c","t","d","164","240","240","164","232.8713","160.6713","spektor","0.05","w","240","164","164","240","232.8713","160.6713","39360","39360","37415.7294","tc","null","null","null","null","null","null","[2,1]","465.10731654668626","197.45912135746963","528.1649428808392"
"","canvas-keyboard-response","203","354662","0.0-6.0-1.28","520","","","","","clear_screen","null","null","","","critical","c","t","d","164","240","240","164","232.8713","160.6713","spektor","0.05","w","240","164","164","240","232.8713","160.6713","39360","39360","37415.7294","tc","null","null","null","null","null","null","[2,1]","465.10731654668626","197.45912135746963","528.1649428808392"
"","canvas-keyboard-response","204","355171","0.0-6.0-2.28","520","","","","","rectangles no change","null","null","","","critical","c","t","d","164","240","240","164","232.8713","160.6713","spektor","0.05","w","240","164","164","240","232.8713","160.6713","39360","39360","37415.7294","tc","null","null","null","null","null","null","[2,1]","465.10731654668626","197.45912135746963","528.1649428808392"
"","canvas-keyboard-response","205","356510","0.0-6.0-3.28","520","","","","","rectangles with change","null","null","","","critical","c","t","d","164","240","240","164","232.8713","160.6713","spektor","0.05","w","240","164","164","240","232.8713","160.6713","39360","39360","37415.7294","tc","null","null","null","null","null","null","[2,1]","465.10731654668626","197.45912135746963","528.1649428808392"
"","canvas-keyboard-response","206","356529","0.0-6.0-4.28","520","","","","","clear_screen","null","null","","","critical","c","t","d","164","240","240","164","232.8713","160.6713","spektor","0.05","w","240","164","164","240","232.8713","160.6713","39360","39360","37415.7294","tc","null","null","null","null","null","null","[2,1]","465.10731654668626","197.45912135746963","528.1649428808392"
"","canvas-keyboard-response","207","356840","0.0-6.0-5.28","520","","","","","make choice","304","1","","","critical","c","t","d","164","240","240","164","232.8713","160.6713","spektor","0.05","w","240","164","164","240","232.8713","160.6713","39360","39360","37415.7294","tc","null","null","null","null","null","null","[2,1]","","",""
"","canvas-keyboard-response","208","356859","0.0-6.0-6.28","520","","","","","clear_screen","null","null","","","critical","c","t","d","164","240","240","164","232.8713","160.6713","spektor","0.05","w","240","164","164","240","232.8713","160.6713","39360","39360","37415.7294","tc","null","null","null","null","null","null","[2,1]","","",""
"","canvas-keyboard-response","209","357060","0.0-6.0-0.29","520","","","","","pre trial waiting period","null","null","","","critical","c","d","t","240","164","164","240","164","240","spektor","0","h","164","240","240","164","164","240","39360","39360","39360","tc","null","null","null","null","null","null","[3,1]","504.25513437322576","104.5940153766778","473.56935981501755"
"","canvas-keyboard-response","210","357080","0.0-6.0-1.29","520","","","","","clear_screen","null","null","","","critical","c","d","t","240","164","164","240","164","240","spektor","0","h","164","240","240","164","164","240","39360","39360","39360","tc","null","null","null","null","null","null","[3,1]","504.25513437322576","104.5940153766778","473.56935981501755"
"","canvas-keyboard-response","211","357588","0.0-6.0-2.29","520","","","","","rectangles no change","null","null","","","critical","c","d","t","240","164","164","240","164","240","spektor","0","h","164","240","240","164","164","240","39360","39360","39360","tc","null","null","null","null","null","null","[3,1]","504.25513437322576","104.5940153766778","473.56935981501755"
"","canvas-keyboard-response","212","358928","0.0-6.0-3.29","520","","","","","rectangles with change","null","null","","","critical","c","d","t","240","164","164","240","164","240","spektor","0","h","164","240","240","164","164","240","39360","39360","39360","tc","null","null","null","null","null","null","[3,1]","504.25513437322576","104.5940153766778","473.56935981501755"
"","canvas-keyboard-response","213","358952","0.0-6.0-4.29","520","","","","","clear_screen","null","null","","","critical","c","d","t","240","164","164","240","164","240","spektor","0","h","164","240","240","164","164","240","39360","39360","39360","tc","null","null","null","null","null","null","[3,1]","504.25513437322576","104.5940153766778","473.56935981501755"
"","canvas-keyboard-response","214","359552","0.0-6.0-5.29","520","","","","","make choice","593","3","","","critical","c","d","t","240","164","164","240","164","240","spektor","0","h","164","240","240","164","164","240","39360","39360","39360","tc","null","null","null","null","null","null","[3,1]","","",""
"","canvas-keyboard-response","215","359573","0.0-6.0-6.29","520","","","","","clear_screen","null","null","","","critical","c","d","t","240","164","164","240","164","240","spektor","0","h","164","240","240","164","164","240","39360","39360","39360","tc","null","null","null","null","null","null","[3,1]","","",""
"","canvas-keyboard-response","216","359773","0.0-6.0-0.30","520","","","","","pre trial waiting period","null","null","","","catch","sw","l","sh","180","200","193","252","190","214","trueblood","null","null","null","null","null","null","null","null","null","null","null","","180","200","260","200","36000","52000","[2,3]","492.0127266395035","439.50189762229326","453.0138398666519"
"","canvas-keyboard-response","217","359793","0.0-6.0-1.30","520","","","","","clear_screen","null","null","","","catch","sw","l","sh","180","200","193","252","190","214","trueblood","null","null","null","null","null","null","null","null","null","null","null","","180","200","260","200","36000","52000","[2,3]","492.0127266395035","439.50189762229326","453.0138398666519"
"","canvas-keyboard-response","218","360300","0.0-6.0-2.30","520","","","","","rectangles no change","null","null","","","catch","sw","l","sh","180","200","193","252","190","214","trueblood","null","null","null","null","null","null","null","null","null","null","null","","180","200","260","200","36000","52000","[2,3]","492.0127266395035","439.50189762229326","453.0138398666519"
"","canvas-keyboard-response","219","361640","0.0-6.0-3.30","520","","","","","rectangles with change","null","null","","","catch","sw","l","sh","180","200","193","252","190","214","trueblood","null","null","null","null","null","null","null","null","null","null","null","","180","200","260","200","36000","52000","[2,3]","492.0127266395035","439.50189762229326","453.0138398666519"
"","canvas-keyboard-response","220","361661","0.0-6.0-4.30","520","","","","","clear_screen","null","null","","","catch","sw","l","sh","180","200","193","252","190","214","trueblood","null","null","null","null","null","null","null","null","null","null","null","","180","200","260","200","36000","52000","[2,3]","492.0127266395035","439.50189762229326","453.0138398666519"
"","canvas-keyboard-response","221","361928","0.0-6.0-5.30","520","","","","","make choice","261","2","","","catch","sw","l","sh","180","200","193","252","190","214","trueblood","null","null","null","null","null","null","null","null","null","null","null","","180","200","260","200","36000","52000","[2,3]","","",""
"","canvas-keyboard-response","222","361948","0.0-6.0-6.30","520","","","","","clear_screen","null","null","","","catch","sw","l","sh","180","200","193","252","190","214","trueblood","null","null","null","null","null","null","null","null","null","null","null","","180","200","260","200","36000","52000","[2,3]","","",""
"","canvas-keyboard-response","223","362149","0.0-6.0-0.31","520","","","","","pre trial waiting period","null","null","","","critical","t","c","d","240","164","164","240","227.1683","158.0083","trueblood","0.09","w","240","164","164","240","227.1683","158.0083","39360","39360","35894.4834","tc","null","null","null","null","null","null","[1,2]","514.3943216746737","465.78971528751975","520.1753143953424"
"","canvas-keyboard-response","224","362167","0.0-6.0-1.31","520","","","","","clear_screen","null","null","","","critical","t","c","d","240","164","164","240","227.1683","158.0083","trueblood","0.09","w","240","164","164","240","227.1683","158.0083","39360","39360","35894.4834","tc","null","null","null","null","null","null","[1,2]","514.3943216746737","465.78971528751975","520.1753143953424"
"","canvas-keyboard-response","225","362674","0.0-6.0-2.31","520","","","","","rectangles no change","null","null","","","critical","t","c","d","240","164","164","240","227.1683","158.0083","trueblood","0.09","w","240","164","164","240","227.1683","158.0083","39360","39360","35894.4834","tc","null","null","null","null","null","null","[1,2]","514.3943216746737","465.78971528751975","520.1753143953424"
"","canvas-keyboard-response","226","364010","0.0-6.0-3.31","520","","","","","rectangles with change","null","null","","","critical","t","c","d","240","164","164","240","227.1683","158.0083","trueblood","0.09","w","240","164","164","240","227.1683","158.0083","39360","39360","35894.4834","tc","null","null","null","null","null","null","[1,2]","514.3943216746737","465.78971528751975","520.1753143953424"
"","canvas-keyboard-response","227","364032","0.0-6.0-4.31","520","","","","","clear_screen","null","null","","","critical","t","c","d","240","164","164","240","227.1683","158.0083","trueblood","0.09","w","240","164","164","240","227.1683","158.0083","39360","39360","35894.4834","tc","null","null","null","null","null","null","[1,2]","514.3943216746737","465.78971528751975","520.1753143953424"
"","canvas-keyboard-response","228","364311","0.0-6.0-5.31","520","","","","","make choice","274","1","","","critical","t","c","d","240","164","164","240","227.1683","158.0083","trueblood","0.09","w","240","164","164","240","227.1683","158.0083","39360","39360","35894.4834","tc","null","null","null","null","null","null","[1,2]","","",""
"","canvas-keyboard-response","229","364328","0.0-6.0-6.31","520","","","","","clear_screen","null","null","","","critical","t","c","d","240","164","164","240","227.1683","158.0083","trueblood","0.09","w","240","164","164","240","227.1683","158.0083","39360","39360","35894.4834","tc","null","null","null","null","null","null","[1,2]","","",""
"","canvas-keyboard-response","230","364529","0.0-6.0-0.32","520","","","","","pre trial waiting period","null","null","","","catch","sh","l","sw","162","157","195","291","187","212","trueblood","null","null","null","null","null","null","null","null","null","null","null","","180","200","260","200","36000","52000","[2,3]","505.083257007299","411.33075569515415","471.301413649781"
"","canvas-keyboard-response","231","364547","0.0-6.0-1.32","520","","","","","clear_screen","null","null","","","catch","sh","l","sw","162","157","195","291","187","212","trueblood","null","null","null","null","null","null","null","null","null","null","null","","180","200","260","200","36000","52000","[2,3]","505.083257007299","411.33075569515415","471.301413649781"
"","canvas-keyboard-response","232","365055","0.0-6.0-2.32","520","","","","","rectangles no change","null","null","","","catch","sh","l","sw","162","157","195","291","187","212","trueblood","null","null","null","null","null","null","null","null","null","null","null","","180","200","260","200","36000","52000","[2,3]","505.083257007299","411.33075569515415","471.301413649781"
"","canvas-keyboard-response","233","366392","0.0-6.0-3.32","520","","","","","rectangles with change","null","null","","","catch","sh","l","sw","162","157","195","291","187","212","trueblood","null","null","null","null","null","null","null","null","null","null","null","","180","200","260","200","36000","52000","[2,3]","505.083257007299","411.33075569515415","471.301413649781"
"","canvas-keyboard-response","234","366412","0.0-6.0-4.32","520","","","","","clear_screen","null","null","","","catch","sh","l","sw","162","157","195","291","187","212","trueblood","null","null","null","null","null","null","null","null","null","null","null","","180","200","260","200","36000","52000","[2,3]","505.083257007299","411.33075569515415","471.301413649781"
"","canvas-keyboard-response","235","366712","0.0-6.0-5.32","520","","","","","make choice","292","2","","","catch","sh","l","sw","162","157","195","291","187","212","trueblood","null","null","null","null","null","null","null","null","null","null","null","","180","200","260","200","36000","52000","[2,3]","","",""
"","canvas-keyboard-response","236","366730","0.0-6.0-6.32","520","","","","","clear_screen","null","null","","","catch","sh","l","sw","162","157","195","291","187","212","trueblood","null","null","null","null","null","null","null","null","null","null","null","","180","200","260","200","36000","52000","[2,3]","","",""
"","canvas-keyboard-response","237","366931","0.0-6.0-0.33","520","","","","","pre trial waiting period","null","null","","","catch","l","sw","sh","254","188","169","189","178","219","trueblood","null","null","null","null","null","null","null","null","null","null","null","","180","200","260","200","36000","52000","[1,3]","488.1434872339253","460.3331832093523","437.64376561107"
"","canvas-keyboard-response","238","366953","0.0-6.0-1.33","520","","","","","clear_screen","null","null","","","catch","l","sw","sh","254","188","169","189","178","219","trueblood","null","null","null","null","null","null","null","null","null","null","null","","180","200","260","200","36000","52000","[1,3]","488.1434872339253","460.3331832093523","437.64376561107"
"","canvas-keyboard-response","239","367462","0.0-6.0-2.33","520","","","","","rectangles no change","null","null","","","catch","l","sw","sh","254","188","169","189","178","219","trueblood","null","null","null","null","null","null","null","null","null","null","null","","180","200","260","200","36000","52000","[1,3]","488.1434872339253","460.3331832093523","437.64376561107"
"","canvas-keyboard-response","240","368796","0.0-6.0-3.33","520","","","","","rectangles with change","null","null","","","catch","l","sw","sh","254","188","169","189","178","219","trueblood","null","null","null","null","null","null","null","null","null","null","null","","180","200","260","200","36000","52000","[1,3]","488.1434872339253","460.3331832093523","437.64376561107"
"","canvas-keyboard-response","241","368819","0.0-6.0-4.33","520","","","","","clear_screen","null","null","","","catch","l","sw","sh","254","188","169","189","178","219","trueblood","null","null","null","null","null","null","null","null","null","null","null","","180","200","260","200","36000","52000","[1,3]","488.1434872339253","460.3331832093523","437.64376561107"
"","canvas-keyboard-response","242","369328","0.0-6.0-5.33","520","","","","","make choice","500","1","","","catch","l","sw","sh","254","188","169","189","178","219","trueblood","null","null","null","null","null","null","null","null","null","null","null","","180","200","260","200","36000","52000","[1,3]","","",""
"","canvas-keyboard-response","243","369345","0.0-6.0-6.33","520","","","","","clear_screen","null","null","","","catch","l","sw","sh","254","188","169","189","178","219","trueblood","null","null","null","null","null","null","null","null","null","null","null","","180","200","260","200","36000","52000","[1,3]","","",""
"","canvas-keyboard-response","244","369546","0.0-6.0-0.34","520","","","","","pre trial waiting period","null","null","","","catch","sh","sw","l","212","207","166","203","284","205","trueblood","null","null","null","null","null","null","null","null","null","null","null","","180","200","260","200","36000","52000","[2,3]","441.6823537451098","459.9322508563384","464.09433267611126"
"","canvas-keyboard-response","245","369569","0.0-6.0-1.34","520","","","","","clear_screen","null","null","","","catch","sh","sw","l","212","207","166","203","284","205","trueblood","null","null","null","null","null","null","null","null","null","null","null","","180","200","260","200","36000","52000","[2,3]","441.6823537451098","459.9322508563384","464.09433267611126"
"","canvas-keyboard-response","246","370076","0.0-6.0-2.34","520","","","","","rectangles no change","null","null","","","catch","sh","sw","l","212","207","166","203","284","205","trueblood","null","null","null","null","null","null","null","null","null","null","null","","180","200","260","200","36000","52000","[2,3]","441.6823537451098","459.9322508563384","464.09433267611126"
"","canvas-keyboard-response","247","371411","0.0-6.0-3.34","520","","","","","rectangles with change","null","null","","","catch","sh","sw","l","212","207","166","203","284","205","trueblood","null","null","null","null","null","null","null","null","null","null","null","","180","200","260","200","36000","52000","[2,3]","441.6823537451098","459.9322508563384","464.09433267611126"
"","canvas-keyboard-response","248","371434","0.0-6.0-4.34","520","","","","","clear_screen","null","null","","","catch","sh","sw","l","212","207","166","203","284","205","trueblood","null","null","null","null","null","null","null","null","null","null","null","","180","200","260","200","36000","52000","[2,3]","441.6823537451098","459.9322508563384","464.09433267611126"
"","canvas-keyboard-response","249","371830","0.0-6.0-5.34","520","","","","","make choice","391","3","","","catch","sh","sw","l","212","207","166","203","284","205","trueblood","null","null","null","null","null","null","null","null","null","null","null","","180","200","260","200","36000","52000","[2,3]","","",""
"","canvas-keyboard-response","250","371846","0.0-6.0-6.34","520","","","","","clear_screen","null","null","","","catch","sh","sw","l","212","207","166","203","284","205","trueblood","null","null","null","null","null","null","null","null","null","null","null","","180","200","260","200","36000","52000","[2,3]","","",""
"","canvas-keyboard-response","251","372047","0.0-6.0-0.35","520","","","","","pre trial waiting period","null","null","","","critical","c","d","t","240","164","162.6685","237.1485","164","240","trueblood","0.02","h","164","240","240","164","162.6685","237.1485","39360","39360","38576.5967","dc","null","null","null","null","null","null","[2,1]","492.6536145677816","457.475761779894","463.9595218685224"
"","canvas-keyboard-response","252","372070","0.0-6.0-1.35","520","","","","","clear_screen","null","null","","","critical","c","d","t","240","164","162.6685","237.1485","164","240","trueblood","0.02","h","164","240","240","164","162.6685","237.1485","39360","39360","38576.5967","dc","null","null","null","null","null","null","[2,1]","492.6536145677816","457.475761779894","463.9595218685224"
"","canvas-keyboard-response","253","372577","0.0-6.0-2.35","520","","","","","rectangles no change","null","null","","","critical","c","d","t","240","164","162.6685","237.1485","164","240","trueblood","0.02","h","164","240","240","164","162.6685","237.1485","39360","39360","38576.5967","dc","null","null","null","null","null","null","[2,1]","492.6536145677816","457.475761779894","463.9595218685224"
"","canvas-keyboard-response","254","373913","0.0-6.0-3.35","520","","","","","rectangles with change","null","null","","","critical","c","d","t","240","164","162.6685","237.1485","164","240","trueblood","0.02","h","164","240","240","164","162.6685","237.1485","39360","39360","38576.5967","dc","null","null","null","null","null","null","[2,1]","492.6536145677816","457.475761779894","463.9595218685224"
"","canvas-keyboard-response","255","373936","0.0-6.0-4.35","520","","","","","clear_screen","null","null","","","critical","c","d","t","240","164","162.6685","237.1485","164","240","trueblood","0.02","h","164","240","240","164","162.6685","237.1485","39360","39360","38576.5967","dc","null","null","null","null","null","null","[2,1]","492.6536145677816","457.475761779894","463.9595218685224"
"","canvas-keyboard-response","256","374344","0.0-6.0-5.35","520","","","","","make choice","401","1","","","critical","c","d","t","240","164","162.6685","237.1485","164","240","trueblood","0.02","h","164","240","240","164","162.6685","237.1485","39360","39360","38576.5967","dc","null","null","null","null","null","null","[2,1]","","",""
"","canvas-keyboard-response","257","374361","0.0-6.0-6.35","520","","","","","clear_screen","null","null","","","critical","c","d","t","240","164","162.6685","237.1485","164","240","trueblood","0.02","h","164","240","240","164","162.6685","237.1485","39360","39360","38576.5967","dc","null","null","null","null","null","null","[2,1]","","",""
"","canvas-keyboard-response","258","374562","0.0-6.0-0.36","520","","","","","pre trial waiting period","null","null","","","critical","t","c","d","164","240","240","164","164","240","trueblood","0","h","164","240","240","164","164","240","39360","39360","39360","dc","null","null","null","null","null","null","[3,2]","431.3965045653061","491.5827503074208","452.4180204394545"
"","canvas-keyboard-response","259","374582","0.0-6.0-1.36","520","","","","","clear_screen","null","null","","","critical","t","c","d","164","240","240","164","164","240","trueblood","0","h","164","240","240","164","164","240","39360","39360","39360","dc","null","null","null","null","null","null","[3,2]","431.3965045653061","491.5827503074208","452.4180204394545"
"","canvas-keyboard-response","260","375088","0.0-6.0-2.36","520","","","","","rectangles no change","null","null","","","critical","t","c","d","164","240","240","164","164","240","trueblood","0","h","164","240","240","164","164","240","39360","39360","39360","dc","null","null","null","null","null","null","[3,2]","431.3965045653061","491.5827503074208","452.4180204394545"
"","canvas-keyboard-response","261","376428","0.0-6.0-3.36","520","","","","","rectangles with change","null","null","","","critical","t","c","d","164","240","240","164","164","240","trueblood","0","h","164","240","240","164","164","240","39360","39360","39360","dc","null","null","null","null","null","null","[3,2]","431.3965045653061","491.5827503074208","452.4180204394545"
"","canvas-keyboard-response","262","376451","0.0-6.0-4.36","520","","","","","clear_screen","null","null","","","critical","t","c","d","164","240","240","164","164","240","trueblood","0","h","164","240","240","164","164","240","39360","39360","39360","dc","null","null","null","null","null","null","[3,2]","431.3965045653061","491.5827503074208","452.4180204394545"
"","canvas-keyboard-response","263","376808","0.0-6.0-5.36","520","","","","","make choice","352","2","","","critical","t","c","d","164","240","240","164","164","240","trueblood","0","h","164","240","240","164","164","240","39360","39360","39360","dc","null","null","null","null","null","null","[3,2]","","",""
"","canvas-keyboard-response","264","376829","0.0-6.0-6.36","520","","","","","clear_screen","null","null","","","critical","t","c","d","164","240","240","164","164","240","trueblood","0","h","164","240","240","164","164","240","39360","39360","39360","dc","null","null","null","null","null","null","[3,2]","","",""
