"success","trial_type","trial_index","time_elapsed","internal_node_id","sub_n","timeout","failed_images","failed_audio","failed_video","screen_id","rt","response","stimulus","view_history","trial","r1","r2","r3","w1","h1","w2","h2","w3","h3","display","tdd","tdo","tw","th","cw","ch","dw","dh","ta","ca","da","probe","csls","csss","clls","clss","sa","la","probe_rects","r1yloc","r2yloc","r3yloc"
"true","fullscreen","0","3376","0.0-0.0","532","","","","","","","","","","","","","","","","","","","","","","","","","","","","","","","","","","","","","","","","","",""
"true","preload","1","3408","0.0-1.0","532","false","[]","[]","[]","img preload","","","","","","","","","","","","","","","","","","","","","","","","","","","","","","","","","","","","",""
"","survey-html-form","2","12786","0.0-2.0","532","","","","","enter-sub-number","9358","{""response"":""532""}","","","","","","","","","","","","","","","","","","","","","","","","","","","","","","","","","","",""
"","image-button-response","3","19356","0.0-3.0","532","","","","","","6466","0","consent.png","","","","","","","","","","","","","","","","","","","","","","","","","","","","","","","","","",""
"","html-button-response","4","47732","0.0-4.0","532","","","","","intro mssg","28370","0","<div style= ""font-size:25px;"" <p> <strong> Welcome! </strong><br> <p style=""color:#8B0000; font-size:25px;""><strong> Please do NOT exit full screen until you are done with the experiment. </strong> </p><p style=""font-size:25px;color:#8B0000;""> <strong> Your data will be lost <br> if you try to go back or refresh the page after the experiment starts. Feel free to click ""previous"" during the instructions, however.</strong> </p><br><p> <strong> Thanks in advance for your contribution to our research! </strong></p>","","","","","","","","","","","","","","","","","","","","","","","","","","","","","","","","","",""
"","instructions","5","89132","0.0-5.0","532","","","","","instructions","41395","","","[{""page_index"":0,""viewing_time"":14307},{""page_index"":1,""viewing_time"":4832},{""page_index"":2,""viewing_time"":3016},{""page_index"":3,""viewing_time"":7848},{""page_index"":4,""viewing_time"":6400},{""page_index"":5,""viewing_time"":1912},{""page_index"":6,""viewing_time"":2016},{""page_index"":7,""viewing_time"":1064}]","","","","","","","","","","","","","","","","","","","","","","","","","","","","","","","","",""
"","canvas-keyboard-response","6","89337","0.0-6.0-0.0","532","","","","","pre trial waiting period","null","null","","","catch","l","sw","sh","295","161","184","214","229","197","trueblood","null","null","null","null","null","null","null","null","null","null","null","","180","200","260","200","36000","52000","[1,3]","511.85811119796904","476.23487019709086","468.3928733431338"
"","canvas-keyboard-response","7","89364","0.0-6.0-1.0","532","","","","","clear_screen","null","null","","","catch","l","sw","sh","295","161","184","214","229","197","trueblood","null","null","null","null","null","null","null","null","null","null","null","","180","200","260","200","36000","52000","[1,3]","511.85811119796904","476.23487019709086","468.3928733431338"
"","canvas-keyboard-response","8","89883","0.0-6.0-2.0","532","","","","","rectangles no change","null","null","","","catch","l","sw","sh","295","161","184","214","229","197","trueblood","null","null","null","null","null","null","null","null","null","null","null","","180","200","260","200","36000","52000","[1,3]","511.85811119796904","476.23487019709086","468.3928733431338"
"","canvas-keyboard-response","9","91221","0.0-6.0-3.0","532","","","","","rectangles with change","null","null","","","catch","l","sw","sh","295","161","184","214","229","197","trueblood","null","null","null","null","null","null","null","null","null","null","null","","180","200","260","200","36000","52000","[1,3]","511.85811119796904","476.23487019709086","468.3928733431338"
"","canvas-keyboard-response","10","91241","0.0-6.0-4.0","532","","","","","clear_screen","null","null","","","catch","l","sw","sh","295","161","184","214","229","197","trueblood","null","null","null","null","null","null","null","null","null","null","null","","180","200","260","200","36000","52000","[1,3]","511.85811119796904","476.23487019709086","468.3928733431338"
"","canvas-keyboard-response","11","92882","0.0-6.0-5.0","532","","","","","make choice","1629","1","","","catch","l","sw","sh","295","161","184","214","229","197","trueblood","null","null","null","null","null","null","null","null","null","null","null","","180","200","260","200","36000","52000","[1,3]","","",""
"","canvas-keyboard-response","12","92901","0.0-6.0-6.0","532","","","","","clear_screen","null","null","","","catch","l","sw","sh","295","161","184","214","229","197","trueblood","null","null","null","null","null","null","null","null","null","null","null","","180","200","260","200","36000","52000","[1,3]","","",""
"","canvas-keyboard-response","13","93102","0.0-6.0-0.1","532","","","","","pre trial waiting period","null","null","","","critical","d","t","c","237.1485","162.6685","240","164","164","240","trueblood","0.02","w","240","164","164","240","237.1485","162.6685","39360","39360","38576.5967","td","null","null","null","null","null","null","[2,1]","510.2420447437319","472.6823503775455","461.45253197433567"
"","canvas-keyboard-response","14","93122","0.0-6.0-1.1","532","","","","","clear_screen","null","null","","","critical","d","t","c","237.1485","162.6685","240","164","164","240","trueblood","0.02","w","240","164","164","240","237.1485","162.6685","39360","39360","38576.5967","td","null","null","null","null","null","null","[2,1]","510.2420447437319","472.6823503775455","461.45253197433567"
"","canvas-keyboard-response","15","93633","0.0-6.0-2.1","532","","","","","rectangles no change","null","null","","","critical","d","t","c","237.1485","162.6685","240","164","164","240","trueblood","0.02","w","240","164","164","240","237.1485","162.6685","39360","39360","38576.5967","td","null","null","null","null","null","null","[2,1]","510.2420447437319","472.6823503775455","461.45253197433567"
"","canvas-keyboard-response","16","94969","0.0-6.0-3.1","532","","","","","rectangles with change","null","null","","","critical","d","t","c","237.1485","162.6685","240","164","164","240","trueblood","0.02","w","240","164","164","240","237.1485","162.6685","39360","39360","38576.5967","td","null","null","null","null","null","null","[2,1]","510.2420447437319","472.6823503775455","461.45253197433567"
"","canvas-keyboard-response","17","94993","0.0-6.0-4.1","532","","","","","clear_screen","null","null","","","critical","d","t","c","237.1485","162.6685","240","164","164","240","trueblood","0.02","w","240","164","164","240","237.1485","162.6685","39360","39360","38576.5967","td","null","null","null","null","null","null","[2,1]","510.2420447437319","472.6823503775455","461.45253197433567"
"","canvas-keyboard-response","18","98121","0.0-6.0-5.1","532","","","","","make choice","3115","2","","","critical","d","t","c","237.1485","162.6685","240","164","164","240","trueblood","0.02","w","240","164","164","240","237.1485","162.6685","39360","39360","38576.5967","td","null","null","null","null","null","null","[2,1]","","",""
"","canvas-keyboard-response","19","98140","0.0-6.0-6.1","532","","","","","clear_screen","null","null","","","critical","d","t","c","237.1485","162.6685","240","164","164","240","trueblood","0.02","w","240","164","164","240","237.1485","162.6685","39360","39360","38576.5967","td","null","null","null","null","null","null","[2,1]","","",""
"","canvas-keyboard-response","20","98341","0.0-6.0-0.2","532","","","","","pre trial waiting period","null","null","","","critical","t","d","c","240","164","227.1683","158.0083","164","240","trueblood","0.09","w","240","164","164","240","227.1683","158.0083","39360","39360","35894.4834","dc","null","null","null","null","null","null","[2,3]","512.5263743307481","499.81770174342427","424.43787005785236"
"","canvas-keyboard-response","21","98362","0.0-6.0-1.2","532","","","","","clear_screen","null","null","","","critical","t","d","c","240","164","227.1683","158.0083","164","240","trueblood","0.09","w","240","164","164","240","227.1683","158.0083","39360","39360","35894.4834","dc","null","null","null","null","null","null","[2,3]","512.5263743307481","499.81770174342427","424.43787005785236"
"","canvas-keyboard-response","22","98874","0.0-6.0-2.2","532","","","","","rectangles no change","null","null","","","critical","t","d","c","240","164","227.1683","158.0083","164","240","trueblood","0.09","w","240","164","164","240","227.1683","158.0083","39360","39360","35894.4834","dc","null","null","null","null","null","null","[2,3]","512.5263743307481","499.81770174342427","424.43787005785236"
"","canvas-keyboard-response","23","100209","0.0-6.0-3.2","532","","","","","rectangles with change","null","null","","","critical","t","d","c","240","164","227.1683","158.0083","164","240","trueblood","0.09","w","240","164","164","240","227.1683","158.0083","39360","39360","35894.4834","dc","null","null","null","null","null","null","[2,3]","512.5263743307481","499.81770174342427","424.43787005785236"
"","canvas-keyboard-response","24","100230","0.0-6.0-4.2","532","","","","","clear_screen","null","null","","","critical","t","d","c","240","164","227.1683","158.0083","164","240","trueblood","0.09","w","240","164","164","240","227.1683","158.0083","39360","39360","35894.4834","dc","null","null","null","null","null","null","[2,3]","512.5263743307481","499.81770174342427","424.43787005785236"
"","canvas-keyboard-response","25","101033","0.0-6.0-5.2","532","","","","","make choice","794","3","","","critical","t","d","c","240","164","227.1683","158.0083","164","240","trueblood","0.09","w","240","164","164","240","227.1683","158.0083","39360","39360","35894.4834","dc","null","null","null","null","null","null","[2,3]","","",""
"","canvas-keyboard-response","26","101052","0.0-6.0-6.2","532","","","","","clear_screen","null","null","","","critical","t","d","c","240","164","227.1683","158.0083","164","240","trueblood","0.09","w","240","164","164","240","227.1683","158.0083","39360","39360","35894.4834","dc","null","null","null","null","null","null","[2,3]","","",""
"","canvas-keyboard-response","27","101253","0.0-6.0-0.3","532","","","","","pre trial waiting period","null","null","","","catch","l","sh","sw","297","190","169","155","202","204","trueblood","null","null","null","null","null","null","null","null","null","null","null","","180","200","260","200","36000","52000","[1,2]","464.1603553717505","500.26344688131434","491.28633565169326"
"","canvas-keyboard-response","28","101272","0.0-6.0-1.3","532","","","","","clear_screen","null","null","","","catch","l","sh","sw","297","190","169","155","202","204","trueblood","null","null","null","null","null","null","null","null","null","null","null","","180","200","260","200","36000","52000","[1,2]","464.1603553717505","500.26344688131434","491.28633565169326"
"","canvas-keyboard-response","29","101784","0.0-6.0-2.3","532","","","","","rectangles no change","null","null","","","catch","l","sh","sw","297","190","169","155","202","204","trueblood","null","null","null","null","null","null","null","null","null","null","null","","180","200","260","200","36000","52000","[1,2]","464.1603553717505","500.26344688131434","491.28633565169326"
"","canvas-keyboard-response","30","103119","0.0-6.0-3.3","532","","","","","rectangles with change","null","null","","","catch","l","sh","sw","297","190","169","155","202","204","trueblood","null","null","null","null","null","null","null","null","null","null","null","","180","200","260","200","36000","52000","[1,2]","464.1603553717505","500.26344688131434","491.28633565169326"
"","canvas-keyboard-response","31","103139","0.0-6.0-4.3","532","","","","","clear_screen","null","null","","","catch","l","sh","sw","297","190","169","155","202","204","trueblood","null","null","null","null","null","null","null","null","null","null","null","","180","200","260","200","36000","52000","[1,2]","464.1603553717505","500.26344688131434","491.28633565169326"
"","canvas-keyboard-response","32","103721","0.0-6.0-5.3","532","","","","","make choice","576","1","","","catch","l","sh","sw","297","190","169","155","202","204","trueblood","null","null","null","null","null","null","null","null","null","null","null","","180","200","260","200","36000","52000","[1,2]","","",""
"","canvas-keyboard-response","33","103739","0.0-6.0-6.3","532","","","","","clear_screen","null","null","","","catch","l","sh","sw","297","190","169","155","202","204","trueblood","null","null","null","null","null","null","null","null","null","null","null","","180","200","260","200","36000","52000","[1,2]","","",""
"","canvas-keyboard-response","34","103940","0.0-6.0-0.4","532","","","","","pre trial waiting period","null","null","","","critical","t","c","d","164","240","240","164","154.6796","220.0396","trueblood","0.14","h","164","240","240","164","154.6796","220.0396","39360","39360","34035.6388","dc","null","null","null","null","null","null","[3,2]","453.77208813374875","498.2980281936048","466.6436796687094"
"","canvas-keyboard-response","35","103960","0.0-6.0-1.4","532","","","","","clear_screen","null","null","","","critical","t","c","d","164","240","240","164","154.6796","220.0396","trueblood","0.14","h","164","240","240","164","154.6796","220.0396","39360","39360","34035.6388","dc","null","null","null","null","null","null","[3,2]","453.77208813374875","498.2980281936048","466.6436796687094"
"","canvas-keyboard-response","36","104473","0.0-6.0-2.4","532","","","","","rectangles no change","null","null","","","critical","t","c","d","164","240","240","164","154.6796","220.0396","trueblood","0.14","h","164","240","240","164","154.6796","220.0396","39360","39360","34035.6388","dc","null","null","null","null","null","null","[3,2]","453.77208813374875","498.2980281936048","466.6436796687094"
"","canvas-keyboard-response","37","105808","0.0-6.0-3.4","532","","","","","rectangles with change","null","null","","","critical","t","c","d","164","240","240","164","154.6796","220.0396","trueblood","0.14","h","164","240","240","164","154.6796","220.0396","39360","39360","34035.6388","dc","null","null","null","null","null","null","[3,2]","453.77208813374875","498.2980281936048","466.6436796687094"
"","canvas-keyboard-response","38","105827","0.0-6.0-4.4","532","","","","","clear_screen","null","null","","","critical","t","c","d","164","240","240","164","154.6796","220.0396","trueblood","0.14","h","164","240","240","164","154.6796","220.0396","39360","39360","34035.6388","dc","null","null","null","null","null","null","[3,2]","453.77208813374875","498.2980281936048","466.6436796687094"
"","canvas-keyboard-response","39","106665","0.0-6.0-5.4","532","","","","","make choice","831","2","","","critical","t","c","d","164","240","240","164","154.6796","220.0396","trueblood","0.14","h","164","240","240","164","154.6796","220.0396","39360","39360","34035.6388","dc","null","null","null","null","null","null","[3,2]","","",""
"","canvas-keyboard-response","40","106688","0.0-6.0-6.4","532","","","","","clear_screen","null","null","","","critical","t","c","d","164","240","240","164","154.6796","220.0396","trueblood","0.14","h","164","240","240","164","154.6796","220.0396","39360","39360","34035.6388","dc","null","null","null","null","null","null","[3,2]","","",""
"","canvas-keyboard-response","41","106892","0.0-6.0-0.5","532","","","","","pre trial waiting period","null","null","","","catch","l","sw","sh","185","234","156","188","208","209","spektor","null","null","null","null","null","null","null","null","null","null","null","","180","200","260","200","36000","52000","[1,2]","465.29022566251064","173.10762581227763","513.0018516735172"
"","canvas-keyboard-response","42","106912","0.0-6.0-1.5","532","","","","","clear_screen","null","null","","","catch","l","sw","sh","185","234","156","188","208","209","spektor","null","null","null","null","null","null","null","null","null","null","null","","180","200","260","200","36000","52000","[1,2]","465.29022566251064","173.10762581227763","513.0018516735172"
"","canvas-keyboard-response","43","107425","0.0-6.0-2.5","532","","","","","rectangles no change","null","null","","","catch","l","sw","sh","185","234","156","188","208","209","spektor","null","null","null","null","null","null","null","null","null","null","null","","180","200","260","200","36000","52000","[1,2]","465.29022566251064","173.10762581227763","513.0018516735172"
"","canvas-keyboard-response","44","108761","0.0-6.0-3.5","532","","","","","rectangles with change","null","null","","","catch","l","sw","sh","185","234","156","188","208","209","spektor","null","null","null","null","null","null","null","null","null","null","null","","180","200","260","200","36000","52000","[1,2]","465.29022566251064","173.10762581227763","513.0018516735172"
"","canvas-keyboard-response","45","108783","0.0-6.0-4.5","532","","","","","clear_screen","null","null","","","catch","l","sw","sh","185","234","156","188","208","209","spektor","null","null","null","null","null","null","null","null","null","null","null","","180","200","260","200","36000","52000","[1,2]","465.29022566251064","173.10762581227763","513.0018516735172"
"","canvas-keyboard-response","46","110361","0.0-6.0-5.5","532","","","","","make choice","1567","1","","","catch","l","sw","sh","185","234","156","188","208","209","spektor","null","null","null","null","null","null","null","null","null","null","null","","180","200","260","200","36000","52000","[1,2]","","",""
"","canvas-keyboard-response","47","110380","0.0-6.0-6.5","532","","","","","clear_screen","null","null","","","catch","l","sw","sh","185","234","156","188","208","209","spektor","null","null","null","null","null","null","null","null","null","null","null","","180","200","260","200","36000","52000","[1,2]","","",""
"","canvas-keyboard-response","48","110582","0.0-6.0-0.6","532","","","","","pre trial waiting period","null","null","","","critical","c","t","d","240","164","164","240","164","240","trueblood","0","h","164","240","240","164","164","240","39360","39360","39360","tc","null","null","null","null","null","null","[2,1]","504.9147212978143","434.67082968537665","455.93986134860324"
"","canvas-keyboard-response","49","110600","0.0-6.0-1.6","532","","","","","clear_screen","null","null","","","critical","c","t","d","240","164","164","240","164","240","trueblood","0","h","164","240","240","164","164","240","39360","39360","39360","tc","null","null","null","null","null","null","[2,1]","504.9147212978143","434.67082968537665","455.93986134860324"
"","canvas-keyboard-response","50","111114","0.0-6.0-2.6","532","","","","","rectangles no change","null","null","","","critical","c","t","d","240","164","164","240","164","240","trueblood","0","h","164","240","240","164","164","240","39360","39360","39360","tc","null","null","null","null","null","null","[2,1]","504.9147212978143","434.67082968537665","455.93986134860324"
"","canvas-keyboard-response","51","112449","0.0-6.0-3.6","532","","","","","rectangles with change","null","null","","","critical","c","t","d","240","164","164","240","164","240","trueblood","0","h","164","240","240","164","164","240","39360","39360","39360","tc","null","null","null","null","null","null","[2,1]","504.9147212978143","434.67082968537665","455.93986134860324"
"","canvas-keyboard-response","52","112468","0.0-6.0-4.6","532","","","","","clear_screen","null","null","","","critical","c","t","d","240","164","164","240","164","240","trueblood","0","h","164","240","240","164","164","240","39360","39360","39360","tc","null","null","null","null","null","null","[2,1]","504.9147212978143","434.67082968537665","455.93986134860324"
"","canvas-keyboard-response","53","113386","0.0-6.0-5.6","532","","","","","make choice","909","1","","","critical","c","t","d","240","164","164","240","164","240","trueblood","0","h","164","240","240","164","164","240","39360","39360","39360","tc","null","null","null","null","null","null","[2,1]","","",""
"","canvas-keyboard-response","54","113406","0.0-6.0-6.6","532","","","","","clear_screen","null","null","","","critical","c","t","d","240","164","164","240","164","240","trueblood","0","h","164","240","240","164","164","240","39360","39360","39360","tc","null","null","null","null","null","null","[2,1]","","",""
"","canvas-keyboard-response","55","113609","0.0-6.0-0.7","532","","","","","pre trial waiting period","null","null","","","critical","c","t","d","240","164","164","240","154.6796","220.0396","trueblood","0.14","h","164","240","240","164","154.6796","220.0396","39360","39360","34035.6388","td","null","null","null","null","null","null","[2,3]","471.6012055502301","441.0324740298231","459.294653402822"
"","canvas-keyboard-response","56","113631","0.0-6.0-1.7","532","","","","","clear_screen","null","null","","","critical","c","t","d","240","164","164","240","154.6796","220.0396","trueblood","0.14","h","164","240","240","164","154.6796","220.0396","39360","39360","34035.6388","td","null","null","null","null","null","null","[2,3]","471.6012055502301","441.0324740298231","459.294653402822"
"","canvas-keyboard-response","57","114143","0.0-6.0-2.7","532","","","","","rectangles no change","null","null","","","critical","c","t","d","240","164","164","240","154.6796","220.0396","trueblood","0.14","h","164","240","240","164","154.6796","220.0396","39360","39360","34035.6388","td","null","null","null","null","null","null","[2,3]","471.6012055502301","441.0324740298231","459.294653402822"
"","canvas-keyboard-response","58","115479","0.0-6.0-3.7","532","","","","","rectangles with change","null","null","","","critical","c","t","d","240","164","164","240","154.6796","220.0396","trueblood","0.14","h","164","240","240","164","154.6796","220.0396","39360","39360","34035.6388","td","null","null","null","null","null","null","[2,3]","471.6012055502301","441.0324740298231","459.294653402822"
"","canvas-keyboard-response","59","115498","0.0-6.0-4.7","532","","","","","clear_screen","null","null","","","critical","c","t","d","240","164","164","240","154.6796","220.0396","trueblood","0.14","h","164","240","240","164","154.6796","220.0396","39360","39360","34035.6388","td","null","null","null","null","null","null","[2,3]","471.6012055502301","441.0324740298231","459.294653402822"
"","canvas-keyboard-response","60","116050","0.0-6.0-5.7","532","","","","","make choice","542","2","","","critical","c","t","d","240","164","164","240","154.6796","220.0396","trueblood","0.14","h","164","240","240","164","154.6796","220.0396","39360","39360","34035.6388","td","null","null","null","null","null","null","[2,3]","","",""
"","canvas-keyboard-response","61","116068","0.0-6.0-6.7","532","","","","","clear_screen","null","null","","","critical","c","t","d","240","164","164","240","154.6796","220.0396","trueblood","0.14","h","164","240","240","164","154.6796","220.0396","39360","39360","34035.6388","td","null","null","null","null","null","null","[2,3]","","",""
"","canvas-keyboard-response","62","116270","0.0-6.0-0.8","532","","","","","pre trial waiting period","null","null","","","critical","t","c","d","164","240","240","164","162.6685","237.1485","spektor","0.02","h","164","240","240","164","162.6685","237.1485","39360","39360","38576.5967","td","null","null","null","null","null","null","[1,3]","460.1782068184039","185.1931845363813","465.78515198203814"
"","canvas-keyboard-response","63","116290","0.0-6.0-1.8","532","","","","","clear_screen","null","null","","","critical","t","c","d","164","240","240","164","162.6685","237.1485","spektor","0.02","h","164","240","240","164","162.6685","237.1485","39360","39360","38576.5967","td","null","null","null","null","null","null","[1,3]","460.1782068184039","185.1931845363813","465.78515198203814"
"","canvas-keyboard-response","64","116801","0.0-6.0-2.8","532","","","","","rectangles no change","null","null","","","critical","t","c","d","164","240","240","164","162.6685","237.1485","spektor","0.02","h","164","240","240","164","162.6685","237.1485","39360","39360","38576.5967","td","null","null","null","null","null","null","[1,3]","460.1782068184039","185.1931845363813","465.78515198203814"
"","canvas-keyboard-response","65","118140","0.0-6.0-3.8","532","","","","","rectangles with change","null","null","","","critical","t","c","d","164","240","240","164","162.6685","237.1485","spektor","0.02","h","164","240","240","164","162.6685","237.1485","39360","39360","38576.5967","td","null","null","null","null","null","null","[1,3]","460.1782068184039","185.1931845363813","465.78515198203814"
"","canvas-keyboard-response","66","118162","0.0-6.0-4.8","532","","","","","clear_screen","null","null","","","critical","t","c","d","164","240","240","164","162.6685","237.1485","spektor","0.02","h","164","240","240","164","162.6685","237.1485","39360","39360","38576.5967","td","null","null","null","null","null","null","[1,3]","460.1782068184039","185.1931845363813","465.78515198203814"
"","canvas-keyboard-response","67","118841","0.0-6.0-5.8","532","","","","","make choice","670","3","","","critical","t","c","d","164","240","240","164","162.6685","237.1485","spektor","0.02","h","164","240","240","164","162.6685","237.1485","39360","39360","38576.5967","td","null","null","null","null","null","null","[1,3]","","",""
"","canvas-keyboard-response","68","118859","0.0-6.0-6.8","532","","","","","clear_screen","null","null","","","critical","t","c","d","164","240","240","164","162.6685","237.1485","spektor","0.02","h","164","240","240","164","162.6685","237.1485","39360","39360","38576.5967","td","null","null","null","null","null","null","[1,3]","","",""
"","canvas-keyboard-response","69","119061","0.0-6.0-0.9","532","","","","","pre trial waiting period","null","null","","","catch","l","sw","sh","166","258","173","182","234","184","spektor","null","null","null","null","null","null","null","null","null","null","null","","180","200","260","200","36000","52000","[1,3]","465.0022459996549","185.38022523716845","495.20889646315476"
"","canvas-keyboard-response","70","119081","0.0-6.0-1.9","532","","","","","clear_screen","null","null","","","catch","l","sw","sh","166","258","173","182","234","184","spektor","null","null","null","null","null","null","null","null","null","null","null","","180","200","260","200","36000","52000","[1,3]","465.0022459996549","185.38022523716845","495.20889646315476"
"","canvas-keyboard-response","71","119592","0.0-6.0-2.9","532","","","","","rectangles no change","null","null","","","catch","l","sw","sh","166","258","173","182","234","184","spektor","null","null","null","null","null","null","null","null","null","null","null","","180","200","260","200","36000","52000","[1,3]","465.0022459996549","185.38022523716845","495.20889646315476"
"","canvas-keyboard-response","72","120928","0.0-6.0-3.9","532","","","","","rectangles with change","null","null","","","catch","l","sw","sh","166","258","173","182","234","184","spektor","null","null","null","null","null","null","null","null","null","null","null","","180","200","260","200","36000","52000","[1,3]","465.0022459996549","185.38022523716845","495.20889646315476"
"","canvas-keyboard-response","73","120948","0.0-6.0-4.9","532","","","","","clear_screen","null","null","","","catch","l","sw","sh","166","258","173","182","234","184","spektor","null","null","null","null","null","null","null","null","null","null","null","","180","200","260","200","36000","52000","[1,3]","465.0022459996549","185.38022523716845","495.20889646315476"
"","canvas-keyboard-response","74","122105","0.0-6.0-5.9","532","","","","","make choice","1150","3","","","catch","l","sw","sh","166","258","173","182","234","184","spektor","null","null","null","null","null","null","null","null","null","null","null","","180","200","260","200","36000","52000","[1,3]","","",""
"","canvas-keyboard-response","75","122124","0.0-6.0-6.9","532","","","","","clear_screen","null","null","","","catch","l","sw","sh","166","258","173","182","234","184","spektor","null","null","null","null","null","null","null","null","null","null","null","","180","200","260","200","36000","52000","[1,3]","","",""
"","canvas-keyboard-response","76","122326","0.0-6.0-0.10","532","","","","","pre trial waiting period","null","null","","","critical","t","d","c","240","164","240","164","164","240","spektor","0","w","240","164","164","240","240","164","39360","39360","39360","tc","null","null","null","null","null","null","[1,3]","525.0786328198996","214.25046813904555","457.6814558829236"
"","canvas-keyboard-response","77","122347","0.0-6.0-1.10","532","","","","","clear_screen","null","null","","","critical","t","d","c","240","164","240","164","164","240","spektor","0","w","240","164","164","240","240","164","39360","39360","39360","tc","null","null","null","null","null","null","[1,3]","525.0786328198996","214.25046813904555","457.6814558829236"
"","canvas-keyboard-response","78","122858","0.0-6.0-2.10","532","","","","","rectangles no change","null","null","","","critical","t","d","c","240","164","240","164","164","240","spektor","0","w","240","164","164","240","240","164","39360","39360","39360","tc","null","null","null","null","null","null","[1,3]","525.0786328198996","214.25046813904555","457.6814558829236"
"","canvas-keyboard-response","79","124195","0.0-6.0-3.10","532","","","","","rectangles with change","null","null","","","critical","t","d","c","240","164","240","164","164","240","spektor","0","w","240","164","164","240","240","164","39360","39360","39360","tc","null","null","null","null","null","null","[1,3]","525.0786328198996","214.25046813904555","457.6814558829236"
"","canvas-keyboard-response","80","124215","0.0-6.0-4.10","532","","","","","clear_screen","null","null","","","critical","t","d","c","240","164","240","164","164","240","spektor","0","w","240","164","164","240","240","164","39360","39360","39360","tc","null","null","null","null","null","null","[1,3]","525.0786328198996","214.25046813904555","457.6814558829236"
"","canvas-keyboard-response","81","124738","0.0-6.0-5.10","532","","","","","make choice","512","1","","","critical","t","d","c","240","164","240","164","164","240","spektor","0","w","240","164","164","240","240","164","39360","39360","39360","tc","null","null","null","null","null","null","[1,3]","","",""
"","canvas-keyboard-response","82","124756","0.0-6.0-6.10","532","","","","","clear_screen","null","null","","","critical","t","d","c","240","164","240","164","164","240","spektor","0","w","240","164","164","240","240","164","39360","39360","39360","tc","null","null","null","null","null","null","[1,3]","","",""
"","canvas-keyboard-response","83","124957","0.0-6.0-0.11","532","","","","","pre trial waiting period","null","null","","","critical","d","t","c","237.1485","162.6685","240","164","164","240","trueblood","0.02","w","240","164","164","240","237.1485","162.6685","39360","39360","38576.5967","dc","null","null","null","null","null","null","[1,3]","489.66623726371677","510.3109415208682","422.1913162167872"
"","canvas-keyboard-response","84","124976","0.0-6.0-1.11","532","","","","","clear_screen","null","null","","","critical","d","t","c","237.1485","162.6685","240","164","164","240","trueblood","0.02","w","240","164","164","240","237.1485","162.6685","39360","39360","38576.5967","dc","null","null","null","null","null","null","[1,3]","489.66623726371677","510.3109415208682","422.1913162167872"
"","canvas-keyboard-response","85","125488","0.0-6.0-2.11","532","","","","","rectangles no change","null","null","","","critical","d","t","c","237.1485","162.6685","240","164","164","240","trueblood","0.02","w","240","164","164","240","237.1485","162.6685","39360","39360","38576.5967","dc","null","null","null","null","null","null","[1,3]","489.66623726371677","510.3109415208682","422.1913162167872"
"","canvas-keyboard-response","86","126824","0.0-6.0-3.11","532","","","","","rectangles with change","null","null","","","critical","d","t","c","237.1485","162.6685","240","164","164","240","trueblood","0.02","w","240","164","164","240","237.1485","162.6685","39360","39360","38576.5967","dc","null","null","null","null","null","null","[1,3]","489.66623726371677","510.3109415208682","422.1913162167872"
"","canvas-keyboard-response","87","126842","0.0-6.0-4.11","532","","","","","clear_screen","null","null","","","critical","d","t","c","237.1485","162.6685","240","164","164","240","trueblood","0.02","w","240","164","164","240","237.1485","162.6685","39360","39360","38576.5967","dc","null","null","null","null","null","null","[1,3]","489.66623726371677","510.3109415208682","422.1913162167872"
"","canvas-keyboard-response","88","127288","0.0-6.0-5.11","532","","","","","make choice","433","1","","","critical","d","t","c","237.1485","162.6685","240","164","164","240","trueblood","0.02","w","240","164","164","240","237.1485","162.6685","39360","39360","38576.5967","dc","null","null","null","null","null","null","[1,3]","","",""
"","canvas-keyboard-response","89","127308","0.0-6.0-6.11","532","","","","","clear_screen","null","null","","","critical","d","t","c","237.1485","162.6685","240","164","164","240","trueblood","0.02","w","240","164","164","240","237.1485","162.6685","39360","39360","38576.5967","dc","null","null","null","null","null","null","[1,3]","","",""
"","canvas-keyboard-response","90","127509","0.0-6.0-0.12","532","","","","","pre trial waiting period","null","null","","","critical","c","t","d","164","240","240","164","232.8713","160.6713","trueblood","0.05","w","240","164","164","240","232.8713","160.6713","39360","39360","37415.7294","dc","null","null","null","null","null","null","[3,1]","434.5968615053948","477.68937493536345","513.5413281010659"
"","canvas-keyboard-response","91","127529","0.0-6.0-1.12","532","","","","","clear_screen","null","null","","","critical","c","t","d","164","240","240","164","232.8713","160.6713","trueblood","0.05","w","240","164","164","240","232.8713","160.6713","39360","39360","37415.7294","dc","null","null","null","null","null","null","[3,1]","434.5968615053948","477.68937493536345","513.5413281010659"
"","canvas-keyboard-response","92","128041","0.0-6.0-2.12","532","","","","","rectangles no change","null","null","","","critical","c","t","d","164","240","240","164","232.8713","160.6713","trueblood","0.05","w","240","164","164","240","232.8713","160.6713","39360","39360","37415.7294","dc","null","null","null","null","null","null","[3,1]","434.5968615053948","477.68937493536345","513.5413281010659"
"","canvas-keyboard-response","93","129376","0.0-6.0-3.12","532","","","","","rectangles with change","null","null","","","critical","c","t","d","164","240","240","164","232.8713","160.6713","trueblood","0.05","w","240","164","164","240","232.8713","160.6713","39360","39360","37415.7294","dc","null","null","null","null","null","null","[3,1]","434.5968615053948","477.68937493536345","513.5413281010659"
"","canvas-keyboard-response","94","129397","0.0-6.0-4.12","532","","","","","clear_screen","null","null","","","critical","c","t","d","164","240","240","164","232.8713","160.6713","trueblood","0.05","w","240","164","164","240","232.8713","160.6713","39360","39360","37415.7294","dc","null","null","null","null","null","null","[3,1]","434.5968615053948","477.68937493536345","513.5413281010659"
"","canvas-keyboard-response","95","130552","0.0-6.0-5.12","532","","","","","make choice","1144","1","","","critical","c","t","d","164","240","240","164","232.8713","160.6713","trueblood","0.05","w","240","164","164","240","232.8713","160.6713","39360","39360","37415.7294","dc","null","null","null","null","null","null","[3,1]","","",""
"","canvas-keyboard-response","96","130571","0.0-6.0-6.12","532","","","","","clear_screen","null","null","","","critical","c","t","d","164","240","240","164","232.8713","160.6713","trueblood","0.05","w","240","164","164","240","232.8713","160.6713","39360","39360","37415.7294","dc","null","null","null","null","null","null","[3,1]","","",""
"","canvas-keyboard-response","97","130772","0.0-6.0-0.13","532","","","","","pre trial waiting period","null","null","","","critical","d","t","c","162.6685","237.1485","164","240","240","164","spektor","0.02","h","164","240","240","164","162.6685","237.1485","39360","39360","38576.5967","tc","null","null","null","null","null","null","[2,3]","486.24394868708305","130.52631603554616","540.4189502131347"
"","canvas-keyboard-response","98","130791","0.0-6.0-1.13","532","","","","","clear_screen","null","null","","","critical","d","t","c","162.6685","237.1485","164","240","240","164","spektor","0.02","h","164","240","240","164","162.6685","237.1485","39360","39360","38576.5967","tc","null","null","null","null","null","null","[2,3]","486.24394868708305","130.52631603554616","540.4189502131347"
"","canvas-keyboard-response","99","131301","0.0-6.0-2.13","532","","","","","rectangles no change","null","null","","","critical","d","t","c","162.6685","237.1485","164","240","240","164","spektor","0.02","h","164","240","240","164","162.6685","237.1485","39360","39360","38576.5967","tc","null","null","null","null","null","null","[2,3]","486.24394868708305","130.52631603554616","540.4189502131347"
"","canvas-keyboard-response","100","132636","0.0-6.0-3.13","532","","","","","rectangles with change","null","null","","","critical","d","t","c","162.6685","237.1485","164","240","240","164","spektor","0.02","h","164","240","240","164","162.6685","237.1485","39360","39360","38576.5967","tc","null","null","null","null","null","null","[2,3]","486.24394868708305","130.52631603554616","540.4189502131347"
"","canvas-keyboard-response","101","132655","0.0-6.0-4.13","532","","","","","clear_screen","null","null","","","critical","d","t","c","162.6685","237.1485","164","240","240","164","spektor","0.02","h","164","240","240","164","162.6685","237.1485","39360","39360","38576.5967","tc","null","null","null","null","null","null","[2,3]","486.24394868708305","130.52631603554616","540.4189502131347"
"","canvas-keyboard-response","102","133040","0.0-6.0-5.13","532","","","","","make choice","376","3","","","critical","d","t","c","162.6685","237.1485","164","240","240","164","spektor","0.02","h","164","240","240","164","162.6685","237.1485","39360","39360","38576.5967","tc","null","null","null","null","null","null","[2,3]","","",""
"","canvas-keyboard-response","103","133059","0.0-6.0-6.13","532","","","","","clear_screen","null","null","","","critical","d","t","c","162.6685","237.1485","164","240","240","164","spektor","0.02","h","164","240","240","164","162.6685","237.1485","39360","39360","38576.5967","tc","null","null","null","null","null","null","[2,3]","","",""
"","canvas-keyboard-response","104","133261","0.0-6.0-0.14","532","","","","","pre trial waiting period","null","null","","","critical","c","t","d","240","164","164","240","158.0083","227.1683","trueblood","0.09","h","164","240","240","164","158.0083","227.1683","39360","39360","35894.4834","dc","null","null","null","null","null","null","[3,1]","483.7639049086112","451.04096265249774","454.9430609503956"
"","canvas-keyboard-response","105","133281","0.0-6.0-1.14","532","","","","","clear_screen","null","null","","","critical","c","t","d","240","164","164","240","158.0083","227.1683","trueblood","0.09","h","164","240","240","164","158.0083","227.1683","39360","39360","35894.4834","dc","null","null","null","null","null","null","[3,1]","483.7639049086112","451.04096265249774","454.9430609503956"
"","canvas-keyboard-response","106","133791","0.0-6.0-2.14","532","","","","","rectangles no change","null","null","","","critical","c","t","d","240","164","164","240","158.0083","227.1683","trueblood","0.09","h","164","240","240","164","158.0083","227.1683","39360","39360","35894.4834","dc","null","null","null","null","null","null","[3,1]","483.7639049086112","451.04096265249774","454.9430609503956"
"","canvas-keyboard-response","107","135125","0.0-6.0-3.14","532","","","","","rectangles with change","null","null","","","critical","c","t","d","240","164","164","240","158.0083","227.1683","trueblood","0.09","h","164","240","240","164","158.0083","227.1683","39360","39360","35894.4834","dc","null","null","null","null","null","null","[3,1]","483.7639049086112","451.04096265249774","454.9430609503956"
"","canvas-keyboard-response","108","135144","0.0-6.0-4.14","532","","","","","clear_screen","null","null","","","critical","c","t","d","240","164","164","240","158.0083","227.1683","trueblood","0.09","h","164","240","240","164","158.0083","227.1683","39360","39360","35894.4834","dc","null","null","null","null","null","null","[3,1]","483.7639049086112","451.04096265249774","454.9430609503956"
"","canvas-keyboard-response","109","135433","0.0-6.0-5.14","532","","","","","make choice","281","1","","","critical","c","t","d","240","164","164","240","158.0083","227.1683","trueblood","0.09","h","164","240","240","164","158.0083","227.1683","39360","39360","35894.4834","dc","null","null","null","null","null","null","[3,1]","","",""
"","canvas-keyboard-response","110","135451","0.0-6.0-6.14","532","","","","","clear_screen","null","null","","","critical","c","t","d","240","164","164","240","158.0083","227.1683","trueblood","0.09","h","164","240","240","164","158.0083","227.1683","39360","39360","35894.4834","dc","null","null","null","null","null","null","[3,1]","","",""
"","canvas-keyboard-response","111","135651","0.0-6.0-0.15","532","","","","","pre trial waiting period","null","null","","","critical","d","c","t","232.8713","160.6713","164","240","240","164","trueblood","0.05","w","240","164","164","240","232.8713","160.6713","39360","39360","37415.7294","tc","null","null","null","null","null","null","[3,2]","520.0845399627873","433.60240972821725","507.6335454830551"
"","canvas-keyboard-response","112","135671","0.0-6.0-1.15","532","","","","","clear_screen","null","null","","","critical","d","c","t","232.8713","160.6713","164","240","240","164","trueblood","0.05","w","240","164","164","240","232.8713","160.6713","39360","39360","37415.7294","tc","null","null","null","null","null","null","[3,2]","520.0845399627873","433.60240972821725","507.6335454830551"
"","canvas-keyboard-response","113","136181","0.0-6.0-2.15","532","","","","","rectangles no change","null","null","","","critical","d","c","t","232.8713","160.6713","164","240","240","164","trueblood","0.05","w","240","164","164","240","232.8713","160.6713","39360","39360","37415.7294","tc","null","null","null","null","null","null","[3,2]","520.0845399627873","433.60240972821725","507.6335454830551"
"","canvas-keyboard-response","114","137517","0.0-6.0-3.15","532","","","","","rectangles with change","null","null","","","critical","d","c","t","232.8713","160.6713","164","240","240","164","trueblood","0.05","w","240","164","164","240","232.8713","160.6713","39360","39360","37415.7294","tc","null","null","null","null","null","null","[3,2]","520.0845399627873","433.60240972821725","507.6335454830551"
"","canvas-keyboard-response","115","137535","0.0-6.0-4.15","532","","","","","clear_screen","null","null","","","critical","d","c","t","232.8713","160.6713","164","240","240","164","trueblood","0.05","w","240","164","164","240","232.8713","160.6713","39360","39360","37415.7294","tc","null","null","null","null","null","null","[3,2]","520.0845399627873","433.60240972821725","507.6335454830551"
"","canvas-keyboard-response","116","137936","0.0-6.0-5.15","532","","","","","make choice","394","3","","","critical","d","c","t","232.8713","160.6713","164","240","240","164","trueblood","0.05","w","240","164","164","240","232.8713","160.6713","39360","39360","37415.7294","tc","null","null","null","null","null","null","[3,2]","","",""
"","canvas-keyboard-response","117","137955","0.0-6.0-6.15","532","","","","","clear_screen","null","null","","","critical","d","c","t","232.8713","160.6713","164","240","240","164","trueblood","0.05","w","240","164","164","240","232.8713","160.6713","39360","39360","37415.7294","tc","null","null","null","null","null","null","[3,2]","","",""
"","canvas-keyboard-response","118","138155","0.0-6.0-0.16","532","","","","","pre trial waiting period","null","null","","","critical","c","d","t","164","240","220.0396","154.6796","240","164","spektor","0.14","w","240","164","164","240","220.0396","154.6796","39360","39360","34035.6388","dc","null","null","null","null","null","null","[2,1]","504.44070394660935","221.59184164142178","517.1814329519226"
"","canvas-keyboard-response","119","138174","0.0-6.0-1.16","532","","","","","clear_screen","null","null","","","critical","c","d","t","164","240","220.0396","154.6796","240","164","spektor","0.14","w","240","164","164","240","220.0396","154.6796","39360","39360","34035.6388","dc","null","null","null","null","null","null","[2,1]","504.44070394660935","221.59184164142178","517.1814329519226"
"","canvas-keyboard-response","120","138688","0.0-6.0-2.16","532","","","","","rectangles no change","null","null","","","critical","c","d","t","164","240","220.0396","154.6796","240","164","spektor","0.14","w","240","164","164","240","220.0396","154.6796","39360","39360","34035.6388","dc","null","null","null","null","null","null","[2,1]","504.44070394660935","221.59184164142178","517.1814329519226"
"","canvas-keyboard-response","121","140024","0.0-6.0-3.16","532","","","","","rectangles with change","null","null","","","critical","c","d","t","164","240","220.0396","154.6796","240","164","spektor","0.14","w","240","164","164","240","220.0396","154.6796","39360","39360","34035.6388","dc","null","null","null","null","null","null","[2,1]","504.44070394660935","221.59184164142178","517.1814329519226"
"","canvas-keyboard-response","122","140042","0.0-6.0-4.16","532","","","","","clear_screen","null","null","","","critical","c","d","t","164","240","220.0396","154.6796","240","164","spektor","0.14","w","240","164","164","240","220.0396","154.6796","39360","39360","34035.6388","dc","null","null","null","null","null","null","[2,1]","504.44070394660935","221.59184164142178","517.1814329519226"
"","canvas-keyboard-response","123","140345","0.0-6.0-5.16","532","","","","","make choice","293","1","","","critical","c","d","t","164","240","220.0396","154.6796","240","164","spektor","0.14","w","240","164","164","240","220.0396","154.6796","39360","39360","34035.6388","dc","null","null","null","null","null","null","[2,1]","","",""
"","canvas-keyboard-response","124","140363","0.0-6.0-6.16","532","","","","","clear_screen","null","null","","","critical","c","d","t","164","240","220.0396","154.6796","240","164","spektor","0.14","w","240","164","164","240","220.0396","154.6796","39360","39360","34035.6388","dc","null","null","null","null","null","null","[2,1]","","",""
"","canvas-keyboard-response","125","140565","0.0-6.0-0.17","532","","","","","pre trial waiting period","null","null","","","critical","c","d","t","240","164","160.6713","232.8713","164","240","spektor","0.05","h","164","240","240","164","160.6713","232.8713","39360","39360","37415.7294","td","null","null","null","null","null","null","[3,2]","536.6761665945019","146.64687834258032","473.04754969325614"
"","canvas-keyboard-response","126","140584","0.0-6.0-1.17","532","","","","","clear_screen","null","null","","","critical","c","d","t","240","164","160.6713","232.8713","164","240","spektor","0.05","h","164","240","240","164","160.6713","232.8713","39360","39360","37415.7294","td","null","null","null","null","null","null","[3,2]","536.6761665945019","146.64687834258032","473.04754969325614"
"","canvas-keyboard-response","127","141099","0.0-6.0-2.17","532","","","","","rectangles no change","null","null","","","critical","c","d","t","240","164","160.6713","232.8713","164","240","spektor","0.05","h","164","240","240","164","160.6713","232.8713","39360","39360","37415.7294","td","null","null","null","null","null","null","[3,2]","536.6761665945019","146.64687834258032","473.04754969325614"
"","canvas-keyboard-response","128","142435","0.0-6.0-3.17","532","","","","","rectangles with change","null","null","","","critical","c","d","t","240","164","160.6713","232.8713","164","240","spektor","0.05","h","164","240","240","164","160.6713","232.8713","39360","39360","37415.7294","td","null","null","null","null","null","null","[3,2]","536.6761665945019","146.64687834258032","473.04754969325614"
"","canvas-keyboard-response","129","142454","0.0-6.0-4.17","532","","","","","clear_screen","null","null","","","critical","c","d","t","240","164","160.6713","232.8713","164","240","spektor","0.05","h","164","240","240","164","160.6713","232.8713","39360","39360","37415.7294","td","null","null","null","null","null","null","[3,2]","536.6761665945019","146.64687834258032","473.04754969325614"
"","canvas-keyboard-response","130","142680","0.0-6.0-5.17","532","","","","","make choice","219","3","","","critical","c","d","t","240","164","160.6713","232.8713","164","240","spektor","0.05","h","164","240","240","164","160.6713","232.8713","39360","39360","37415.7294","td","null","null","null","null","null","null","[3,2]","","",""
"","canvas-keyboard-response","131","142699","0.0-6.0-6.17","532","","","","","clear_screen","null","null","","","critical","c","d","t","240","164","160.6713","232.8713","164","240","spektor","0.05","h","164","240","240","164","160.6713","232.8713","39360","39360","37415.7294","td","null","null","null","null","null","null","[3,2]","","",""
"","canvas-keyboard-response","132","142900","0.0-6.0-0.18","532","","","","","pre trial waiting period","null","null","","","critical","t","d","c","164","240","162.6685","237.1485","240","164","trueblood","0.02","h","164","240","240","164","162.6685","237.1485","39360","39360","38576.5967","td","null","null","null","null","null","null","[1,2]","427.88150116079385","469.050935704023","479.2911640835945"
"","canvas-keyboard-response","133","142921","0.0-6.0-1.18","532","","","","","clear_screen","null","null","","","critical","t","d","c","164","240","162.6685","237.1485","240","164","trueblood","0.02","h","164","240","240","164","162.6685","237.1485","39360","39360","38576.5967","td","null","null","null","null","null","null","[1,2]","427.88150116079385","469.050935704023","479.2911640835945"
"","canvas-keyboard-response","134","143431","0.0-6.0-2.18","532","","","","","rectangles no change","null","null","","","critical","t","d","c","164","240","162.6685","237.1485","240","164","trueblood","0.02","h","164","240","240","164","162.6685","237.1485","39360","39360","38576.5967","td","null","null","null","null","null","null","[1,2]","427.88150116079385","469.050935704023","479.2911640835945"
"","canvas-keyboard-response","135","144767","0.0-6.0-3.18","532","","","","","rectangles with change","null","null","","","critical","t","d","c","164","240","162.6685","237.1485","240","164","trueblood","0.02","h","164","240","240","164","162.6685","237.1485","39360","39360","38576.5967","td","null","null","null","null","null","null","[1,2]","427.88150116079385","469.050935704023","479.2911640835945"
"","canvas-keyboard-response","136","144787","0.0-6.0-4.18","532","","","","","clear_screen","null","null","","","critical","t","d","c","164","240","162.6685","237.1485","240","164","trueblood","0.02","h","164","240","240","164","162.6685","237.1485","39360","39360","38576.5967","td","null","null","null","null","null","null","[1,2]","427.88150116079385","469.050935704023","479.2911640835945"
"","canvas-keyboard-response","137","145192","0.0-6.0-5.18","532","","","","","make choice","395","2","","","critical","t","d","c","164","240","162.6685","237.1485","240","164","trueblood","0.02","h","164","240","240","164","162.6685","237.1485","39360","39360","38576.5967","td","null","null","null","null","null","null","[1,2]","","",""
"","canvas-keyboard-response","138","145214","0.0-6.0-6.18","532","","","","","clear_screen","null","null","","","critical","t","d","c","164","240","162.6685","237.1485","240","164","trueblood","0.02","h","164","240","240","164","162.6685","237.1485","39360","39360","38576.5967","td","null","null","null","null","null","null","[1,2]","","",""
"","canvas-keyboard-response","139","145415","0.0-6.0-0.19","532","","","","","pre trial waiting period","null","null","","","catch","l","sw","sh","184","220","207","195","239","172","spektor","null","null","null","null","null","null","null","null","null","null","null","","180","200","260","200","36000","52000","[1,2]","501.47980485845306","142.50492268576062","492.4376515357114"
"","canvas-keyboard-response","140","145437","0.0-6.0-1.19","532","","","","","clear_screen","null","null","","","catch","l","sw","sh","184","220","207","195","239","172","spektor","null","null","null","null","null","null","null","null","null","null","null","","180","200","260","200","36000","52000","[1,2]","501.47980485845306","142.50492268576062","492.4376515357114"
"","canvas-keyboard-response","141","145950","0.0-6.0-2.19","532","","","","","rectangles no change","null","null","","","catch","l","sw","sh","184","220","207","195","239","172","spektor","null","null","null","null","null","null","null","null","null","null","null","","180","200","260","200","36000","52000","[1,2]","501.47980485845306","142.50492268576062","492.4376515357114"
"","canvas-keyboard-response","142","147286","0.0-6.0-3.19","532","","","","","rectangles with change","null","null","","","catch","l","sw","sh","184","220","207","195","239","172","spektor","null","null","null","null","null","null","null","null","null","null","null","","180","200","260","200","36000","52000","[1,2]","501.47980485845306","142.50492268576062","492.4376515357114"
"","canvas-keyboard-response","143","147305","0.0-6.0-4.19","532","","","","","clear_screen","null","null","","","catch","l","sw","sh","184","220","207","195","239","172","spektor","null","null","null","null","null","null","null","null","null","null","null","","180","200","260","200","36000","52000","[1,2]","501.47980485845306","142.50492268576062","492.4376515357114"
"","canvas-keyboard-response","144","148762","0.0-6.0-5.19","532","","","","","make choice","1447","2","","","catch","l","sw","sh","184","220","207","195","239","172","spektor","null","null","null","null","null","null","null","null","null","null","null","","180","200","260","200","36000","52000","[1,2]","","",""
"","canvas-keyboard-response","145","148781","0.0-6.0-6.19","532","","","","","clear_screen","null","null","","","catch","l","sw","sh","184","220","207","195","239","172","spektor","null","null","null","null","null","null","null","null","null","null","null","","180","200","260","200","36000","52000","[1,2]","","",""
"","canvas-keyboard-response","146","148984","0.0-6.0-0.20","532","","","","","pre trial waiting period","null","null","","","catch","sh","sw","l","191","202","217","171","261","229","trueblood","null","null","null","null","null","null","null","null","null","null","null","","180","200","260","200","36000","52000","[1,3]","484.8364017193907","485.3154338668054","467.8767791716297"
"","canvas-keyboard-response","147","149004","0.0-6.0-1.20","532","","","","","clear_screen","null","null","","","catch","sh","sw","l","191","202","217","171","261","229","trueblood","null","null","null","null","null","null","null","null","null","null","null","","180","200","260","200","36000","52000","[1,3]","484.8364017193907","485.3154338668054","467.8767791716297"
"","canvas-keyboard-response","148","149515","0.0-6.0-2.20","532","","","","","rectangles no change","null","null","","","catch","sh","sw","l","191","202","217","171","261","229","trueblood","null","null","null","null","null","null","null","null","null","null","null","","180","200","260","200","36000","52000","[1,3]","484.8364017193907","485.3154338668054","467.8767791716297"
"","canvas-keyboard-response","149","150851","0.0-6.0-3.20","532","","","","","rectangles with change","null","null","","","catch","sh","sw","l","191","202","217","171","261","229","trueblood","null","null","null","null","null","null","null","null","null","null","null","","180","200","260","200","36000","52000","[1,3]","484.8364017193907","485.3154338668054","467.8767791716297"
"","canvas-keyboard-response","150","150869","0.0-6.0-4.20","532","","","","","clear_screen","null","null","","","catch","sh","sw","l","191","202","217","171","261","229","trueblood","null","null","null","null","null","null","null","null","null","null","null","","180","200","260","200","36000","52000","[1,3]","484.8364017193907","485.3154338668054","467.8767791716297"
"","canvas-keyboard-response","151","151345","0.0-6.0-5.20","532","","","","","make choice","468","3","","","catch","sh","sw","l","191","202","217","171","261","229","trueblood","null","null","null","null","null","null","null","null","null","null","null","","180","200","260","200","36000","52000","[1,3]","","",""
"","canvas-keyboard-response","152","151363","0.0-6.0-6.20","532","","","","","clear_screen","null","null","","","catch","sh","sw","l","191","202","217","171","261","229","trueblood","null","null","null","null","null","null","null","null","null","null","null","","180","200","260","200","36000","52000","[1,3]","","",""
"","canvas-keyboard-response","153","151564","0.0-6.0-0.21","532","","","","","pre trial waiting period","null","null","","","catch","sw","l","sh","180","200","242","237","205","208","trueblood","null","null","null","null","null","null","null","null","null","null","null","","180","200","260","200","36000","52000","[2,3]","493.5095615283528","469.3729960287109","468.77926157007613"
"","canvas-keyboard-response","154","151584","0.0-6.0-1.21","532","","","","","clear_screen","null","null","","","catch","sw","l","sh","180","200","242","237","205","208","trueblood","null","null","null","null","null","null","null","null","null","null","null","","180","200","260","200","36000","52000","[2,3]","493.5095615283528","469.3729960287109","468.77926157007613"
"","canvas-keyboard-response","155","152094","0.0-6.0-2.21","532","","","","","rectangles no change","null","null","","","catch","sw","l","sh","180","200","242","237","205","208","trueblood","null","null","null","null","null","null","null","null","null","null","null","","180","200","260","200","36000","52000","[2,3]","493.5095615283528","469.3729960287109","468.77926157007613"
"","canvas-keyboard-response","156","153431","0.0-6.0-3.21","532","","","","","rectangles with change","null","null","","","catch","sw","l","sh","180","200","242","237","205","208","trueblood","null","null","null","null","null","null","null","null","null","null","null","","180","200","260","200","36000","52000","[2,3]","493.5095615283528","469.3729960287109","468.77926157007613"
"","canvas-keyboard-response","157","153450","0.0-6.0-4.21","532","","","","","clear_screen","null","null","","","catch","sw","l","sh","180","200","242","237","205","208","trueblood","null","null","null","null","null","null","null","null","null","null","null","","180","200","260","200","36000","52000","[2,3]","493.5095615283528","469.3729960287109","468.77926157007613"
"","canvas-keyboard-response","158","153689","0.0-6.0-5.21","532","","","","","make choice","231","2","","","catch","sw","l","sh","180","200","242","237","205","208","trueblood","null","null","null","null","null","null","null","null","null","null","null","","180","200","260","200","36000","52000","[2,3]","","",""
"","canvas-keyboard-response","159","153708","0.0-6.0-6.21","532","","","","","clear_screen","null","null","","","catch","sw","l","sh","180","200","242","237","205","208","trueblood","null","null","null","null","null","null","null","null","null","null","null","","180","200","260","200","36000","52000","[2,3]","","",""
"","canvas-keyboard-response","160","153909","0.0-6.0-0.22","532","","","","","pre trial waiting period","null","null","","","critical","t","c","d","164","240","240","164","158.0083","227.1683","spektor","0.09","h","164","240","240","164","158.0083","227.1683","39360","39360","35894.4834","dc","null","null","null","null","null","null","[3,2]","486.0717931080066","170.67324767492272","498.45050646267293"
"","canvas-keyboard-response","161","153930","0.0-6.0-1.22","532","","","","","clear_screen","null","null","","","critical","t","c","d","164","240","240","164","158.0083","227.1683","spektor","0.09","h","164","240","240","164","158.0083","227.1683","39360","39360","35894.4834","dc","null","null","null","null","null","null","[3,2]","486.0717931080066","170.67324767492272","498.45050646267293"
"","canvas-keyboard-response","162","154451","0.0-6.0-2.22","532","","","","","rectangles no change","null","null","","","critical","t","c","d","164","240","240","164","158.0083","227.1683","spektor","0.09","h","164","240","240","164","158.0083","227.1683","39360","39360","35894.4834","dc","null","null","null","null","null","null","[3,2]","486.0717931080066","170.67324767492272","498.45050646267293"
"","canvas-keyboard-response","163","155787","0.0-6.0-3.22","532","","","","","rectangles with change","null","null","","","critical","t","c","d","164","240","240","164","158.0083","227.1683","spektor","0.09","h","164","240","240","164","158.0083","227.1683","39360","39360","35894.4834","dc","null","null","null","null","null","null","[3,2]","486.0717931080066","170.67324767492272","498.45050646267293"
"","canvas-keyboard-response","164","155805","0.0-6.0-4.22","532","","","","","clear_screen","null","null","","","critical","t","c","d","164","240","240","164","158.0083","227.1683","spektor","0.09","h","164","240","240","164","158.0083","227.1683","39360","39360","35894.4834","dc","null","null","null","null","null","null","[3,2]","486.0717931080066","170.67324767492272","498.45050646267293"
"","canvas-keyboard-response","165","156041","0.0-6.0-5.22","532","","","","","make choice","229","2","","","critical","t","c","d","164","240","240","164","158.0083","227.1683","spektor","0.09","h","164","240","240","164","158.0083","227.1683","39360","39360","35894.4834","dc","null","null","null","null","null","null","[3,2]","","",""
"","canvas-keyboard-response","166","156059","0.0-6.0-6.22","532","","","","","clear_screen","null","null","","","critical","t","c","d","164","240","240","164","158.0083","227.1683","spektor","0.09","h","164","240","240","164","158.0083","227.1683","39360","39360","35894.4834","dc","null","null","null","null","null","null","[3,2]","","",""
"","canvas-keyboard-response","167","156259","0.0-6.0-0.23","532","","","","","pre trial waiting period","null","null","","","catch","sh","sw","l","225","204","153","179","290","223","trueblood","null","null","null","null","null","null","null","null","null","null","null","","180","200","260","200","36000","52000","[1,3]","477.18250296960264","491.0379092323904","452.6748438485362"
"","canvas-keyboard-response","168","156280","0.0-6.0-1.23","532","","","","","clear_screen","null","null","","","catch","sh","sw","l","225","204","153","179","290","223","trueblood","null","null","null","null","null","null","null","null","null","null","null","","180","200","260","200","36000","52000","[1,3]","477.18250296960264","491.0379092323904","452.6748438485362"
"","canvas-keyboard-response","169","156792","0.0-6.0-2.23","532","","","","","rectangles no change","null","null","","","catch","sh","sw","l","225","204","153","179","290","223","trueblood","null","null","null","null","null","null","null","null","null","null","null","","180","200","260","200","36000","52000","[1,3]","477.18250296960264","491.0379092323904","452.6748438485362"
"","canvas-keyboard-response","170","158128","0.0-6.0-3.23","532","","","","","rectangles with change","null","null","","","catch","sh","sw","l","225","204","153","179","290","223","trueblood","null","null","null","null","null","null","null","null","null","null","null","","180","200","260","200","36000","52000","[1,3]","477.18250296960264","491.0379092323904","452.6748438485362"
"","canvas-keyboard-response","171","158147","0.0-6.0-4.23","532","","","","","clear_screen","null","null","","","catch","sh","sw","l","225","204","153","179","290","223","trueblood","null","null","null","null","null","null","null","null","null","null","null","","180","200","260","200","36000","52000","[1,3]","477.18250296960264","491.0379092323904","452.6748438485362"
"","canvas-keyboard-response","172","158449","0.0-6.0-5.23","532","","","","","make choice","294","3","","","catch","sh","sw","l","225","204","153","179","290","223","trueblood","null","null","null","null","null","null","null","null","null","null","null","","180","200","260","200","36000","52000","[1,3]","","",""
"","canvas-keyboard-response","173","158468","0.0-6.0-6.23","532","","","","","clear_screen","null","null","","","catch","sh","sw","l","225","204","153","179","290","223","trueblood","null","null","null","null","null","null","null","null","null","null","null","","180","200","260","200","36000","52000","[1,3]","","",""
"","canvas-keyboard-response","174","158669","0.0-6.0-0.24","532","","","","","pre trial waiting period","null","null","","","critical","t","d","c","164","240","160.6713","232.8713","240","164","trueblood","0.05","h","164","240","240","164","160.6713","232.8713","39360","39360","37415.7294","td","null","null","null","null","null","null","[1,2]","448.0413425294375","458.3972078173458","512.2541988632559"
"","canvas-keyboard-response","175","158688","0.0-6.0-1.24","532","","","","","clear_screen","null","null","","","critical","t","d","c","164","240","160.6713","232.8713","240","164","trueblood","0.05","h","164","240","240","164","160.6713","232.8713","39360","39360","37415.7294","td","null","null","null","null","null","null","[1,2]","448.0413425294375","458.3972078173458","512.2541988632559"
"","canvas-keyboard-response","176","159199","0.0-6.0-2.24","532","","","","","rectangles no change","null","null","","","critical","t","d","c","164","240","160.6713","232.8713","240","164","trueblood","0.05","h","164","240","240","164","160.6713","232.8713","39360","39360","37415.7294","td","null","null","null","null","null","null","[1,2]","448.0413425294375","458.3972078173458","512.2541988632559"
"","canvas-keyboard-response","177","160534","0.0-6.0-3.24","532","","","","","rectangles with change","null","null","","","critical","t","d","c","164","240","160.6713","232.8713","240","164","trueblood","0.05","h","164","240","240","164","160.6713","232.8713","39360","39360","37415.7294","td","null","null","null","null","null","null","[1,2]","448.0413425294375","458.3972078173458","512.2541988632559"
"","canvas-keyboard-response","178","160553","0.0-6.0-4.24","532","","","","","clear_screen","null","null","","","critical","t","d","c","164","240","160.6713","232.8713","240","164","trueblood","0.05","h","164","240","240","164","160.6713","232.8713","39360","39360","37415.7294","td","null","null","null","null","null","null","[1,2]","448.0413425294375","458.3972078173458","512.2541988632559"
"","canvas-keyboard-response","179","160840","0.0-6.0-5.24","532","","","","","make choice","281","1","","","critical","t","d","c","164","240","160.6713","232.8713","240","164","trueblood","0.05","h","164","240","240","164","160.6713","232.8713","39360","39360","37415.7294","td","null","null","null","null","null","null","[1,2]","","",""
"","canvas-keyboard-response","180","160859","0.0-6.0-6.24","532","","","","","clear_screen","null","null","","","critical","t","d","c","164","240","160.6713","232.8713","240","164","trueblood","0.05","h","164","240","240","164","160.6713","232.8713","39360","39360","37415.7294","td","null","null","null","null","null","null","[1,2]","","",""
"","canvas-keyboard-response","181","161061","0.0-6.0-0.25","532","","","","","pre trial waiting period","null","null","","","critical","d","t","c","232.8713","160.6713","240","164","164","240","spektor","0.05","w","240","164","164","240","232.8713","160.6713","39360","39360","37415.7294","tc","null","null","null","null","null","null","[2,3]","512.4256490470851","179.35914896264913","479.41020160023595"
"","canvas-keyboard-response","182","161079","0.0-6.0-1.25","532","","","","","clear_screen","null","null","","","critical","d","t","c","232.8713","160.6713","240","164","164","240","spektor","0.05","w","240","164","164","240","232.8713","160.6713","39360","39360","37415.7294","tc","null","null","null","null","null","null","[2,3]","512.4256490470851","179.35914896264913","479.41020160023595"
"","canvas-keyboard-response","183","161592","0.0-6.0-2.25","532","","","","","rectangles no change","null","null","","","critical","d","t","c","232.8713","160.6713","240","164","164","240","spektor","0.05","w","240","164","164","240","232.8713","160.6713","39360","39360","37415.7294","tc","null","null","null","null","null","null","[2,3]","512.4256490470851","179.35914896264913","479.41020160023595"
"","canvas-keyboard-response","184","162928","0.0-6.0-3.25","532","","","","","rectangles with change","null","null","","","critical","d","t","c","232.8713","160.6713","240","164","164","240","spektor","0.05","w","240","164","164","240","232.8713","160.6713","39360","39360","37415.7294","tc","null","null","null","null","null","null","[2,3]","512.4256490470851","179.35914896264913","479.41020160023595"
"","canvas-keyboard-response","185","162947","0.0-6.0-4.25","532","","","","","clear_screen","null","null","","","critical","d","t","c","232.8713","160.6713","240","164","164","240","spektor","0.05","w","240","164","164","240","232.8713","160.6713","39360","39360","37415.7294","tc","null","null","null","null","null","null","[2,3]","512.4256490470851","179.35914896264913","479.41020160023595"
"","canvas-keyboard-response","186","163304","0.0-6.0-5.25","532","","","","","make choice","350","3","","","critical","d","t","c","232.8713","160.6713","240","164","164","240","spektor","0.05","w","240","164","164","240","232.8713","160.6713","39360","39360","37415.7294","tc","null","null","null","null","null","null","[2,3]","","",""
"","canvas-keyboard-response","187","163322","0.0-6.0-6.25","532","","","","","clear_screen","null","null","","","critical","d","t","c","232.8713","160.6713","240","164","164","240","spektor","0.05","w","240","164","164","240","232.8713","160.6713","39360","39360","37415.7294","tc","null","null","null","null","null","null","[2,3]","","",""
"","canvas-keyboard-response","188","163524","0.0-6.0-0.26","532","","","","","pre trial waiting period","null","null","","","catch","sw","sh","l","180","200","202","175","222","263","trueblood","null","null","null","null","null","null","null","null","null","null","null","","180","200","260","200","36000","52000","[2,3]","487.6371159655821","491.2149825903733","413.1928577395057"
"","canvas-keyboard-response","189","163552","0.0-6.0-1.26","532","","","","","clear_screen","null","null","","","catch","sw","sh","l","180","200","202","175","222","263","trueblood","null","null","null","null","null","null","null","null","null","null","null","","180","200","260","200","36000","52000","[2,3]","487.6371159655821","491.2149825903733","413.1928577395057"
"","canvas-keyboard-response","190","164061","0.0-6.0-2.26","532","","","","","rectangles no change","null","null","","","catch","sw","sh","l","180","200","202","175","222","263","trueblood","null","null","null","null","null","null","null","null","null","null","null","","180","200","260","200","36000","52000","[2,3]","487.6371159655821","491.2149825903733","413.1928577395057"
"","canvas-keyboard-response","191","165396","0.0-6.0-3.26","532","","","","","rectangles with change","null","null","","","catch","sw","sh","l","180","200","202","175","222","263","trueblood","null","null","null","null","null","null","null","null","null","null","null","","180","200","260","200","36000","52000","[2,3]","487.6371159655821","491.2149825903733","413.1928577395057"
"","canvas-keyboard-response","192","165414","0.0-6.0-4.26","532","","","","","clear_screen","null","null","","","catch","sw","sh","l","180","200","202","175","222","263","trueblood","null","null","null","null","null","null","null","null","null","null","null","","180","200","260","200","36000","52000","[2,3]","487.6371159655821","491.2149825903733","413.1928577395057"
"","canvas-keyboard-response","193","165665","0.0-6.0-5.26","532","","","","","make choice","244","3","","","catch","sw","sh","l","180","200","202","175","222","263","trueblood","null","null","null","null","null","null","null","null","null","null","null","","180","200","260","200","36000","52000","[2,3]","","",""
"","canvas-keyboard-response","194","165683","0.0-6.0-6.26","532","","","","","clear_screen","null","null","","","catch","sw","sh","l","180","200","202","175","222","263","trueblood","null","null","null","null","null","null","null","null","null","null","null","","180","200","260","200","36000","52000","[2,3]","","",""
"","canvas-keyboard-response","195","165885","0.0-6.0-0.27","532","","","","","pre trial waiting period","null","null","","","critical","d","c","t","227.1683","158.0083","164","240","240","164","spektor","0.09","w","240","164","164","240","227.1683","158.0083","39360","39360","35894.4834","td","null","null","null","null","null","null","[3,1]","521.2681413711517","140.54642492334472","511.0887291093787"
"","canvas-keyboard-response","196","165904","0.0-6.0-1.27","532","","","","","clear_screen","null","null","","","critical","d","c","t","227.1683","158.0083","164","240","240","164","spektor","0.09","w","240","164","164","240","227.1683","158.0083","39360","39360","35894.4834","td","null","null","null","null","null","null","[3,1]","521.2681413711517","140.54642492334472","511.0887291093787"
"","canvas-keyboard-response","197","166417","0.0-6.0-2.27","532","","","","","rectangles no change","null","null","","","critical","d","c","t","227.1683","158.0083","164","240","240","164","spektor","0.09","w","240","164","164","240","227.1683","158.0083","39360","39360","35894.4834","td","null","null","null","null","null","null","[3,1]","521.2681413711517","140.54642492334472","511.0887291093787"
"","canvas-keyboard-response","198","167752","0.0-6.0-3.27","532","","","","","rectangles with change","null","null","","","critical","d","c","t","227.1683","158.0083","164","240","240","164","spektor","0.09","w","240","164","164","240","227.1683","158.0083","39360","39360","35894.4834","td","null","null","null","null","null","null","[3,1]","521.2681413711517","140.54642492334472","511.0887291093787"
"","canvas-keyboard-response","199","167774","0.0-6.0-4.27","532","","","","","clear_screen","null","null","","","critical","d","c","t","227.1683","158.0083","164","240","240","164","spektor","0.09","w","240","164","164","240","227.1683","158.0083","39360","39360","35894.4834","td","null","null","null","null","null","null","[3,1]","521.2681413711517","140.54642492334472","511.0887291093787"
"","canvas-keyboard-response","200","168169","0.0-6.0-5.27","532","","","","","make choice","385","3","","","critical","d","c","t","227.1683","158.0083","164","240","240","164","spektor","0.09","w","240","164","164","240","227.1683","158.0083","39360","39360","35894.4834","td","null","null","null","null","null","null","[3,1]","","",""
"","canvas-keyboard-response","201","168188","0.0-6.0-6.27","532","","","","","clear_screen","null","null","","","critical","d","c","t","227.1683","158.0083","164","240","240","164","spektor","0.09","w","240","164","164","240","227.1683","158.0083","39360","39360","35894.4834","td","null","null","null","null","null","null","[3,1]","","",""
"","canvas-keyboard-response","202","168390","0.0-6.0-0.28","532","","","","","pre trial waiting period","null","null","","","critical","t","d","c","164","240","154.6796","220.0396","240","164","spektor","0.14","h","164","240","240","164","154.6796","220.0396","39360","39360","34035.6388","td","null","null","null","null","null","null","[1,2]","472.1505810269662","114.01760336321931","500.0285885807448"
"","canvas-keyboard-response","203","168410","0.0-6.0-1.28","532","","","","","clear_screen","null","null","","","critical","t","d","c","164","240","154.6796","220.0396","240","164","spektor","0.14","h","164","240","240","164","154.6796","220.0396","39360","39360","34035.6388","td","null","null","null","null","null","null","[1,2]","472.1505810269662","114.01760336321931","500.0285885807448"
"","canvas-keyboard-response","204","168923","0.0-6.0-2.28","532","","","","","rectangles no change","null","null","","","critical","t","d","c","164","240","154.6796","220.0396","240","164","spektor","0.14","h","164","240","240","164","154.6796","220.0396","39360","39360","34035.6388","td","null","null","null","null","null","null","[1,2]","472.1505810269662","114.01760336321931","500.0285885807448"
"","canvas-keyboard-response","205","170261","0.0-6.0-3.28","532","","","","","rectangles with change","null","null","","","critical","t","d","c","164","240","154.6796","220.0396","240","164","spektor","0.14","h","164","240","240","164","154.6796","220.0396","39360","39360","34035.6388","td","null","null","null","null","null","null","[1,2]","472.1505810269662","114.01760336321931","500.0285885807448"
"","canvas-keyboard-response","206","170280","0.0-6.0-4.28","532","","","","","clear_screen","null","null","","","critical","t","d","c","164","240","154.6796","220.0396","240","164","spektor","0.14","h","164","240","240","164","154.6796","220.0396","39360","39360","34035.6388","td","null","null","null","null","null","null","[1,2]","472.1505810269662","114.01760336321931","500.0285885807448"
"","canvas-keyboard-response","207","170576","0.0-6.0-5.28","532","","","","","make choice","287","1","","","critical","t","d","c","164","240","154.6796","220.0396","240","164","spektor","0.14","h","164","240","240","164","154.6796","220.0396","39360","39360","34035.6388","td","null","null","null","null","null","null","[1,2]","","",""
"","canvas-keyboard-response","208","170597","0.0-6.0-6.28","532","","","","","clear_screen","null","null","","","critical","t","d","c","164","240","154.6796","220.0396","240","164","spektor","0.14","h","164","240","240","164","154.6796","220.0396","39360","39360","34035.6388","td","null","null","null","null","null","null","[1,2]","","",""
"","canvas-keyboard-response","209","170799","0.0-6.0-0.29","532","","","","","pre trial waiting period","null","null","","","catch","sh","l","sw","194","190","161","285","193","238","trueblood","null","null","null","null","null","null","null","null","null","null","null","","180","200","260","200","36000","52000","[2,3]","489.90290763622676","428.1974209266497","424.6995522213385"
"","canvas-keyboard-response","210","170820","0.0-6.0-1.29","532","","","","","clear_screen","null","null","","","catch","sh","l","sw","194","190","161","285","193","238","trueblood","null","null","null","null","null","null","null","null","null","null","null","","180","200","260","200","36000","52000","[2,3]","489.90290763622676","428.1974209266497","424.6995522213385"
"","canvas-keyboard-response","211","171334","0.0-6.0-2.29","532","","","","","rectangles no change","null","null","","","catch","sh","l","sw","194","190","161","285","193","238","trueblood","null","null","null","null","null","null","null","null","null","null","null","","180","200","260","200","36000","52000","[2,3]","489.90290763622676","428.1974209266497","424.6995522213385"
"","canvas-keyboard-response","212","172670","0.0-6.0-3.29","532","","","","","rectangles with change","null","null","","","catch","sh","l","sw","194","190","161","285","193","238","trueblood","null","null","null","null","null","null","null","null","null","null","null","","180","200","260","200","36000","52000","[2,3]","489.90290763622676","428.1974209266497","424.6995522213385"
"","canvas-keyboard-response","213","172689","0.0-6.0-4.29","532","","","","","clear_screen","null","null","","","catch","sh","l","sw","194","190","161","285","193","238","trueblood","null","null","null","null","null","null","null","null","null","null","null","","180","200","260","200","36000","52000","[2,3]","489.90290763622676","428.1974209266497","424.6995522213385"
"","canvas-keyboard-response","214","173105","0.0-6.0-5.29","532","","","","","make choice","408","2","","","catch","sh","l","sw","194","190","161","285","193","238","trueblood","null","null","null","null","null","null","null","null","null","null","null","","180","200","260","200","36000","52000","[2,3]","","",""
"","canvas-keyboard-response","215","173123","0.0-6.0-6.29","532","","","","","clear_screen","null","null","","","catch","sh","l","sw","194","190","161","285","193","238","trueblood","null","null","null","null","null","null","null","null","null","null","null","","180","200","260","200","36000","52000","[2,3]","","",""
"","canvas-keyboard-response","216","173324","0.0-6.0-0.30","532","","","","","pre trial waiting period","null","null","","","critical","d","t","c","227.1683","158.0083","240","164","164","240","spektor","0.09","w","240","164","164","240","227.1683","158.0083","39360","39360","35894.4834","dc","null","null","null","null","null","null","[1,3]","527.1978713301994","190.12786148338532","463.5991088967792"
"","canvas-keyboard-response","217","173344","0.0-6.0-1.30","532","","","","","clear_screen","null","null","","","critical","d","t","c","227.1683","158.0083","240","164","164","240","spektor","0.09","w","240","164","164","240","227.1683","158.0083","39360","39360","35894.4834","dc","null","null","null","null","null","null","[1,3]","527.1978713301994","190.12786148338532","463.5991088967792"
"","canvas-keyboard-response","218","173858","0.0-6.0-2.30","532","","","","","rectangles no change","null","null","","","critical","d","t","c","227.1683","158.0083","240","164","164","240","spektor","0.09","w","240","164","164","240","227.1683","158.0083","39360","39360","35894.4834","dc","null","null","null","null","null","null","[1,3]","527.1978713301994","190.12786148338532","463.5991088967792"
"","canvas-keyboard-response","219","175194","0.0-6.0-3.30","532","","","","","rectangles with change","null","null","","","critical","d","t","c","227.1683","158.0083","240","164","164","240","spektor","0.09","w","240","164","164","240","227.1683","158.0083","39360","39360","35894.4834","dc","null","null","null","null","null","null","[1,3]","527.1978713301994","190.12786148338532","463.5991088967792"
"","canvas-keyboard-response","220","175213","0.0-6.0-4.30","532","","","","","clear_screen","null","null","","","critical","d","t","c","227.1683","158.0083","240","164","164","240","spektor","0.09","w","240","164","164","240","227.1683","158.0083","39360","39360","35894.4834","dc","null","null","null","null","null","null","[1,3]","527.1978713301994","190.12786148338532","463.5991088967792"
"","canvas-keyboard-response","221","177209","0.0-6.0-5.30","532","","","","","make choice","1988","3","","","critical","d","t","c","227.1683","158.0083","240","164","164","240","spektor","0.09","w","240","164","164","240","227.1683","158.0083","39360","39360","35894.4834","dc","null","null","null","null","null","null","[1,3]","","",""
"","canvas-keyboard-response","222","177228","0.0-6.0-6.30","532","","","","","clear_screen","null","null","","","critical","d","t","c","227.1683","158.0083","240","164","164","240","spektor","0.09","w","240","164","164","240","227.1683","158.0083","39360","39360","35894.4834","dc","null","null","null","null","null","null","[1,3]","","",""
"","canvas-keyboard-response","223","177430","0.0-6.0-0.31","532","","","","","pre trial waiting period","null","null","","","catch","l","sw","sh","188","268","206","172","193","213","trueblood","null","null","null","null","null","null","null","null","null","null","null","","180","200","260","200","36000","52000","[1,3]","440.47334176427745","509.24860004389177","445.5955256142606"
"","canvas-keyboard-response","224","177450","0.0-6.0-1.31","532","","","","","clear_screen","null","null","","","catch","l","sw","sh","188","268","206","172","193","213","trueblood","null","null","null","null","null","null","null","null","null","null","null","","180","200","260","200","36000","52000","[1,3]","440.47334176427745","509.24860004389177","445.5955256142606"
"","canvas-keyboard-response","225","177960","0.0-6.0-2.31","532","","","","","rectangles no change","null","null","","","catch","l","sw","sh","188","268","206","172","193","213","trueblood","null","null","null","null","null","null","null","null","null","null","null","","180","200","260","200","36000","52000","[1,3]","440.47334176427745","509.24860004389177","445.5955256142606"
"","canvas-keyboard-response","226","179294","0.0-6.0-3.31","532","","","","","rectangles with change","null","null","","","catch","l","sw","sh","188","268","206","172","193","213","trueblood","null","null","null","null","null","null","null","null","null","null","null","","180","200","260","200","36000","52000","[1,3]","440.47334176427745","509.24860004389177","445.5955256142606"
"","canvas-keyboard-response","227","179314","0.0-6.0-4.31","532","","","","","clear_screen","null","null","","","catch","l","sw","sh","188","268","206","172","193","213","trueblood","null","null","null","null","null","null","null","null","null","null","null","","180","200","260","200","36000","52000","[1,3]","440.47334176427745","509.24860004389177","445.5955256142606"
"","canvas-keyboard-response","228","181129","0.0-6.0-5.31","532","","","","","make choice","1808","3","","","catch","l","sw","sh","188","268","206","172","193","213","trueblood","null","null","null","null","null","null","null","null","null","null","null","","180","200","260","200","36000","52000","[1,3]","","",""
"","canvas-keyboard-response","229","181146","0.0-6.0-6.31","532","","","","","clear_screen","null","null","","","catch","l","sw","sh","188","268","206","172","193","213","trueblood","null","null","null","null","null","null","null","null","null","null","null","","180","200","260","200","36000","52000","[1,3]","","",""
"","canvas-keyboard-response","230","181347","0.0-6.0-0.32","532","","","","","pre trial waiting period","null","null","","","critical","t","c","d","240","164","164","240","220.0396","154.6796","trueblood","0.14","w","240","164","164","240","220.0396","154.6796","39360","39360","34035.6388","dc","null","null","null","null","null","null","[3,2]","482.5465870849413","462.33389134686433","503.4317340033565"
"","canvas-keyboard-response","231","181367","0.0-6.0-1.32","532","","","","","clear_screen","null","null","","","critical","t","c","d","240","164","164","240","220.0396","154.6796","trueblood","0.14","w","240","164","164","240","220.0396","154.6796","39360","39360","34035.6388","dc","null","null","null","null","null","null","[3,2]","482.5465870849413","462.33389134686433","503.4317340033565"
"","canvas-keyboard-response","232","181880","0.0-6.0-2.32","532","","","","","rectangles no change","null","null","","","critical","t","c","d","240","164","164","240","220.0396","154.6796","trueblood","0.14","w","240","164","164","240","220.0396","154.6796","39360","39360","34035.6388","dc","null","null","null","null","null","null","[3,2]","482.5465870849413","462.33389134686433","503.4317340033565"
"","canvas-keyboard-response","233","183215","0.0-6.0-3.32","532","","","","","rectangles with change","null","null","","","critical","t","c","d","240","164","164","240","220.0396","154.6796","trueblood","0.14","w","240","164","164","240","220.0396","154.6796","39360","39360","34035.6388","dc","null","null","null","null","null","null","[3,2]","482.5465870849413","462.33389134686433","503.4317340033565"
"","canvas-keyboard-response","234","183234","0.0-6.0-4.32","532","","","","","clear_screen","null","null","","","critical","t","c","d","240","164","164","240","220.0396","154.6796","trueblood","0.14","w","240","164","164","240","220.0396","154.6796","39360","39360","34035.6388","dc","null","null","null","null","null","null","[3,2]","482.5465870849413","462.33389134686433","503.4317340033565"
"","canvas-keyboard-response","235","184537","0.0-6.0-5.32","532","","","","","make choice","1291","2","","","critical","t","c","d","240","164","164","240","220.0396","154.6796","trueblood","0.14","w","240","164","164","240","220.0396","154.6796","39360","39360","34035.6388","dc","null","null","null","null","null","null","[3,2]","","",""
"","canvas-keyboard-response","236","184555","0.0-6.0-6.32","532","","","","","clear_screen","null","null","","","critical","t","c","d","240","164","164","240","220.0396","154.6796","trueblood","0.14","w","240","164","164","240","220.0396","154.6796","39360","39360","34035.6388","dc","null","null","null","null","null","null","[3,2]","","",""
"","canvas-keyboard-response","237","184756","0.0-6.0-0.33","532","","","","","pre trial waiting period","null","null","","","critical","d","c","t","220.0396","154.6796","164","240","240","164","spektor","0.14","w","240","164","164","240","220.0396","154.6796","39360","39360","34035.6388","tc","null","null","null","null","null","null","[3,2]","541.3648365795258","137.0758605727918","520.4213305010594"
"","canvas-keyboard-response","238","184775","0.0-6.0-1.33","532","","","","","clear_screen","null","null","","","critical","d","c","t","220.0396","154.6796","164","240","240","164","spektor","0.14","w","240","164","164","240","220.0396","154.6796","39360","39360","34035.6388","tc","null","null","null","null","null","null","[3,2]","541.3648365795258","137.0758605727918","520.4213305010594"
"","canvas-keyboard-response","239","185287","0.0-6.0-2.33","532","","","","","rectangles no change","null","null","","","critical","d","c","t","220.0396","154.6796","164","240","240","164","spektor","0.14","w","240","164","164","240","220.0396","154.6796","39360","39360","34035.6388","tc","null","null","null","null","null","null","[3,2]","541.3648365795258","137.0758605727918","520.4213305010594"
"","canvas-keyboard-response","240","186623","0.0-6.0-3.33","532","","","","","rectangles with change","null","null","","","critical","d","c","t","220.0396","154.6796","164","240","240","164","spektor","0.14","w","240","164","164","240","220.0396","154.6796","39360","39360","34035.6388","tc","null","null","null","null","null","null","[3,2]","541.3648365795258","137.0758605727918","520.4213305010594"
"","canvas-keyboard-response","241","186640","0.0-6.0-4.33","532","","","","","clear_screen","null","null","","","critical","d","c","t","220.0396","154.6796","164","240","240","164","spektor","0.14","w","240","164","164","240","220.0396","154.6796","39360","39360","34035.6388","tc","null","null","null","null","null","null","[3,2]","541.3648365795258","137.0758605727918","520.4213305010594"
"","canvas-keyboard-response","242","186952","0.0-6.0-5.33","532","","","","","make choice","305","3","","","critical","d","c","t","220.0396","154.6796","164","240","240","164","spektor","0.14","w","240","164","164","240","220.0396","154.6796","39360","39360","34035.6388","tc","null","null","null","null","null","null","[3,2]","","",""
"","canvas-keyboard-response","243","186971","0.0-6.0-6.33","532","","","","","clear_screen","null","null","","","critical","d","c","t","220.0396","154.6796","164","240","240","164","spektor","0.14","w","240","164","164","240","220.0396","154.6796","39360","39360","34035.6388","tc","null","null","null","null","null","null","[3,2]","","",""
"","canvas-keyboard-response","244","187172","0.0-6.0-0.34","532","","","","","pre trial waiting period","null","null","","","critical","c","t","d","240","164","164","240","160.6713","232.8713","spektor","0.05","h","164","240","240","164","160.6713","232.8713","39360","39360","37415.7294","tc","null","null","null","null","null","null","[2,1]","507.39386303723364","116.98503486730358","504.3047710896936"
"","canvas-keyboard-response","245","187191","0.0-6.0-1.34","532","","","","","clear_screen","null","null","","","critical","c","t","d","240","164","164","240","160.6713","232.8713","spektor","0.05","h","164","240","240","164","160.6713","232.8713","39360","39360","37415.7294","tc","null","null","null","null","null","null","[2,1]","507.39386303723364","116.98503486730358","504.3047710896936"
"","canvas-keyboard-response","246","187701","0.0-6.0-2.34","532","","","","","rectangles no change","null","null","","","critical","c","t","d","240","164","164","240","160.6713","232.8713","spektor","0.05","h","164","240","240","164","160.6713","232.8713","39360","39360","37415.7294","tc","null","null","null","null","null","null","[2,1]","507.39386303723364","116.98503486730358","504.3047710896936"
"","canvas-keyboard-response","247","189036","0.0-6.0-3.34","532","","","","","rectangles with change","null","null","","","critical","c","t","d","240","164","164","240","160.6713","232.8713","spektor","0.05","h","164","240","240","164","160.6713","232.8713","39360","39360","37415.7294","tc","null","null","null","null","null","null","[2,1]","507.39386303723364","116.98503486730358","504.3047710896936"
"","canvas-keyboard-response","248","189055","0.0-6.0-4.34","532","","","","","clear_screen","null","null","","","critical","c","t","d","240","164","164","240","160.6713","232.8713","spektor","0.05","h","164","240","240","164","160.6713","232.8713","39360","39360","37415.7294","tc","null","null","null","null","null","null","[2,1]","507.39386303723364","116.98503486730358","504.3047710896936"
"","canvas-keyboard-response","249","189425","0.0-6.0-5.34","532","","","","","make choice","362","1","","","critical","c","t","d","240","164","164","240","160.6713","232.8713","spektor","0.05","h","164","240","240","164","160.6713","232.8713","39360","39360","37415.7294","tc","null","null","null","null","null","null","[2,1]","","",""
"","canvas-keyboard-response","250","189442","0.0-6.0-6.34","532","","","","","clear_screen","null","null","","","critical","c","t","d","240","164","164","240","160.6713","232.8713","spektor","0.05","h","164","240","240","164","160.6713","232.8713","39360","39360","37415.7294","tc","null","null","null","null","null","null","[2,1]","","",""
"","canvas-keyboard-response","251","189643","0.0-6.0-0.35","532","","","","","pre trial waiting period","null","null","","","critical","t","c","d","240","164","164","240","240","164","spektor","0","w","240","164","164","240","240","164","39360","39360","39360","dc","null","null","null","null","null","null","[3,2]","536.0300627777135","136.15601603899452","526.9757444765057"
"","canvas-keyboard-response","252","189663","0.0-6.0-1.35","532","","","","","clear_screen","null","null","","","critical","t","c","d","240","164","164","240","240","164","spektor","0","w","240","164","164","240","240","164","39360","39360","39360","dc","null","null","null","null","null","null","[3,2]","536.0300627777135","136.15601603899452","526.9757444765057"
"","canvas-keyboard-response","253","190174","0.0-6.0-2.35","532","","","","","rectangles no change","null","null","","","critical","t","c","d","240","164","164","240","240","164","spektor","0","w","240","164","164","240","240","164","39360","39360","39360","dc","null","null","null","null","null","null","[3,2]","536.0300627777135","136.15601603899452","526.9757444765057"
"","canvas-keyboard-response","254","191509","0.0-6.0-3.35","532","","","","","rectangles with change","null","null","","","critical","t","c","d","240","164","164","240","240","164","spektor","0","w","240","164","164","240","240","164","39360","39360","39360","dc","null","null","null","null","null","null","[3,2]","536.0300627777135","136.15601603899452","526.9757444765057"
"","canvas-keyboard-response","255","191528","0.0-6.0-4.35","532","","","","","clear_screen","null","null","","","critical","t","c","d","240","164","164","240","240","164","spektor","0","w","240","164","164","240","240","164","39360","39360","39360","dc","null","null","null","null","null","null","[3,2]","536.0300627777135","136.15601603899452","526.9757444765057"
"","canvas-keyboard-response","256","191816","0.0-6.0-5.35","532","","","","","make choice","281","3","","","critical","t","c","d","240","164","164","240","240","164","spektor","0","w","240","164","164","240","240","164","39360","39360","39360","dc","null","null","null","null","null","null","[3,2]","","",""
"","canvas-keyboard-response","257","191835","0.0-6.0-6.35","532","","","","","clear_screen","null","null","","","critical","t","c","d","240","164","164","240","240","164","spektor","0","w","240","164","164","240","240","164","39360","39360","39360","dc","null","null","null","null","null","null","[3,2]","","",""
"","canvas-keyboard-response","258","192035","0.0-6.0-0.36","532","","","","","pre trial waiting period","null","null","","","catch","sh","l","sw","179","181","262","230","162","180","trueblood","null","null","null","null","null","null","null","null","null","null","null","","180","200","260","200","36000","52000","[2,3]","491.4891027082049","428.1115398504","481.4088324548894"
"","canvas-keyboard-response","259","192055","0.0-6.0-1.36","532","","","","","clear_screen","null","null","","","catch","sh","l","sw","179","181","262","230","162","180","trueblood","null","null","null","null","null","null","null","null","null","null","null","","180","200","260","200","36000","52000","[2,3]","491.4891027082049","428.1115398504","481.4088324548894"
"","canvas-keyboard-response","260","192568","0.0-6.0-2.36","532","","","","","rectangles no change","null","null","","","catch","sh","l","sw","179","181","262","230","162","180","trueblood","null","null","null","null","null","null","null","null","null","null","null","","180","200","260","200","36000","52000","[2,3]","491.4891027082049","428.1115398504","481.4088324548894"
"","canvas-keyboard-response","261","193903","0.0-6.0-3.36","532","","","","","rectangles with change","null","null","","","catch","sh","l","sw","179","181","262","230","162","180","trueblood","null","null","null","null","null","null","null","null","null","null","null","","180","200","260","200","36000","52000","[2,3]","491.4891027082049","428.1115398504","481.4088324548894"
"","canvas-keyboard-response","262","193922","0.0-6.0-4.36","532","","","","","clear_screen","null","null","","","catch","sh","l","sw","179","181","262","230","162","180","trueblood","null","null","null","null","null","null","null","null","null","null","null","","180","200","260","200","36000","52000","[2,3]","491.4891027082049","428.1115398504","481.4088324548894"
"","canvas-keyboard-response","263","194312","0.0-6.0-5.36","532","","","","","make choice","382","2","","","catch","sh","l","sw","179","181","262","230","162","180","trueblood","null","null","null","null","null","null","null","null","null","null","null","","180","200","260","200","36000","52000","[2,3]","","",""
"","canvas-keyboard-response","264","194331","0.0-6.0-6.36","532","","","","","clear_screen","null","null","","","catch","sh","l","sw","179","181","262","230","162","180","trueblood","null","null","null","null","null","null","null","null","null","null","null","","180","200","260","200","36000","52000","[2,3]","","",""
"","canvas-keyboard-response","265","194532","0.0-6.0-0.37","532","","","","","pre trial waiting period","null","null","","","critical","t","d","c","240","164","237.1485","162.6685","164","240","spektor","0.02","w","240","164","164","240","237.1485","162.6685","39360","39360","38576.5967","dc","null","null","null","null","null","null","[2,3]","512.9711626973451","203.20986771478204","487.22307283589487"
