"success","trial_type","trial_index","time_elapsed","internal_node_id","sub_n","timeout","failed_images","failed_audio","failed_video","screen_id","rt","response","stimulus","view_history","trial","r1","r2","r3","w1","h1","w2","h2","w3","h3","display","tdd","tdo","tw","th","cw","ch","dw","dh","ta","ca","da","probe","csls","csss","clls","clss","sa","la","probe_rects","r1yloc","r2yloc","r3yloc"
"true","fullscreen","0","3182","0.0-0.0","539","","","","","","","","","","","","","","","","","","","","","","","","","","","","","","","","","","","","","","","","","",""
"true","preload","1","3198","0.0-1.0","539","false","[]","[]","[]","img preload","","","","","","","","","","","","","","","","","","","","","","","","","","","","","","","","","","","","",""
"","survey-html-form","2","15281","0.0-2.0","539","","","","","enter-sub-number","12076","{""response"":""539""}","","","","","","","","","","","","","","","","","","","","","","","","","","","","","","","","","","",""
"","image-button-response","3","54079","0.0-3.0","539","","","","","","38734","0","consent.png","","","","","","","","","","","","","","","","","","","","","","","","","","","","","","","","","",""
"","html-button-response","4","56262","0.0-4.0","539","","","","","intro mssg","2177","0","<div style= ""font-size:25px;"" <p> <strong> Welcome! </strong><br> <p style=""color:#8B0000; font-size:25px;""><strong> Please do NOT exit full screen until you are done with the experiment. </strong> </p><p style=""font-size:25px;color:#8B0000;""> <strong> Your data will be lost <br> if you try to go back or refresh the page after the experiment starts. Feel free to click ""previous"" during the instructions, however.</strong> </p><br><p> <strong> Thanks in advance for your contribution to our research! </strong></p>","","","","","","","","","","","","","","","","","","","","","","","","","","","","","","","","","",""
"","instructions","5","92567","0.0-5.0","539","","","","","instructions","36300","","","[{""page_index"":0,""viewing_time"":5524},{""page_index"":1,""viewing_time"":5544},{""page_index"":2,""viewing_time"":3127},{""page_index"":3,""viewing_time"":12234},{""page_index"":4,""viewing_time"":4400},{""page_index"":5,""viewing_time"":2128},{""page_index"":6,""viewing_time"":1944},{""page_index"":7,""viewing_time"":1399}]","","","","","","","","","","","","","","","","","","","","","","","","","","","","","","","","",""
"","canvas-keyboard-response","6","92771","0.0-6.0-0.0","539","","","","","pre trial waiting period","null","null","","","critical","d","t","c","160.6713","232.8713","164","240","240","164","trueblood","0.05","h","164","240","240","164","160.6713","232.8713","39360","39360","37415.7294","tc","null","null","null","null","null","null","[2,3]","443.0013067023377","429.78207787199574","480.2879032085497"
"","canvas-keyboard-response","7","92794","0.0-6.0-1.0","539","","","","","clear_screen","null","null","","","critical","d","t","c","160.6713","232.8713","164","240","240","164","trueblood","0.05","h","164","240","240","164","160.6713","232.8713","39360","39360","37415.7294","tc","null","null","null","null","null","null","[2,3]","443.0013067023377","429.78207787199574","480.2879032085497"
"","canvas-keyboard-response","8","93305","0.0-6.0-2.0","539","","","","","rectangles no change","null","null","","","critical","d","t","c","160.6713","232.8713","164","240","240","164","trueblood","0.05","h","164","240","240","164","160.6713","232.8713","39360","39360","37415.7294","tc","null","null","null","null","null","null","[2,3]","443.0013067023377","429.78207787199574","480.2879032085497"
"","canvas-keyboard-response","9","94647","0.0-6.0-3.0","539","","","","","rectangles with change","null","null","","","critical","d","t","c","160.6713","232.8713","164","240","240","164","trueblood","0.05","h","164","240","240","164","160.6713","232.8713","39360","39360","37415.7294","tc","null","null","null","null","null","null","[2,3]","443.0013067023377","429.78207787199574","480.2879032085497"
"","canvas-keyboard-response","10","94671","0.0-6.0-4.0","539","","","","","clear_screen","null","null","","","critical","d","t","c","160.6713","232.8713","164","240","240","164","trueblood","0.05","h","164","240","240","164","160.6713","232.8713","39360","39360","37415.7294","tc","null","null","null","null","null","null","[2,3]","443.0013067023377","429.78207787199574","480.2879032085497"
"","canvas-keyboard-response","11","96479","0.0-6.0-5.0","539","","","","","make choice","1803","2","","","critical","d","t","c","160.6713","232.8713","164","240","240","164","trueblood","0.05","h","164","240","240","164","160.6713","232.8713","39360","39360","37415.7294","tc","null","null","null","null","null","null","[2,3]","","",""
"","canvas-keyboard-response","12","96497","0.0-6.0-6.0","539","","","","","clear_screen","null","null","","","critical","d","t","c","160.6713","232.8713","164","240","240","164","trueblood","0.05","h","164","240","240","164","160.6713","232.8713","39360","39360","37415.7294","tc","null","null","null","null","null","null","[2,3]","","",""
"","canvas-keyboard-response","13","96698","0.0-6.0-0.1","539","","","","","pre trial waiting period","null","null","","","critical","t","d","c","240","164","220.0396","154.6796","164","240","trueblood","0.14","w","240","164","164","240","220.0396","154.6796","39360","39360","34035.6388","td","null","null","null","null","null","null","[1,2]","496.71709006271084","479.63155208202653","440.6751295489342"
"","canvas-keyboard-response","14","96721","0.0-6.0-1.1","539","","","","","clear_screen","null","null","","","critical","t","d","c","240","164","220.0396","154.6796","164","240","trueblood","0.14","w","240","164","164","240","220.0396","154.6796","39360","39360","34035.6388","td","null","null","null","null","null","null","[1,2]","496.71709006271084","479.63155208202653","440.6751295489342"
"","canvas-keyboard-response","15","97227","0.0-6.0-2.1","539","","","","","rectangles no change","null","null","","","critical","t","d","c","240","164","220.0396","154.6796","164","240","trueblood","0.14","w","240","164","164","240","220.0396","154.6796","39360","39360","34035.6388","td","null","null","null","null","null","null","[1,2]","496.71709006271084","479.63155208202653","440.6751295489342"
"","canvas-keyboard-response","16","98565","0.0-6.0-3.1","539","","","","","rectangles with change","null","null","","","critical","t","d","c","240","164","220.0396","154.6796","164","240","trueblood","0.14","w","240","164","164","240","220.0396","154.6796","39360","39360","34035.6388","td","null","null","null","null","null","null","[1,2]","496.71709006271084","479.63155208202653","440.6751295489342"
"","canvas-keyboard-response","17","98583","0.0-6.0-4.1","539","","","","","clear_screen","null","null","","","critical","t","d","c","240","164","220.0396","154.6796","164","240","trueblood","0.14","w","240","164","164","240","220.0396","154.6796","39360","39360","34035.6388","td","null","null","null","null","null","null","[1,2]","496.71709006271084","479.63155208202653","440.6751295489342"
"","canvas-keyboard-response","18","99134","0.0-6.0-5.1","539","","","","","make choice","539","1","","","critical","t","d","c","240","164","220.0396","154.6796","164","240","trueblood","0.14","w","240","164","164","240","220.0396","154.6796","39360","39360","34035.6388","td","null","null","null","null","null","null","[1,2]","","",""
"","canvas-keyboard-response","19","99152","0.0-6.0-6.1","539","","","","","clear_screen","null","null","","","critical","t","d","c","240","164","220.0396","154.6796","164","240","trueblood","0.14","w","240","164","164","240","220.0396","154.6796","39360","39360","34035.6388","td","null","null","null","null","null","null","[1,2]","","",""
"","canvas-keyboard-response","20","99353","0.0-6.0-0.2","539","","","","","pre trial waiting period","null","null","","","catch","l","sw","sh","227","234","203","239","219","147","trueblood","null","null","null","null","null","null","null","null","null","null","null","","180","200","260","200","36000","52000","[1,2]","445.90452919153813","433.06824479224974","516.3048443348498"
"","canvas-keyboard-response","21","99372","0.0-6.0-1.2","539","","","","","clear_screen","null","null","","","catch","l","sw","sh","227","234","203","239","219","147","trueblood","null","null","null","null","null","null","null","null","null","null","null","","180","200","260","200","36000","52000","[1,2]","445.90452919153813","433.06824479224974","516.3048443348498"
"","canvas-keyboard-response","22","99879","0.0-6.0-2.2","539","","","","","rectangles no change","null","null","","","catch","l","sw","sh","227","234","203","239","219","147","trueblood","null","null","null","null","null","null","null","null","null","null","null","","180","200","260","200","36000","52000","[1,2]","445.90452919153813","433.06824479224974","516.3048443348498"
"","canvas-keyboard-response","23","101219","0.0-6.0-3.2","539","","","","","rectangles with change","null","null","","","catch","l","sw","sh","227","234","203","239","219","147","trueblood","null","null","null","null","null","null","null","null","null","null","null","","180","200","260","200","36000","52000","[1,2]","445.90452919153813","433.06824479224974","516.3048443348498"
"","canvas-keyboard-response","24","101241","0.0-6.0-4.2","539","","","","","clear_screen","null","null","","","catch","l","sw","sh","227","234","203","239","219","147","trueblood","null","null","null","null","null","null","null","null","null","null","null","","180","200","260","200","36000","52000","[1,2]","445.90452919153813","433.06824479224974","516.3048443348498"
"","canvas-keyboard-response","25","101485","0.0-6.0-5.2","539","","","","","make choice","241","1","","","catch","l","sw","sh","227","234","203","239","219","147","trueblood","null","null","null","null","null","null","null","null","null","null","null","","180","200","260","200","36000","52000","[1,2]","","",""
"","canvas-keyboard-response","26","101506","0.0-6.0-6.2","539","","","","","clear_screen","null","null","","","catch","l","sw","sh","227","234","203","239","219","147","trueblood","null","null","null","null","null","null","null","null","null","null","null","","180","200","260","200","36000","52000","[1,2]","","",""
"","canvas-keyboard-response","27","101708","0.0-6.0-0.3","539","","","","","pre trial waiting period","null","null","","","critical","d","c","t","162.6685","237.1485","240","164","164","240","trueblood","0.02","h","164","240","240","164","162.6685","237.1485","39360","39360","38576.5967","tc","null","null","null","null","null","null","[3,2]","452.07656139911535","486.16754752177803","452.3041668088213"
"","canvas-keyboard-response","28","101731","0.0-6.0-1.3","539","","","","","clear_screen","null","null","","","critical","d","c","t","162.6685","237.1485","240","164","164","240","trueblood","0.02","h","164","240","240","164","162.6685","237.1485","39360","39360","38576.5967","tc","null","null","null","null","null","null","[3,2]","452.07656139911535","486.16754752177803","452.3041668088213"
"","canvas-keyboard-response","29","102239","0.0-6.0-2.3","539","","","","","rectangles no change","null","null","","","critical","d","c","t","162.6685","237.1485","240","164","164","240","trueblood","0.02","h","164","240","240","164","162.6685","237.1485","39360","39360","38576.5967","tc","null","null","null","null","null","null","[3,2]","452.07656139911535","486.16754752177803","452.3041668088213"
"","canvas-keyboard-response","30","103574","0.0-6.0-3.3","539","","","","","rectangles with change","null","null","","","critical","d","c","t","162.6685","237.1485","240","164","164","240","trueblood","0.02","h","164","240","240","164","162.6685","237.1485","39360","39360","38576.5967","tc","null","null","null","null","null","null","[3,2]","452.07656139911535","486.16754752177803","452.3041668088213"
"","canvas-keyboard-response","31","103594","0.0-6.0-4.3","539","","","","","clear_screen","null","null","","","critical","d","c","t","162.6685","237.1485","240","164","164","240","trueblood","0.02","h","164","240","240","164","162.6685","237.1485","39360","39360","38576.5967","tc","null","null","null","null","null","null","[3,2]","452.07656139911535","486.16754752177803","452.3041668088213"
"","canvas-keyboard-response","32","104166","0.0-6.0-5.3","539","","","","","make choice","568","3","","","critical","d","c","t","162.6685","237.1485","240","164","164","240","trueblood","0.02","h","164","240","240","164","162.6685","237.1485","39360","39360","38576.5967","tc","null","null","null","null","null","null","[3,2]","","",""
"","canvas-keyboard-response","33","104185","0.0-6.0-6.3","539","","","","","clear_screen","null","null","","","critical","d","c","t","162.6685","237.1485","240","164","164","240","trueblood","0.02","h","164","240","240","164","162.6685","237.1485","39360","39360","38576.5967","tc","null","null","null","null","null","null","[3,2]","","",""
"","canvas-keyboard-response","34","104385","0.0-6.0-0.4","539","","","","","pre trial waiting period","null","null","","","critical","d","c","t","227.1683","158.0083","164","240","240","164","trueblood","0.09","w","240","164","164","240","227.1683","158.0083","39360","39360","35894.4834","dc","null","null","null","null","null","null","[1,2]","516.7782597527065","462.7861116325499","491.43668198803886"
"","canvas-keyboard-response","35","104406","0.0-6.0-1.4","539","","","","","clear_screen","null","null","","","critical","d","c","t","227.1683","158.0083","164","240","240","164","trueblood","0.09","w","240","164","164","240","227.1683","158.0083","39360","39360","35894.4834","dc","null","null","null","null","null","null","[1,2]","516.7782597527065","462.7861116325499","491.43668198803886"
"","canvas-keyboard-response","36","104913","0.0-6.0-2.4","539","","","","","rectangles no change","null","null","","","critical","d","c","t","227.1683","158.0083","164","240","240","164","trueblood","0.09","w","240","164","164","240","227.1683","158.0083","39360","39360","35894.4834","dc","null","null","null","null","null","null","[1,2]","516.7782597527065","462.7861116325499","491.43668198803886"
"","canvas-keyboard-response","37","106247","0.0-6.0-3.4","539","","","","","rectangles with change","null","null","","","critical","d","c","t","227.1683","158.0083","164","240","240","164","trueblood","0.09","w","240","164","164","240","227.1683","158.0083","39360","39360","35894.4834","dc","null","null","null","null","null","null","[1,2]","516.7782597527065","462.7861116325499","491.43668198803886"
"","canvas-keyboard-response","38","106268","0.0-6.0-4.4","539","","","","","clear_screen","null","null","","","critical","d","c","t","227.1683","158.0083","164","240","240","164","trueblood","0.09","w","240","164","164","240","227.1683","158.0083","39360","39360","35894.4834","dc","null","null","null","null","null","null","[1,2]","516.7782597527065","462.7861116325499","491.43668198803886"
"","canvas-keyboard-response","39","106430","0.0-6.0-5.4","539","","","","","make choice","156","1","","","critical","d","c","t","227.1683","158.0083","164","240","240","164","trueblood","0.09","w","240","164","164","240","227.1683","158.0083","39360","39360","35894.4834","dc","null","null","null","null","null","null","[1,2]","","",""
"","canvas-keyboard-response","40","106449","0.0-6.0-6.4","539","","","","","clear_screen","null","null","","","critical","d","c","t","227.1683","158.0083","164","240","240","164","trueblood","0.09","w","240","164","164","240","227.1683","158.0083","39360","39360","35894.4834","dc","null","null","null","null","null","null","[1,2]","","",""
"","canvas-keyboard-response","41","106651","0.0-6.0-0.5","539","","","","","pre trial waiting period","null","null","","","catch","sw","l","sh","180","200","298","163","217","173","trueblood","null","null","null","null","null","null","null","null","null","null","null","","180","200","260","200","36000","52000","[1,2]","483.18798827252135","514.9398013079878","492.989259142326"
"","canvas-keyboard-response","42","106672","0.0-6.0-1.5","539","","","","","clear_screen","null","null","","","catch","sw","l","sh","180","200","298","163","217","173","trueblood","null","null","null","null","null","null","null","null","null","null","null","","180","200","260","200","36000","52000","[1,2]","483.18798827252135","514.9398013079878","492.989259142326"
"","canvas-keyboard-response","43","107183","0.0-6.0-2.5","539","","","","","rectangles no change","null","null","","","catch","sw","l","sh","180","200","298","163","217","173","trueblood","null","null","null","null","null","null","null","null","null","null","null","","180","200","260","200","36000","52000","[1,2]","483.18798827252135","514.9398013079878","492.989259142326"
"","canvas-keyboard-response","44","108521","0.0-6.0-3.5","539","","","","","rectangles with change","null","null","","","catch","sw","l","sh","180","200","298","163","217","173","trueblood","null","null","null","null","null","null","null","null","null","null","null","","180","200","260","200","36000","52000","[1,2]","483.18798827252135","514.9398013079878","492.989259142326"
"","canvas-keyboard-response","45","108539","0.0-6.0-4.5","539","","","","","clear_screen","null","null","","","catch","sw","l","sh","180","200","298","163","217","173","trueblood","null","null","null","null","null","null","null","null","null","null","null","","180","200","260","200","36000","52000","[1,2]","483.18798827252135","514.9398013079878","492.989259142326"
"","canvas-keyboard-response","46","110045","0.0-6.0-5.5","539","","","","","make choice","1500","2","","","catch","sw","l","sh","180","200","298","163","217","173","trueblood","null","null","null","null","null","null","null","null","null","null","null","","180","200","260","200","36000","52000","[1,2]","","",""
"","canvas-keyboard-response","47","110065","0.0-6.0-6.5","539","","","","","clear_screen","null","null","","","catch","sw","l","sh","180","200","298","163","217","173","trueblood","null","null","null","null","null","null","null","null","null","null","null","","180","200","260","200","36000","52000","[1,2]","","",""
"","canvas-keyboard-response","48","110265","0.0-6.0-0.6","539","","","","","pre trial waiting period","null","null","","","critical","c","t","d","164","240","240","164","232.8713","160.6713","trueblood","0.05","w","240","164","164","240","232.8713","160.6713","39360","39360","37415.7294","dc","null","null","null","null","null","null","[3,1]","439.7734723015235","477.8325963328394","474.81754854000945"
"","canvas-keyboard-response","49","110287","0.0-6.0-1.6","539","","","","","clear_screen","null","null","","","critical","c","t","d","164","240","240","164","232.8713","160.6713","trueblood","0.05","w","240","164","164","240","232.8713","160.6713","39360","39360","37415.7294","dc","null","null","null","null","null","null","[3,1]","439.7734723015235","477.8325963328394","474.81754854000945"
"","canvas-keyboard-response","50","110797","0.0-6.0-2.6","539","","","","","rectangles no change","null","null","","","critical","c","t","d","164","240","240","164","232.8713","160.6713","trueblood","0.05","w","240","164","164","240","232.8713","160.6713","39360","39360","37415.7294","dc","null","null","null","null","null","null","[3,1]","439.7734723015235","477.8325963328394","474.81754854000945"
"","canvas-keyboard-response","51","112133","0.0-6.0-3.6","539","","","","","rectangles with change","null","null","","","critical","c","t","d","164","240","240","164","232.8713","160.6713","trueblood","0.05","w","240","164","164","240","232.8713","160.6713","39360","39360","37415.7294","dc","null","null","null","null","null","null","[3,1]","439.7734723015235","477.8325963328394","474.81754854000945"
"","canvas-keyboard-response","52","112155","0.0-6.0-4.6","539","","","","","clear_screen","null","null","","","critical","c","t","d","164","240","240","164","232.8713","160.6713","trueblood","0.05","w","240","164","164","240","232.8713","160.6713","39360","39360","37415.7294","dc","null","null","null","null","null","null","[3,1]","439.7734723015235","477.8325963328394","474.81754854000945"
"","canvas-keyboard-response","53","113166","0.0-6.0-5.6","539","","","","","make choice","1004","3","","","critical","c","t","d","164","240","240","164","232.8713","160.6713","trueblood","0.05","w","240","164","164","240","232.8713","160.6713","39360","39360","37415.7294","dc","null","null","null","null","null","null","[3,1]","","",""
"","canvas-keyboard-response","54","113182","0.0-6.0-6.6","539","","","","","clear_screen","null","null","","","critical","c","t","d","164","240","240","164","232.8713","160.6713","trueblood","0.05","w","240","164","164","240","232.8713","160.6713","39360","39360","37415.7294","dc","null","null","null","null","null","null","[3,1]","","",""
"","canvas-keyboard-response","55","113384","0.0-6.0-0.7","539","","","","","pre trial waiting period","null","null","","","critical","c","t","d","240","164","164","240","158.0083","227.1683","trueblood","0.09","h","164","240","240","164","158.0083","227.1683","39360","39360","35894.4834","dc","null","null","null","null","null","null","[3,1]","479.8414265852836","436.60073946532543","462.5589725761379"
"","canvas-keyboard-response","56","113403","0.0-6.0-1.7","539","","","","","clear_screen","null","null","","","critical","c","t","d","240","164","164","240","158.0083","227.1683","trueblood","0.09","h","164","240","240","164","158.0083","227.1683","39360","39360","35894.4834","dc","null","null","null","null","null","null","[3,1]","479.8414265852836","436.60073946532543","462.5589725761379"
"","canvas-keyboard-response","57","113908","0.0-6.0-2.7","539","","","","","rectangles no change","null","null","","","critical","c","t","d","240","164","164","240","158.0083","227.1683","trueblood","0.09","h","164","240","240","164","158.0083","227.1683","39360","39360","35894.4834","dc","null","null","null","null","null","null","[3,1]","479.8414265852836","436.60073946532543","462.5589725761379"
"","canvas-keyboard-response","58","115244","0.0-6.0-3.7","539","","","","","rectangles with change","null","null","","","critical","c","t","d","240","164","164","240","158.0083","227.1683","trueblood","0.09","h","164","240","240","164","158.0083","227.1683","39360","39360","35894.4834","dc","null","null","null","null","null","null","[3,1]","479.8414265852836","436.60073946532543","462.5589725761379"
"","canvas-keyboard-response","59","115266","0.0-6.0-4.7","539","","","","","clear_screen","null","null","","","critical","c","t","d","240","164","164","240","158.0083","227.1683","trueblood","0.09","h","164","240","240","164","158.0083","227.1683","39360","39360","35894.4834","dc","null","null","null","null","null","null","[3,1]","479.8414265852836","436.60073946532543","462.5589725761379"
"","canvas-keyboard-response","60","115614","0.0-6.0-5.7","539","","","","","make choice","345","1","","","critical","c","t","d","240","164","164","240","158.0083","227.1683","trueblood","0.09","h","164","240","240","164","158.0083","227.1683","39360","39360","35894.4834","dc","null","null","null","null","null","null","[3,1]","","",""
"","canvas-keyboard-response","61","115631","0.0-6.0-6.7","539","","","","","clear_screen","null","null","","","critical","c","t","d","240","164","164","240","158.0083","227.1683","trueblood","0.09","h","164","240","240","164","158.0083","227.1683","39360","39360","35894.4834","dc","null","null","null","null","null","null","[3,1]","","",""
"","canvas-keyboard-response","62","115832","0.0-6.0-0.8","539","","","","","pre trial waiting period","null","null","","","catch","l","sw","sh","237","243","159","166","180","141","spektor","null","null","null","null","null","null","null","null","null","null","null","","180","200","260","200","36000","52000","[1,2]","497.01128946795137","210.82245132746294","529.7977279262788"
"","canvas-keyboard-response","63","115853","0.0-6.0-1.8","539","","","","","clear_screen","null","null","","","catch","l","sw","sh","237","243","159","166","180","141","spektor","null","null","null","null","null","null","null","null","null","null","null","","180","200","260","200","36000","52000","[1,2]","497.01128946795137","210.82245132746294","529.7977279262788"
"","canvas-keyboard-response","64","116360","0.0-6.0-2.8","539","","","","","rectangles no change","null","null","","","catch","l","sw","sh","237","243","159","166","180","141","spektor","null","null","null","null","null","null","null","null","null","null","null","","180","200","260","200","36000","52000","[1,2]","497.01128946795137","210.82245132746294","529.7977279262788"
"","canvas-keyboard-response","65","117698","0.0-6.0-3.8","539","","","","","rectangles with change","null","null","","","catch","l","sw","sh","237","243","159","166","180","141","spektor","null","null","null","null","null","null","null","null","null","null","null","","180","200","260","200","36000","52000","[1,2]","497.01128946795137","210.82245132746294","529.7977279262788"
"","canvas-keyboard-response","66","117716","0.0-6.0-4.8","539","","","","","clear_screen","null","null","","","catch","l","sw","sh","237","243","159","166","180","141","spektor","null","null","null","null","null","null","null","null","null","null","null","","180","200","260","200","36000","52000","[1,2]","497.01128946795137","210.82245132746294","529.7977279262788"
"","canvas-keyboard-response","67","118014","0.0-6.0-5.8","539","","","","","make choice","289","1","","","catch","l","sw","sh","237","243","159","166","180","141","spektor","null","null","null","null","null","null","null","null","null","null","null","","180","200","260","200","36000","52000","[1,2]","","",""
"","canvas-keyboard-response","68","118032","0.0-6.0-6.8","539","","","","","clear_screen","null","null","","","catch","l","sw","sh","237","243","159","166","180","141","spektor","null","null","null","null","null","null","null","null","null","null","null","","180","200","260","200","36000","52000","[1,2]","","",""
"","canvas-keyboard-response","69","118233","0.0-6.0-0.9","539","","","","","pre trial waiting period","null","null","","","catch","l","sh","sw","299","235","184","148","164","185","spektor","null","null","null","null","null","null","null","null","null","null","null","","180","200","260","200","36000","52000","[1,3]","492.6475286455002","194.1399609027681","504.9653204641467"
"","canvas-keyboard-response","70","118254","0.0-6.0-1.9","539","","","","","clear_screen","null","null","","","catch","l","sh","sw","299","235","184","148","164","185","spektor","null","null","null","null","null","null","null","null","null","null","null","","180","200","260","200","36000","52000","[1,3]","492.6475286455002","194.1399609027681","504.9653204641467"
"","canvas-keyboard-response","71","118759","0.0-6.0-2.9","539","","","","","rectangles no change","null","null","","","catch","l","sh","sw","299","235","184","148","164","185","spektor","null","null","null","null","null","null","null","null","null","null","null","","180","200","260","200","36000","52000","[1,3]","492.6475286455002","194.1399609027681","504.9653204641467"
"","canvas-keyboard-response","72","120099","0.0-6.0-3.9","539","","","","","rectangles with change","null","null","","","catch","l","sh","sw","299","235","184","148","164","185","spektor","null","null","null","null","null","null","null","null","null","null","null","","180","200","260","200","36000","52000","[1,3]","492.6475286455002","194.1399609027681","504.9653204641467"
"","canvas-keyboard-response","73","120121","0.0-6.0-4.9","539","","","","","clear_screen","null","null","","","catch","l","sh","sw","299","235","184","148","164","185","spektor","null","null","null","null","null","null","null","null","null","null","null","","180","200","260","200","36000","52000","[1,3]","492.6475286455002","194.1399609027681","504.9653204641467"
"","canvas-keyboard-response","74","120125","0.0-6.0-5.9","539","","","","","make choice","1","1","","","catch","l","sh","sw","299","235","184","148","164","185","spektor","null","null","null","null","null","null","null","null","null","null","null","","180","200","260","200","36000","52000","[1,3]","","",""
"","canvas-keyboard-response","75","120142","0.0-6.0-6.9","539","","","","","clear_screen","null","null","","","catch","l","sh","sw","299","235","184","148","164","185","spektor","null","null","null","null","null","null","null","null","null","null","null","","180","200","260","200","36000","52000","[1,3]","","",""
"","canvas-keyboard-response","76","120342","0.0-6.0-0.10","539","","","","","pre trial waiting period","null","null","","","critical","c","t","d","240","164","164","240","164","240","trueblood","0","h","164","240","240","164","164","240","39360","39360","39360","td","null","null","null","null","null","null","[2,3]","511.9847054446217","453.8594328366934","426.2790553150965"
"","canvas-keyboard-response","77","120363","0.0-6.0-1.10","539","","","","","clear_screen","null","null","","","critical","c","t","d","240","164","164","240","164","240","trueblood","0","h","164","240","240","164","164","240","39360","39360","39360","td","null","null","null","null","null","null","[2,3]","511.9847054446217","453.8594328366934","426.2790553150965"
"","canvas-keyboard-response","78","120870","0.0-6.0-2.10","539","","","","","rectangles no change","null","null","","","critical","c","t","d","240","164","164","240","164","240","trueblood","0","h","164","240","240","164","164","240","39360","39360","39360","td","null","null","null","null","null","null","[2,3]","511.9847054446217","453.8594328366934","426.2790553150965"
"","canvas-keyboard-response","79","122208","0.0-6.0-3.10","539","","","","","rectangles with change","null","null","","","critical","c","t","d","240","164","164","240","164","240","trueblood","0","h","164","240","240","164","164","240","39360","39360","39360","td","null","null","null","null","null","null","[2,3]","511.9847054446217","453.8594328366934","426.2790553150965"
"","canvas-keyboard-response","80","122230","0.0-6.0-4.10","539","","","","","clear_screen","null","null","","","critical","c","t","d","240","164","164","240","164","240","trueblood","0","h","164","240","240","164","164","240","39360","39360","39360","td","null","null","null","null","null","null","[2,3]","511.9847054446217","453.8594328366934","426.2790553150965"
"","canvas-keyboard-response","81","122589","0.0-6.0-5.10","539","","","","","make choice","354","2","","","critical","c","t","d","240","164","164","240","164","240","trueblood","0","h","164","240","240","164","164","240","39360","39360","39360","td","null","null","null","null","null","null","[2,3]","","",""
"","canvas-keyboard-response","82","122606","0.0-6.0-6.10","539","","","","","clear_screen","null","null","","","critical","c","t","d","240","164","164","240","164","240","trueblood","0","h","164","240","240","164","164","240","39360","39360","39360","td","null","null","null","null","null","null","[2,3]","","",""
"","canvas-keyboard-response","83","122807","0.0-6.0-0.11","539","","","","","pre trial waiting period","null","null","","","critical","c","t","d","240","164","164","240","162.6685","237.1485","spektor","0.02","h","164","240","240","164","162.6685","237.1485","39360","39360","38576.5967","dc","null","null","null","null","null","null","[3,1]","513.1746274197101","112.75786271260067","465.7882785417934"
"","canvas-keyboard-response","84","122826","0.0-6.0-1.11","539","","","","","clear_screen","null","null","","","critical","c","t","d","240","164","164","240","162.6685","237.1485","spektor","0.02","h","164","240","240","164","162.6685","237.1485","39360","39360","38576.5967","dc","null","null","null","null","null","null","[3,1]","513.1746274197101","112.75786271260067","465.7882785417934"
"","canvas-keyboard-response","85","123337","0.0-6.0-2.11","539","","","","","rectangles no change","null","null","","","critical","c","t","d","240","164","164","240","162.6685","237.1485","spektor","0.02","h","164","240","240","164","162.6685","237.1485","39360","39360","38576.5967","dc","null","null","null","null","null","null","[3,1]","513.1746274197101","112.75786271260067","465.7882785417934"
"","canvas-keyboard-response","86","124672","0.0-6.0-3.11","539","","","","","rectangles with change","null","null","","","critical","c","t","d","240","164","164","240","162.6685","237.1485","spektor","0.02","h","164","240","240","164","162.6685","237.1485","39360","39360","38576.5967","dc","null","null","null","null","null","null","[3,1]","513.1746274197101","112.75786271260067","465.7882785417934"
"","canvas-keyboard-response","87","124692","0.0-6.0-4.11","539","","","","","clear_screen","null","null","","","critical","c","t","d","240","164","164","240","162.6685","237.1485","spektor","0.02","h","164","240","240","164","162.6685","237.1485","39360","39360","38576.5967","dc","null","null","null","null","null","null","[3,1]","513.1746274197101","112.75786271260067","465.7882785417934"
"","canvas-keyboard-response","88","125614","0.0-6.0-5.11","539","","","","","make choice","916","3","","","critical","c","t","d","240","164","164","240","162.6685","237.1485","spektor","0.02","h","164","240","240","164","162.6685","237.1485","39360","39360","38576.5967","dc","null","null","null","null","null","null","[3,1]","","",""
"","canvas-keyboard-response","89","125632","0.0-6.0-6.11","539","","","","","clear_screen","null","null","","","critical","c","t","d","240","164","164","240","162.6685","237.1485","spektor","0.02","h","164","240","240","164","162.6685","237.1485","39360","39360","38576.5967","dc","null","null","null","null","null","null","[3,1]","","",""
"","canvas-keyboard-response","90","125833","0.0-6.0-0.12","539","","","","","pre trial waiting period","null","null","","","critical","d","c","t","240","164","164","240","240","164","spektor","0","w","240","164","164","240","240","164","39360","39360","39360","dc","null","null","null","null","null","null","[1,2]","517.9330173655735","134.8250517517821","506.8366114670565"
"","canvas-keyboard-response","91","125853","0.0-6.0-1.12","539","","","","","clear_screen","null","null","","","critical","d","c","t","240","164","164","240","240","164","spektor","0","w","240","164","164","240","240","164","39360","39360","39360","dc","null","null","null","null","null","null","[1,2]","517.9330173655735","134.8250517517821","506.8366114670565"
"","canvas-keyboard-response","92","126364","0.0-6.0-2.12","539","","","","","rectangles no change","null","null","","","critical","d","c","t","240","164","164","240","240","164","spektor","0","w","240","164","164","240","240","164","39360","39360","39360","dc","null","null","null","null","null","null","[1,2]","517.9330173655735","134.8250517517821","506.8366114670565"
"","canvas-keyboard-response","93","127704","0.0-6.0-3.12","539","","","","","rectangles with change","null","null","","","critical","d","c","t","240","164","164","240","240","164","spektor","0","w","240","164","164","240","240","164","39360","39360","39360","dc","null","null","null","null","null","null","[1,2]","517.9330173655735","134.8250517517821","506.8366114670565"
"","canvas-keyboard-response","94","127722","0.0-6.0-4.12","539","","","","","clear_screen","null","null","","","critical","d","c","t","240","164","164","240","240","164","spektor","0","w","240","164","164","240","240","164","39360","39360","39360","dc","null","null","null","null","null","null","[1,2]","517.9330173655735","134.8250517517821","506.8366114670565"
"","canvas-keyboard-response","95","128141","0.0-6.0-5.12","539","","","","","make choice","414","1","","","critical","d","c","t","240","164","164","240","240","164","spektor","0","w","240","164","164","240","240","164","39360","39360","39360","dc","null","null","null","null","null","null","[1,2]","","",""
"","canvas-keyboard-response","96","128163","0.0-6.0-6.12","539","","","","","clear_screen","null","null","","","critical","d","c","t","240","164","164","240","240","164","spektor","0","w","240","164","164","240","240","164","39360","39360","39360","dc","null","null","null","null","null","null","[1,2]","","",""
"","canvas-keyboard-response","97","128365","0.0-6.0-0.13","539","","","","","pre trial waiting period","null","null","","","catch","sh","sw","l","184","212","182","176","202","237","spektor","null","null","null","null","null","null","null","null","null","null","null","","180","200","260","200","36000","52000","[1,3]","484.3303304256274","146.09876504040653","461.54656931827924"
"","canvas-keyboard-response","98","128386","0.0-6.0-1.13","539","","","","","clear_screen","null","null","","","catch","sh","sw","l","184","212","182","176","202","237","spektor","null","null","null","null","null","null","null","null","null","null","null","","180","200","260","200","36000","52000","[1,3]","484.3303304256274","146.09876504040653","461.54656931827924"
"","canvas-keyboard-response","99","128892","0.0-6.0-2.13","539","","","","","rectangles no change","null","null","","","catch","sh","sw","l","184","212","182","176","202","237","spektor","null","null","null","null","null","null","null","null","null","null","null","","180","200","260","200","36000","52000","[1,3]","484.3303304256274","146.09876504040653","461.54656931827924"
"","canvas-keyboard-response","100","130227","0.0-6.0-3.13","539","","","","","rectangles with change","null","null","","","catch","sh","sw","l","184","212","182","176","202","237","spektor","null","null","null","null","null","null","null","null","null","null","null","","180","200","260","200","36000","52000","[1,3]","484.3303304256274","146.09876504040653","461.54656931827924"
"","canvas-keyboard-response","101","130248","0.0-6.0-4.13","539","","","","","clear_screen","null","null","","","catch","sh","sw","l","184","212","182","176","202","237","spektor","null","null","null","null","null","null","null","null","null","null","null","","180","200","260","200","36000","52000","[1,3]","484.3303304256274","146.09876504040653","461.54656931827924"
"","canvas-keyboard-response","102","130973","0.0-6.0-5.13","539","","","","","make choice","721","3","","","catch","sh","sw","l","184","212","182","176","202","237","spektor","null","null","null","null","null","null","null","null","null","null","null","","180","200","260","200","36000","52000","[1,3]","","",""
"","canvas-keyboard-response","103","130991","0.0-6.0-6.13","539","","","","","clear_screen","null","null","","","catch","sh","sw","l","184","212","182","176","202","237","spektor","null","null","null","null","null","null","null","null","null","null","null","","180","200","260","200","36000","52000","[1,3]","","",""
"","canvas-keyboard-response","104","131192","0.0-6.0-0.14","539","","","","","pre trial waiting period","null","null","","","catch","l","sh","sw","190","272","215","172","162","167","trueblood","null","null","null","null","null","null","null","null","null","null","null","","180","200","260","200","36000","52000","[1,2]","431.5369347850404","508.01433791851815","481.7800220313882"
"","canvas-keyboard-response","105","131216","0.0-6.0-1.14","539","","","","","clear_screen","null","null","","","catch","l","sh","sw","190","272","215","172","162","167","trueblood","null","null","null","null","null","null","null","null","null","null","null","","180","200","260","200","36000","52000","[1,2]","431.5369347850404","508.01433791851815","481.7800220313882"
"","canvas-keyboard-response","106","131723","0.0-6.0-2.14","539","","","","","rectangles no change","null","null","","","catch","l","sh","sw","190","272","215","172","162","167","trueblood","null","null","null","null","null","null","null","null","null","null","null","","180","200","260","200","36000","52000","[1,2]","431.5369347850404","508.01433791851815","481.7800220313882"
"","canvas-keyboard-response","107","133060","0.0-6.0-3.14","539","","","","","rectangles with change","null","null","","","catch","l","sh","sw","190","272","215","172","162","167","trueblood","null","null","null","null","null","null","null","null","null","null","null","","180","200","260","200","36000","52000","[1,2]","431.5369347850404","508.01433791851815","481.7800220313882"
"","canvas-keyboard-response","108","133080","0.0-6.0-4.14","539","","","","","clear_screen","null","null","","","catch","l","sh","sw","190","272","215","172","162","167","trueblood","null","null","null","null","null","null","null","null","null","null","null","","180","200","260","200","36000","52000","[1,2]","431.5369347850404","508.01433791851815","481.7800220313882"
"","canvas-keyboard-response","109","134326","0.0-6.0-5.14","539","","","","","make choice","1239","2","","","catch","l","sh","sw","190","272","215","172","162","167","trueblood","null","null","null","null","null","null","null","null","null","null","null","","180","200","260","200","36000","52000","[1,2]","","",""
"","canvas-keyboard-response","110","134347","0.0-6.0-6.14","539","","","","","clear_screen","null","null","","","catch","l","sh","sw","190","272","215","172","162","167","trueblood","null","null","null","null","null","null","null","null","null","null","null","","180","200","260","200","36000","52000","[1,2]","","",""
"","canvas-keyboard-response","111","134548","0.0-6.0-0.15","539","","","","","pre trial waiting period","null","null","","","critical","d","t","c","240","164","240","164","164","240","trueblood","0","w","240","164","164","240","240","164","39360","39360","39360","td","null","null","null","null","null","null","[2,1]","506.34331329877966","506.9424083581888","444.68012711459176"
"","canvas-keyboard-response","112","134562","0.0-6.0-1.15","539","","","","","clear_screen","null","null","","","critical","d","t","c","240","164","240","164","164","240","trueblood","0","w","240","164","164","240","240","164","39360","39360","39360","td","null","null","null","null","null","null","[2,1]","506.34331329877966","506.9424083581888","444.68012711459176"
"","canvas-keyboard-response","113","135070","0.0-6.0-2.15","539","","","","","rectangles no change","null","null","","","critical","d","t","c","240","164","240","164","164","240","trueblood","0","w","240","164","164","240","240","164","39360","39360","39360","td","null","null","null","null","null","null","[2,1]","506.34331329877966","506.9424083581888","444.68012711459176"
"","canvas-keyboard-response","114","136407","0.0-6.0-3.15","539","","","","","rectangles with change","null","null","","","critical","d","t","c","240","164","240","164","164","240","trueblood","0","w","240","164","164","240","240","164","39360","39360","39360","td","null","null","null","null","null","null","[2,1]","506.34331329877966","506.9424083581888","444.68012711459176"
"","canvas-keyboard-response","115","136429","0.0-6.0-4.15","539","","","","","clear_screen","null","null","","","critical","d","t","c","240","164","240","164","164","240","trueblood","0","w","240","164","164","240","240","164","39360","39360","39360","td","null","null","null","null","null","null","[2,1]","506.34331329877966","506.9424083581888","444.68012711459176"
"","canvas-keyboard-response","116","137645","0.0-6.0-5.15","539","","","","","make choice","1206","1","","","critical","d","t","c","240","164","240","164","164","240","trueblood","0","w","240","164","164","240","240","164","39360","39360","39360","td","null","null","null","null","null","null","[2,1]","","",""
"","canvas-keyboard-response","117","137662","0.0-6.0-6.15","539","","","","","clear_screen","null","null","","","critical","d","t","c","240","164","240","164","164","240","trueblood","0","w","240","164","164","240","240","164","39360","39360","39360","td","null","null","null","null","null","null","[2,1]","","",""
"","canvas-keyboard-response","118","137863","0.0-6.0-0.16","539","","","","","pre trial waiting period","null","null","","","critical","t","d","c","240","164","240","164","164","240","spektor","0","w","240","164","164","240","240","164","39360","39360","39360","td","null","null","null","null","null","null","[1,2]","508.116675198211","179.53093850508122","480.2417526825869"
"","canvas-keyboard-response","119","137887","0.0-6.0-1.16","539","","","","","clear_screen","null","null","","","critical","t","d","c","240","164","240","164","164","240","spektor","0","w","240","164","164","240","240","164","39360","39360","39360","td","null","null","null","null","null","null","[1,2]","508.116675198211","179.53093850508122","480.2417526825869"
"","canvas-keyboard-response","120","138394","0.0-6.0-2.16","539","","","","","rectangles no change","null","null","","","critical","t","d","c","240","164","240","164","164","240","spektor","0","w","240","164","164","240","240","164","39360","39360","39360","td","null","null","null","null","null","null","[1,2]","508.116675198211","179.53093850508122","480.2417526825869"
"","canvas-keyboard-response","121","139734","0.0-6.0-3.16","539","","","","","rectangles with change","null","null","","","critical","t","d","c","240","164","240","164","164","240","spektor","0","w","240","164","164","240","240","164","39360","39360","39360","td","null","null","null","null","null","null","[1,2]","508.116675198211","179.53093850508122","480.2417526825869"
"","canvas-keyboard-response","122","139755","0.0-6.0-4.16","539","","","","","clear_screen","null","null","","","critical","t","d","c","240","164","240","164","164","240","spektor","0","w","240","164","164","240","240","164","39360","39360","39360","td","null","null","null","null","null","null","[1,2]","508.116675198211","179.53093850508122","480.2417526825869"
"","canvas-keyboard-response","123","140068","0.0-6.0-5.16","539","","","","","make choice","308","2","","","critical","t","d","c","240","164","240","164","164","240","spektor","0","w","240","164","164","240","240","164","39360","39360","39360","td","null","null","null","null","null","null","[1,2]","","",""
"","canvas-keyboard-response","124","140085","0.0-6.0-6.16","539","","","","","clear_screen","null","null","","","critical","t","d","c","240","164","240","164","164","240","spektor","0","w","240","164","164","240","240","164","39360","39360","39360","td","null","null","null","null","null","null","[1,2]","","",""
"","canvas-keyboard-response","125","140287","0.0-6.0-0.17","539","","","","","pre trial waiting period","null","null","","","catch","l","sw","sh","177","220","186","223","205","164","spektor","null","null","null","null","null","null","null","null","null","null","null","","180","200","260","200","36000","52000","[1,3]","504.2517969351409","149.5214956445975","533.679398789445"
"","canvas-keyboard-response","126","140305","0.0-6.0-1.17","539","","","","","clear_screen","null","null","","","catch","l","sw","sh","177","220","186","223","205","164","spektor","null","null","null","null","null","null","null","null","null","null","null","","180","200","260","200","36000","52000","[1,3]","504.2517969351409","149.5214956445975","533.679398789445"
"","canvas-keyboard-response","127","140812","0.0-6.0-2.17","539","","","","","rectangles no change","null","null","","","catch","l","sw","sh","177","220","186","223","205","164","spektor","null","null","null","null","null","null","null","null","null","null","null","","180","200","260","200","36000","52000","[1,3]","504.2517969351409","149.5214956445975","533.679398789445"
"","canvas-keyboard-response","128","142148","0.0-6.0-3.17","539","","","","","rectangles with change","null","null","","","catch","l","sw","sh","177","220","186","223","205","164","spektor","null","null","null","null","null","null","null","null","null","null","null","","180","200","260","200","36000","52000","[1,3]","504.2517969351409","149.5214956445975","533.679398789445"
"","canvas-keyboard-response","129","142171","0.0-6.0-4.17","539","","","","","clear_screen","null","null","","","catch","l","sw","sh","177","220","186","223","205","164","spektor","null","null","null","null","null","null","null","null","null","null","null","","180","200","260","200","36000","52000","[1,3]","504.2517969351409","149.5214956445975","533.679398789445"
"","canvas-keyboard-response","130","143142","0.0-6.0-5.17","539","","","","","make choice","966","1","","","catch","l","sw","sh","177","220","186","223","205","164","spektor","null","null","null","null","null","null","null","null","null","null","null","","180","200","260","200","36000","52000","[1,3]","","",""
"","canvas-keyboard-response","131","143159","0.0-6.0-6.17","539","","","","","clear_screen","null","null","","","catch","l","sw","sh","177","220","186","223","205","164","spektor","null","null","null","null","null","null","null","null","null","null","null","","180","200","260","200","36000","52000","[1,3]","","",""
"","canvas-keyboard-response","132","143359","0.0-6.0-0.18","539","","","","","pre trial waiting period","null","null","","","catch","sh","sw","l","228","171","213","189","219","260","trueblood","null","null","null","null","null","null","null","null","null","null","null","","180","200","260","200","36000","52000","[1,3]","493.11747705195194","489.3643216759676","441.0313830467504"
"","canvas-keyboard-response","133","143383","0.0-6.0-1.18","539","","","","","clear_screen","null","null","","","catch","sh","sw","l","228","171","213","189","219","260","trueblood","null","null","null","null","null","null","null","null","null","null","null","","180","200","260","200","36000","52000","[1,3]","493.11747705195194","489.3643216759676","441.0313830467504"
"","canvas-keyboard-response","134","143890","0.0-6.0-2.18","539","","","","","rectangles no change","null","null","","","catch","sh","sw","l","228","171","213","189","219","260","trueblood","null","null","null","null","null","null","null","null","null","null","null","","180","200","260","200","36000","52000","[1,3]","493.11747705195194","489.3643216759676","441.0313830467504"
"","canvas-keyboard-response","135","145227","0.0-6.0-3.18","539","","","","","rectangles with change","null","null","","","catch","sh","sw","l","228","171","213","189","219","260","trueblood","null","null","null","null","null","null","null","null","null","null","null","","180","200","260","200","36000","52000","[1,3]","493.11747705195194","489.3643216759676","441.0313830467504"
"","canvas-keyboard-response","136","145248","0.0-6.0-4.18","539","","","","","clear_screen","null","null","","","catch","sh","sw","l","228","171","213","189","219","260","trueblood","null","null","null","null","null","null","null","null","null","null","null","","180","200","260","200","36000","52000","[1,3]","493.11747705195194","489.3643216759676","441.0313830467504"
"","canvas-keyboard-response","137","145982","0.0-6.0-5.18","539","","","","","make choice","728","3","","","catch","sh","sw","l","228","171","213","189","219","260","trueblood","null","null","null","null","null","null","null","null","null","null","null","","180","200","260","200","36000","52000","[1,3]","","",""
"","canvas-keyboard-response","138","145999","0.0-6.0-6.18","539","","","","","clear_screen","null","null","","","catch","sh","sw","l","228","171","213","189","219","260","trueblood","null","null","null","null","null","null","null","null","null","null","null","","180","200","260","200","36000","52000","[1,3]","","",""
"","canvas-keyboard-response","139","146200","0.0-6.0-0.19","539","","","","","pre trial waiting period","null","null","","","catch","sw","l","sh","180","200","203","249","210","153","spektor","null","null","null","null","null","null","null","null","null","null","null","","180","200","260","200","36000","52000","[1,2]","495.81842094928726","133.65931640289259","506.2741389970451"
"","canvas-keyboard-response","140","146223","0.0-6.0-1.19","539","","","","","clear_screen","null","null","","","catch","sw","l","sh","180","200","203","249","210","153","spektor","null","null","null","null","null","null","null","null","null","null","null","","180","200","260","200","36000","52000","[1,2]","495.81842094928726","133.65931640289259","506.2741389970451"
"","canvas-keyboard-response","141","146732","0.0-6.0-2.19","539","","","","","rectangles no change","null","null","","","catch","sw","l","sh","180","200","203","249","210","153","spektor","null","null","null","null","null","null","null","null","null","null","null","","180","200","260","200","36000","52000","[1,2]","495.81842094928726","133.65931640289259","506.2741389970451"
"","canvas-keyboard-response","142","148070","0.0-6.0-3.19","539","","","","","rectangles with change","null","null","","","catch","sw","l","sh","180","200","203","249","210","153","spektor","null","null","null","null","null","null","null","null","null","null","null","","180","200","260","200","36000","52000","[1,2]","495.81842094928726","133.65931640289259","506.2741389970451"
"","canvas-keyboard-response","143","148089","0.0-6.0-4.19","539","","","","","clear_screen","null","null","","","catch","sw","l","sh","180","200","203","249","210","153","spektor","null","null","null","null","null","null","null","null","null","null","null","","180","200","260","200","36000","52000","[1,2]","495.81842094928726","133.65931640289259","506.2741389970451"
"","canvas-keyboard-response","144","148847","0.0-6.0-5.19","539","","","","","make choice","753","2","","","catch","sw","l","sh","180","200","203","249","210","153","spektor","null","null","null","null","null","null","null","null","null","null","null","","180","200","260","200","36000","52000","[1,2]","","",""
"","canvas-keyboard-response","145","148863","0.0-6.0-6.19","539","","","","","clear_screen","null","null","","","catch","sw","l","sh","180","200","203","249","210","153","spektor","null","null","null","null","null","null","null","null","null","null","null","","180","200","260","200","36000","52000","[1,2]","","",""
"","canvas-keyboard-response","146","149065","0.0-6.0-0.20","539","","","","","pre trial waiting period","null","null","","","catch","sw","sh","l","180","200","218","214","242","228","spektor","null","null","null","null","null","null","null","null","null","null","null","","180","200","260","200","36000","52000","[2,3]","486.98332399187683","141.30169361120835","508.7093120239989"
"","canvas-keyboard-response","147","149087","0.0-6.0-1.20","539","","","","","clear_screen","null","null","","","catch","sw","sh","l","180","200","218","214","242","228","spektor","null","null","null","null","null","null","null","null","null","null","null","","180","200","260","200","36000","52000","[2,3]","486.98332399187683","141.30169361120835","508.7093120239989"
"","canvas-keyboard-response","148","149593","0.0-6.0-2.20","539","","","","","rectangles no change","null","null","","","catch","sw","sh","l","180","200","218","214","242","228","spektor","null","null","null","null","null","null","null","null","null","null","null","","180","200","260","200","36000","52000","[2,3]","486.98332399187683","141.30169361120835","508.7093120239989"
"","canvas-keyboard-response","149","150932","0.0-6.0-3.20","539","","","","","rectangles with change","null","null","","","catch","sw","sh","l","180","200","218","214","242","228","spektor","null","null","null","null","null","null","null","null","null","null","null","","180","200","260","200","36000","52000","[2,3]","486.98332399187683","141.30169361120835","508.7093120239989"
"","canvas-keyboard-response","150","150954","0.0-6.0-4.20","539","","","","","clear_screen","null","null","","","catch","sw","sh","l","180","200","218","214","242","228","spektor","null","null","null","null","null","null","null","null","null","null","null","","180","200","260","200","36000","52000","[2,3]","486.98332399187683","141.30169361120835","508.7093120239989"
"","canvas-keyboard-response","151","151261","0.0-6.0-5.20","539","","","","","make choice","302","3","","","catch","sw","sh","l","180","200","218","214","242","228","spektor","null","null","null","null","null","null","null","null","null","null","null","","180","200","260","200","36000","52000","[2,3]","","",""
"","canvas-keyboard-response","152","151282","0.0-6.0-6.20","539","","","","","clear_screen","null","null","","","catch","sw","sh","l","180","200","218","214","242","228","spektor","null","null","null","null","null","null","null","null","null","null","null","","180","200","260","200","36000","52000","[2,3]","","",""
"","canvas-keyboard-response","153","151484","0.0-6.0-0.21","539","","","","","pre trial waiting period","null","null","","","critical","t","c","d","240","164","164","240","232.8713","160.6713","spektor","0.05","w","240","164","164","240","232.8713","160.6713","39360","39360","37415.7294","tc","null","null","null","null","null","null","[1,2]","527.1100510419514","112.65988338675696","497.6540743582249"
"","canvas-keyboard-response","154","151502","0.0-6.0-1.21","539","","","","","clear_screen","null","null","","","critical","t","c","d","240","164","164","240","232.8713","160.6713","spektor","0.05","w","240","164","164","240","232.8713","160.6713","39360","39360","37415.7294","tc","null","null","null","null","null","null","[1,2]","527.1100510419514","112.65988338675696","497.6540743582249"
"","canvas-keyboard-response","155","152010","0.0-6.0-2.21","539","","","","","rectangles no change","null","null","","","critical","t","c","d","240","164","164","240","232.8713","160.6713","spektor","0.05","w","240","164","164","240","232.8713","160.6713","39360","39360","37415.7294","tc","null","null","null","null","null","null","[1,2]","527.1100510419514","112.65988338675696","497.6540743582249"
"","canvas-keyboard-response","156","153351","0.0-6.0-3.21","539","","","","","rectangles with change","null","null","","","critical","t","c","d","240","164","164","240","232.8713","160.6713","spektor","0.05","w","240","164","164","240","232.8713","160.6713","39360","39360","37415.7294","tc","null","null","null","null","null","null","[1,2]","527.1100510419514","112.65988338675696","497.6540743582249"
"","canvas-keyboard-response","157","153369","0.0-6.0-4.21","539","","","","","clear_screen","null","null","","","critical","t","c","d","240","164","164","240","232.8713","160.6713","spektor","0.05","w","240","164","164","240","232.8713","160.6713","39360","39360","37415.7294","tc","null","null","null","null","null","null","[1,2]","527.1100510419514","112.65988338675696","497.6540743582249"
"","canvas-keyboard-response","158","153645","0.0-6.0-5.21","539","","","","","make choice","269","1","","","critical","t","c","d","240","164","164","240","232.8713","160.6713","spektor","0.05","w","240","164","164","240","232.8713","160.6713","39360","39360","37415.7294","tc","null","null","null","null","null","null","[1,2]","","",""
"","canvas-keyboard-response","159","153664","0.0-6.0-6.21","539","","","","","clear_screen","null","null","","","critical","t","c","d","240","164","164","240","232.8713","160.6713","spektor","0.05","w","240","164","164","240","232.8713","160.6713","39360","39360","37415.7294","tc","null","null","null","null","null","null","[1,2]","","",""
"","canvas-keyboard-response","160","153865","0.0-6.0-0.22","539","","","","","pre trial waiting period","null","null","","","critical","t","c","d","240","164","164","240","237.1485","162.6685","spektor","0.02","w","240","164","164","240","237.1485","162.6685","39360","39360","38576.5967","td","null","null","null","null","null","null","[1,3]","535.15687021826","144.36956332070184","523.6280012812114"
"","canvas-keyboard-response","161","153885","0.0-6.0-1.22","539","","","","","clear_screen","null","null","","","critical","t","c","d","240","164","164","240","237.1485","162.6685","spektor","0.02","w","240","164","164","240","237.1485","162.6685","39360","39360","38576.5967","td","null","null","null","null","null","null","[1,3]","535.15687021826","144.36956332070184","523.6280012812114"
"","canvas-keyboard-response","162","154394","0.0-6.0-2.22","539","","","","","rectangles no change","null","null","","","critical","t","c","d","240","164","164","240","237.1485","162.6685","spektor","0.02","w","240","164","164","240","237.1485","162.6685","39360","39360","38576.5967","td","null","null","null","null","null","null","[1,3]","535.15687021826","144.36956332070184","523.6280012812114"
"","canvas-keyboard-response","163","155729","0.0-6.0-3.22","539","","","","","rectangles with change","null","null","","","critical","t","c","d","240","164","164","240","237.1485","162.6685","spektor","0.02","w","240","164","164","240","237.1485","162.6685","39360","39360","38576.5967","td","null","null","null","null","null","null","[1,3]","535.15687021826","144.36956332070184","523.6280012812114"
"","canvas-keyboard-response","164","155749","0.0-6.0-4.22","539","","","","","clear_screen","null","null","","","critical","t","c","d","240","164","164","240","237.1485","162.6685","spektor","0.02","w","240","164","164","240","237.1485","162.6685","39360","39360","38576.5967","td","null","null","null","null","null","null","[1,3]","535.15687021826","144.36956332070184","523.6280012812114"
"","canvas-keyboard-response","165","156558","0.0-6.0-5.22","539","","","","","make choice","801","3","","","critical","t","c","d","240","164","164","240","237.1485","162.6685","spektor","0.02","w","240","164","164","240","237.1485","162.6685","39360","39360","38576.5967","td","null","null","null","null","null","null","[1,3]","","",""
"","canvas-keyboard-response","166","156576","0.0-6.0-6.22","539","","","","","clear_screen","null","null","","","critical","t","c","d","240","164","164","240","237.1485","162.6685","spektor","0.02","w","240","164","164","240","237.1485","162.6685","39360","39360","38576.5967","td","null","null","null","null","null","null","[1,3]","","",""
"","canvas-keyboard-response","167","156777","0.0-6.0-0.23","539","","","","","pre trial waiting period","null","null","","","critical","t","c","d","164","240","240","164","158.0083","227.1683","spektor","0.09","h","164","240","240","164","158.0083","227.1683","39360","39360","35894.4834","dc","null","null","null","null","null","null","[3,2]","501.3970785842388","183.0923579118457","472.9174862869636"
"","canvas-keyboard-response","168","156796","0.0-6.0-1.23","539","","","","","clear_screen","null","null","","","critical","t","c","d","164","240","240","164","158.0083","227.1683","spektor","0.09","h","164","240","240","164","158.0083","227.1683","39360","39360","35894.4834","dc","null","null","null","null","null","null","[3,2]","501.3970785842388","183.0923579118457","472.9174862869636"
"","canvas-keyboard-response","169","157301","0.0-6.0-2.23","539","","","","","rectangles no change","null","null","","","critical","t","c","d","164","240","240","164","158.0083","227.1683","spektor","0.09","h","164","240","240","164","158.0083","227.1683","39360","39360","35894.4834","dc","null","null","null","null","null","null","[3,2]","501.3970785842388","183.0923579118457","472.9174862869636"
"","canvas-keyboard-response","170","158637","0.0-6.0-3.23","539","","","","","rectangles with change","null","null","","","critical","t","c","d","164","240","240","164","158.0083","227.1683","spektor","0.09","h","164","240","240","164","158.0083","227.1683","39360","39360","35894.4834","dc","null","null","null","null","null","null","[3,2]","501.3970785842388","183.0923579118457","472.9174862869636"
"","canvas-keyboard-response","171","158660","0.0-6.0-4.23","539","","","","","clear_screen","null","null","","","critical","t","c","d","164","240","240","164","158.0083","227.1683","spektor","0.09","h","164","240","240","164","158.0083","227.1683","39360","39360","35894.4834","dc","null","null","null","null","null","null","[3,2]","501.3970785842388","183.0923579118457","472.9174862869636"
"","canvas-keyboard-response","172","160374","0.0-6.0-5.23","539","","","","","make choice","1709","2","","","critical","t","c","d","164","240","240","164","158.0083","227.1683","spektor","0.09","h","164","240","240","164","158.0083","227.1683","39360","39360","35894.4834","dc","null","null","null","null","null","null","[3,2]","","",""
"","canvas-keyboard-response","173","160394","0.0-6.0-6.23","539","","","","","clear_screen","null","null","","","critical","t","c","d","164","240","240","164","158.0083","227.1683","spektor","0.09","h","164","240","240","164","158.0083","227.1683","39360","39360","35894.4834","dc","null","null","null","null","null","null","[3,2]","","",""
"","canvas-keyboard-response","174","160596","0.0-6.0-0.24","539","","","","","pre trial waiting period","null","null","","","critical","d","t","c","160.6713","232.8713","164","240","240","164","trueblood","0.05","h","164","240","240","164","160.6713","232.8713","39360","39360","37415.7294","td","null","null","null","null","null","null","[2,1]","426.22858880591207","430.2669962574061","489.9438522604861"
"","canvas-keyboard-response","175","160616","0.0-6.0-1.24","539","","","","","clear_screen","null","null","","","critical","d","t","c","160.6713","232.8713","164","240","240","164","trueblood","0.05","h","164","240","240","164","160.6713","232.8713","39360","39360","37415.7294","td","null","null","null","null","null","null","[2,1]","426.22858880591207","430.2669962574061","489.9438522604861"
"","canvas-keyboard-response","176","161126","0.0-6.0-2.24","539","","","","","rectangles no change","null","null","","","critical","d","t","c","160.6713","232.8713","164","240","240","164","trueblood","0.05","h","164","240","240","164","160.6713","232.8713","39360","39360","37415.7294","td","null","null","null","null","null","null","[2,1]","426.22858880591207","430.2669962574061","489.9438522604861"
"","canvas-keyboard-response","177","162465","0.0-6.0-3.24","539","","","","","rectangles with change","null","null","","","critical","d","t","c","160.6713","232.8713","164","240","240","164","trueblood","0.05","h","164","240","240","164","160.6713","232.8713","39360","39360","37415.7294","td","null","null","null","null","null","null","[2,1]","426.22858880591207","430.2669962574061","489.9438522604861"
"","canvas-keyboard-response","178","162487","0.0-6.0-4.24","539","","","","","clear_screen","null","null","","","critical","d","t","c","160.6713","232.8713","164","240","240","164","trueblood","0.05","h","164","240","240","164","160.6713","232.8713","39360","39360","37415.7294","td","null","null","null","null","null","null","[2,1]","426.22858880591207","430.2669962574061","489.9438522604861"
"","canvas-keyboard-response","179","163543","0.0-6.0-5.24","539","","","","","make choice","1048","2","","","critical","d","t","c","160.6713","232.8713","164","240","240","164","trueblood","0.05","h","164","240","240","164","160.6713","232.8713","39360","39360","37415.7294","td","null","null","null","null","null","null","[2,1]","","",""
"","canvas-keyboard-response","180","163564","0.0-6.0-6.24","539","","","","","clear_screen","null","null","","","critical","d","t","c","160.6713","232.8713","164","240","240","164","trueblood","0.05","h","164","240","240","164","160.6713","232.8713","39360","39360","37415.7294","td","null","null","null","null","null","null","[2,1]","","",""
"","canvas-keyboard-response","181","163765","0.0-6.0-0.25","539","","","","","pre trial waiting period","null","null","","","catch","sw","l","sh","180","200","232","189","198","201","trueblood","null","null","null","null","null","null","null","null","null","null","null","","180","200","260","200","36000","52000","[1,2]","490.0937255211152","462.42466027029457","458.05806648594904"
"","canvas-keyboard-response","182","163781","0.0-6.0-1.25","539","","","","","clear_screen","null","null","","","catch","sw","l","sh","180","200","232","189","198","201","trueblood","null","null","null","null","null","null","null","null","null","null","null","","180","200","260","200","36000","52000","[1,2]","490.0937255211152","462.42466027029457","458.05806648594904"
"","canvas-keyboard-response","183","164291","0.0-6.0-2.25","539","","","","","rectangles no change","null","null","","","catch","sw","l","sh","180","200","232","189","198","201","trueblood","null","null","null","null","null","null","null","null","null","null","null","","180","200","260","200","36000","52000","[1,2]","490.0937255211152","462.42466027029457","458.05806648594904"
"","canvas-keyboard-response","184","165628","0.0-6.0-3.25","539","","","","","rectangles with change","null","null","","","catch","sw","l","sh","180","200","232","189","198","201","trueblood","null","null","null","null","null","null","null","null","null","null","null","","180","200","260","200","36000","52000","[1,2]","490.0937255211152","462.42466027029457","458.05806648594904"
"","canvas-keyboard-response","185","165648","0.0-6.0-4.25","539","","","","","clear_screen","null","null","","","catch","sw","l","sh","180","200","232","189","198","201","trueblood","null","null","null","null","null","null","null","null","null","null","null","","180","200","260","200","36000","52000","[1,2]","490.0937255211152","462.42466027029457","458.05806648594904"
"","canvas-keyboard-response","186","166134","0.0-6.0-5.25","539","","","","","make choice","479","2","","","catch","sw","l","sh","180","200","232","189","198","201","trueblood","null","null","null","null","null","null","null","null","null","null","null","","180","200","260","200","36000","52000","[1,2]","","",""
"","canvas-keyboard-response","187","166153","0.0-6.0-6.25","539","","","","","clear_screen","null","null","","","catch","sw","l","sh","180","200","232","189","198","201","trueblood","null","null","null","null","null","null","null","null","null","null","null","","180","200","260","200","36000","52000","[1,2]","","",""
"","canvas-keyboard-response","188","166355","0.0-6.0-0.26","539","","","","","pre trial waiting period","null","null","","","critical","d","c","t","227.1683","158.0083","164","240","240","164","trueblood","0.09","w","240","164","164","240","227.1683","158.0083","39360","39360","35894.4834","td","null","null","null","null","null","null","[3,1]","496.33354142915215","432.7002711370148","482.7660614337972"
"","canvas-keyboard-response","189","166379","0.0-6.0-1.26","539","","","","","clear_screen","null","null","","","critical","d","c","t","227.1683","158.0083","164","240","240","164","trueblood","0.09","w","240","164","164","240","227.1683","158.0083","39360","39360","35894.4834","td","null","null","null","null","null","null","[3,1]","496.33354142915215","432.7002711370148","482.7660614337972"
"","canvas-keyboard-response","190","166884","0.0-6.0-2.26","539","","","","","rectangles no change","null","null","","","critical","d","c","t","227.1683","158.0083","164","240","240","164","trueblood","0.09","w","240","164","164","240","227.1683","158.0083","39360","39360","35894.4834","td","null","null","null","null","null","null","[3,1]","496.33354142915215","432.7002711370148","482.7660614337972"
"","canvas-keyboard-response","191","168220","0.0-6.0-3.26","539","","","","","rectangles with change","null","null","","","critical","d","c","t","227.1683","158.0083","164","240","240","164","trueblood","0.09","w","240","164","164","240","227.1683","158.0083","39360","39360","35894.4834","td","null","null","null","null","null","null","[3,1]","496.33354142915215","432.7002711370148","482.7660614337972"
"","canvas-keyboard-response","192","168243","0.0-6.0-4.26","539","","","","","clear_screen","null","null","","","critical","d","c","t","227.1683","158.0083","164","240","240","164","trueblood","0.09","w","240","164","164","240","227.1683","158.0083","39360","39360","35894.4834","td","null","null","null","null","null","null","[3,1]","496.33354142915215","432.7002711370148","482.7660614337972"
"","canvas-keyboard-response","193","168974","0.0-6.0-5.26","539","","","","","make choice","725","3","","","critical","d","c","t","227.1683","158.0083","164","240","240","164","trueblood","0.09","w","240","164","164","240","227.1683","158.0083","39360","39360","35894.4834","td","null","null","null","null","null","null","[3,1]","","",""
"","canvas-keyboard-response","194","168993","0.0-6.0-6.26","539","","","","","clear_screen","null","null","","","critical","d","c","t","227.1683","158.0083","164","240","240","164","trueblood","0.09","w","240","164","164","240","227.1683","158.0083","39360","39360","35894.4834","td","null","null","null","null","null","null","[3,1]","","",""
"","canvas-keyboard-response","195","169194","0.0-6.0-0.27","539","","","","","pre trial waiting period","null","null","","","critical","t","d","c","164","240","164","240","240","164","spektor","0","h","164","240","240","164","164","240","39360","39360","39360","dc","null","null","null","null","null","null","[2,3]","488.7118668527141","110.80667343619525","529.8306932244093"
"","canvas-keyboard-response","196","169214","0.0-6.0-1.27","539","","","","","clear_screen","null","null","","","critical","t","d","c","164","240","164","240","240","164","spektor","0","h","164","240","240","164","164","240","39360","39360","39360","dc","null","null","null","null","null","null","[2,3]","488.7118668527141","110.80667343619525","529.8306932244093"
"","canvas-keyboard-response","197","169720","0.0-6.0-2.27","539","","","","","rectangles no change","null","null","","","critical","t","d","c","164","240","164","240","240","164","spektor","0","h","164","240","240","164","164","240","39360","39360","39360","dc","null","null","null","null","null","null","[2,3]","488.7118668527141","110.80667343619525","529.8306932244093"
"","canvas-keyboard-response","198","171056","0.0-6.0-3.27","539","","","","","rectangles with change","null","null","","","critical","t","d","c","164","240","164","240","240","164","spektor","0","h","164","240","240","164","164","240","39360","39360","39360","dc","null","null","null","null","null","null","[2,3]","488.7118668527141","110.80667343619525","529.8306932244093"
"","canvas-keyboard-response","199","171080","0.0-6.0-4.27","539","","","","","clear_screen","null","null","","","critical","t","d","c","164","240","164","240","240","164","spektor","0","h","164","240","240","164","164","240","39360","39360","39360","dc","null","null","null","null","null","null","[2,3]","488.7118668527141","110.80667343619525","529.8306932244093"
"","canvas-keyboard-response","200","171718","0.0-6.0-5.27","539","","","","","make choice","633","3","","","critical","t","d","c","164","240","164","240","240","164","spektor","0","h","164","240","240","164","164","240","39360","39360","39360","dc","null","null","null","null","null","null","[2,3]","","",""
"","canvas-keyboard-response","201","171736","0.0-6.0-6.27","539","","","","","clear_screen","null","null","","","critical","t","d","c","164","240","164","240","240","164","spektor","0","h","164","240","240","164","164","240","39360","39360","39360","dc","null","null","null","null","null","null","[2,3]","","",""
"","canvas-keyboard-response","202","171937","0.0-6.0-0.28","539","","","","","pre trial waiting period","null","null","","","catch","sh","l","sw","191","172","174","247","152","231","trueblood","null","null","null","null","null","null","null","null","null","null","null","","180","200","260","200","36000","52000","[1,2]","510.58600787988934","415.65194612461823","453.5263922300829"
"","canvas-keyboard-response","203","171961","0.0-6.0-1.28","539","","","","","clear_screen","null","null","","","catch","sh","l","sw","191","172","174","247","152","231","trueblood","null","null","null","null","null","null","null","null","null","null","null","","180","200","260","200","36000","52000","[1,2]","510.58600787988934","415.65194612461823","453.5263922300829"
"","canvas-keyboard-response","204","172466","0.0-6.0-2.28","539","","","","","rectangles no change","null","null","","","catch","sh","l","sw","191","172","174","247","152","231","trueblood","null","null","null","null","null","null","null","null","null","null","null","","180","200","260","200","36000","52000","[1,2]","510.58600787988934","415.65194612461823","453.5263922300829"
"","canvas-keyboard-response","205","173804","0.0-6.0-3.28","539","","","","","rectangles with change","null","null","","","catch","sh","l","sw","191","172","174","247","152","231","trueblood","null","null","null","null","null","null","null","null","null","null","null","","180","200","260","200","36000","52000","[1,2]","510.58600787988934","415.65194612461823","453.5263922300829"
"","canvas-keyboard-response","206","173820","0.0-6.0-4.28","539","","","","","clear_screen","null","null","","","catch","sh","l","sw","191","172","174","247","152","231","trueblood","null","null","null","null","null","null","null","null","null","null","null","","180","200","260","200","36000","52000","[1,2]","510.58600787988934","415.65194612461823","453.5263922300829"
"","canvas-keyboard-response","207","174486","0.0-6.0-5.28","539","","","","","make choice","659","2","","","catch","sh","l","sw","191","172","174","247","152","231","trueblood","null","null","null","null","null","null","null","null","null","null","null","","180","200","260","200","36000","52000","[1,2]","","",""
"","canvas-keyboard-response","208","174508","0.0-6.0-6.28","539","","","","","clear_screen","null","null","","","catch","sh","l","sw","191","172","174","247","152","231","trueblood","null","null","null","null","null","null","null","null","null","null","null","","180","200","260","200","36000","52000","[1,2]","","",""
"","canvas-keyboard-response","209","174708","0.0-6.0-0.29","539","","","","","pre trial waiting period","null","null","","","critical","t","c","d","240","164","164","240","232.8713","160.6713","spektor","0.05","w","240","164","164","240","232.8713","160.6713","39360","39360","37415.7294","dc","null","null","null","null","null","null","[3,2]","501.93721364153294","112.22474319602509","500.06535852512246"
"","canvas-keyboard-response","210","174727","0.0-6.0-1.29","539","","","","","clear_screen","null","null","","","critical","t","c","d","240","164","164","240","232.8713","160.6713","spektor","0.05","w","240","164","164","240","232.8713","160.6713","39360","39360","37415.7294","dc","null","null","null","null","null","null","[3,2]","501.93721364153294","112.22474319602509","500.06535852512246"
"","canvas-keyboard-response","211","175239","0.0-6.0-2.29","539","","","","","rectangles no change","null","null","","","critical","t","c","d","240","164","164","240","232.8713","160.6713","spektor","0.05","w","240","164","164","240","232.8713","160.6713","39360","39360","37415.7294","dc","null","null","null","null","null","null","[3,2]","501.93721364153294","112.22474319602509","500.06535852512246"
"","canvas-keyboard-response","212","176578","0.0-6.0-3.29","539","","","","","rectangles with change","null","null","","","critical","t","c","d","240","164","164","240","232.8713","160.6713","spektor","0.05","w","240","164","164","240","232.8713","160.6713","39360","39360","37415.7294","dc","null","null","null","null","null","null","[3,2]","501.93721364153294","112.22474319602509","500.06535852512246"
"","canvas-keyboard-response","213","176599","0.0-6.0-4.29","539","","","","","clear_screen","null","null","","","critical","t","c","d","240","164","164","240","232.8713","160.6713","spektor","0.05","w","240","164","164","240","232.8713","160.6713","39360","39360","37415.7294","dc","null","null","null","null","null","null","[3,2]","501.93721364153294","112.22474319602509","500.06535852512246"
"","canvas-keyboard-response","214","177006","0.0-6.0-5.29","539","","","","","make choice","402","3","","","critical","t","c","d","240","164","164","240","232.8713","160.6713","spektor","0.05","w","240","164","164","240","232.8713","160.6713","39360","39360","37415.7294","dc","null","null","null","null","null","null","[3,2]","","",""
"","canvas-keyboard-response","215","177025","0.0-6.0-6.29","539","","","","","clear_screen","null","null","","","critical","t","c","d","240","164","164","240","232.8713","160.6713","spektor","0.05","w","240","164","164","240","232.8713","160.6713","39360","39360","37415.7294","dc","null","null","null","null","null","null","[3,2]","","",""
"","canvas-keyboard-response","216","177225","0.0-6.0-0.30","539","","","","","pre trial waiting period","null","null","","","critical","c","t","d","164","240","240","164","220.0396","154.6796","trueblood","0.14","w","240","164","164","240","220.0396","154.6796","39360","39360","34035.6388","dc","null","null","null","null","null","null","[3,1]","451.85537348372395","515.3171780310041","501.31828469591267"
"","canvas-keyboard-response","217","177248","0.0-6.0-1.30","539","","","","","clear_screen","null","null","","","critical","c","t","d","164","240","240","164","220.0396","154.6796","trueblood","0.14","w","240","164","164","240","220.0396","154.6796","39360","39360","34035.6388","dc","null","null","null","null","null","null","[3,1]","451.85537348372395","515.3171780310041","501.31828469591267"
"","canvas-keyboard-response","218","177754","0.0-6.0-2.30","539","","","","","rectangles no change","null","null","","","critical","c","t","d","164","240","240","164","220.0396","154.6796","trueblood","0.14","w","240","164","164","240","220.0396","154.6796","39360","39360","34035.6388","dc","null","null","null","null","null","null","[3,1]","451.85537348372395","515.3171780310041","501.31828469591267"
"","canvas-keyboard-response","219","179091","0.0-6.0-3.30","539","","","","","rectangles with change","null","null","","","critical","c","t","d","164","240","240","164","220.0396","154.6796","trueblood","0.14","w","240","164","164","240","220.0396","154.6796","39360","39360","34035.6388","dc","null","null","null","null","null","null","[3,1]","451.85537348372395","515.3171780310041","501.31828469591267"
"","canvas-keyboard-response","220","179111","0.0-6.0-4.30","539","","","","","clear_screen","null","null","","","critical","c","t","d","164","240","240","164","220.0396","154.6796","trueblood","0.14","w","240","164","164","240","220.0396","154.6796","39360","39360","34035.6388","dc","null","null","null","null","null","null","[3,1]","451.85537348372395","515.3171780310041","501.31828469591267"
"","canvas-keyboard-response","221","179398","0.0-6.0-5.30","539","","","","","make choice","281","1","","","critical","c","t","d","164","240","240","164","220.0396","154.6796","trueblood","0.14","w","240","164","164","240","220.0396","154.6796","39360","39360","34035.6388","dc","null","null","null","null","null","null","[3,1]","","",""
"","canvas-keyboard-response","222","179415","0.0-6.0-6.30","539","","","","","clear_screen","null","null","","","critical","c","t","d","164","240","240","164","220.0396","154.6796","trueblood","0.14","w","240","164","164","240","220.0396","154.6796","39360","39360","34035.6388","dc","null","null","null","null","null","null","[3,1]","","",""
"","canvas-keyboard-response","223","179616","0.0-6.0-0.31","539","","","","","pre trial waiting period","null","null","","","critical","t","d","c","240","164","227.1683","158.0083","164","240","spektor","0.09","w","240","164","164","240","227.1683","158.0083","39360","39360","35894.4834","td","null","null","null","null","null","null","[1,2]","501.91667505110604","197.37619952010334","490.5713462448145"
"","canvas-keyboard-response","224","179634","0.0-6.0-1.31","539","","","","","clear_screen","null","null","","","critical","t","d","c","240","164","227.1683","158.0083","164","240","spektor","0.09","w","240","164","164","240","227.1683","158.0083","39360","39360","35894.4834","td","null","null","null","null","null","null","[1,2]","501.91667505110604","197.37619952010334","490.5713462448145"
"","canvas-keyboard-response","225","180141","0.0-6.0-2.31","539","","","","","rectangles no change","null","null","","","critical","t","d","c","240","164","227.1683","158.0083","164","240","spektor","0.09","w","240","164","164","240","227.1683","158.0083","39360","39360","35894.4834","td","null","null","null","null","null","null","[1,2]","501.91667505110604","197.37619952010334","490.5713462448145"
"","canvas-keyboard-response","226","181476","0.0-6.0-3.31","539","","","","","rectangles with change","null","null","","","critical","t","d","c","240","164","227.1683","158.0083","164","240","spektor","0.09","w","240","164","164","240","227.1683","158.0083","39360","39360","35894.4834","td","null","null","null","null","null","null","[1,2]","501.91667505110604","197.37619952010334","490.5713462448145"
"","canvas-keyboard-response","227","181495","0.0-6.0-4.31","539","","","","","clear_screen","null","null","","","critical","t","d","c","240","164","227.1683","158.0083","164","240","spektor","0.09","w","240","164","164","240","227.1683","158.0083","39360","39360","35894.4834","td","null","null","null","null","null","null","[1,2]","501.91667505110604","197.37619952010334","490.5713462448145"
"","canvas-keyboard-response","228","182037","0.0-6.0-5.31","539","","","","","make choice","536","1","","","critical","t","d","c","240","164","227.1683","158.0083","164","240","spektor","0.09","w","240","164","164","240","227.1683","158.0083","39360","39360","35894.4834","td","null","null","null","null","null","null","[1,2]","","",""
"","canvas-keyboard-response","229","182057","0.0-6.0-6.31","539","","","","","clear_screen","null","null","","","critical","t","d","c","240","164","227.1683","158.0083","164","240","spektor","0.09","w","240","164","164","240","227.1683","158.0083","39360","39360","35894.4834","td","null","null","null","null","null","null","[1,2]","","",""
"","canvas-keyboard-response","230","182258","0.0-6.0-0.32","539","","","","","pre trial waiting period","null","null","","","catch","sh","sw","l","202","198","184","177","237","234","spektor","null","null","null","null","null","null","null","null","null","null","null","","180","200","260","200","36000","52000","[2,3]","522.7216113199119","152.52129112080422","495.826365110793"
"","canvas-keyboard-response","231","182280","0.0-6.0-1.32","539","","","","","clear_screen","null","null","","","catch","sh","sw","l","202","198","184","177","237","234","spektor","null","null","null","null","null","null","null","null","null","null","null","","180","200","260","200","36000","52000","[2,3]","522.7216113199119","152.52129112080422","495.826365110793"
"","canvas-keyboard-response","232","182786","0.0-6.0-2.32","539","","","","","rectangles no change","null","null","","","catch","sh","sw","l","202","198","184","177","237","234","spektor","null","null","null","null","null","null","null","null","null","null","null","","180","200","260","200","36000","52000","[2,3]","522.7216113199119","152.52129112080422","495.826365110793"
"","canvas-keyboard-response","233","184121","0.0-6.0-3.32","539","","","","","rectangles with change","null","null","","","catch","sh","sw","l","202","198","184","177","237","234","spektor","null","null","null","null","null","null","null","null","null","null","null","","180","200","260","200","36000","52000","[2,3]","522.7216113199119","152.52129112080422","495.826365110793"
"","canvas-keyboard-response","234","184140","0.0-6.0-4.32","539","","","","","clear_screen","null","null","","","catch","sh","sw","l","202","198","184","177","237","234","spektor","null","null","null","null","null","null","null","null","null","null","null","","180","200","260","200","36000","52000","[2,3]","522.7216113199119","152.52129112080422","495.826365110793"
"","canvas-keyboard-response","235","184213","0.0-6.0-5.32","539","","","","","make choice","63","3","","","catch","sh","sw","l","202","198","184","177","237","234","spektor","null","null","null","null","null","null","null","null","null","null","null","","180","200","260","200","36000","52000","[2,3]","","",""
"","canvas-keyboard-response","236","184229","0.0-6.0-6.32","539","","","","","clear_screen","null","null","","","catch","sh","sw","l","202","198","184","177","237","234","spektor","null","null","null","null","null","null","null","null","null","null","null","","180","200","260","200","36000","52000","[2,3]","","",""
"","canvas-keyboard-response","237","184430","0.0-6.0-0.33","539","","","","","pre trial waiting period","null","null","","","critical","t","d","c","240","164","220.0396","154.6796","164","240","trueblood","0.14","w","240","164","164","240","220.0396","154.6796","39360","39360","34035.6388","tc","null","null","null","null","null","null","[1,3]","486.7046056483045","480.2290874374678","427.2020721908143"
"","canvas-keyboard-response","238","184454","0.0-6.0-1.33","539","","","","","clear_screen","null","null","","","critical","t","d","c","240","164","220.0396","154.6796","164","240","trueblood","0.14","w","240","164","164","240","220.0396","154.6796","39360","39360","34035.6388","tc","null","null","null","null","null","null","[1,3]","486.7046056483045","480.2290874374678","427.2020721908143"
"","canvas-keyboard-response","239","184959","0.0-6.0-2.33","539","","","","","rectangles no change","null","null","","","critical","t","d","c","240","164","220.0396","154.6796","164","240","trueblood","0.14","w","240","164","164","240","220.0396","154.6796","39360","39360","34035.6388","tc","null","null","null","null","null","null","[1,3]","486.7046056483045","480.2290874374678","427.2020721908143"
"","canvas-keyboard-response","240","186294","0.0-6.0-3.33","539","","","","","rectangles with change","null","null","","","critical","t","d","c","240","164","220.0396","154.6796","164","240","trueblood","0.14","w","240","164","164","240","220.0396","154.6796","39360","39360","34035.6388","tc","null","null","null","null","null","null","[1,3]","486.7046056483045","480.2290874374678","427.2020721908143"
"","canvas-keyboard-response","241","186316","0.0-6.0-4.33","539","","","","","clear_screen","null","null","","","critical","t","d","c","240","164","220.0396","154.6796","164","240","trueblood","0.14","w","240","164","164","240","220.0396","154.6796","39360","39360","34035.6388","tc","null","null","null","null","null","null","[1,3]","486.7046056483045","480.2290874374678","427.2020721908143"
"","canvas-keyboard-response","242","187118","0.0-6.0-5.33","539","","","","","make choice","797","1","","","critical","t","d","c","240","164","220.0396","154.6796","164","240","trueblood","0.14","w","240","164","164","240","220.0396","154.6796","39360","39360","34035.6388","tc","null","null","null","null","null","null","[1,3]","","",""
"","canvas-keyboard-response","243","187135","0.0-6.0-6.33","539","","","","","clear_screen","null","null","","","critical","t","d","c","240","164","220.0396","154.6796","164","240","trueblood","0.14","w","240","164","164","240","220.0396","154.6796","39360","39360","34035.6388","tc","null","null","null","null","null","null","[1,3]","","",""
"","canvas-keyboard-response","244","187336","0.0-6.0-0.34","539","","","","","pre trial waiting period","null","null","","","critical","c","t","d","240","164","164","240","154.6796","220.0396","spektor","0.14","h","164","240","240","164","154.6796","220.0396","39360","39360","34035.6388","dc","null","null","null","null","null","null","[3,1]","534.0096623565887","116.90657835903244","501.9589927732228"
"","canvas-keyboard-response","245","187357","0.0-6.0-1.34","539","","","","","clear_screen","null","null","","","critical","c","t","d","240","164","164","240","154.6796","220.0396","spektor","0.14","h","164","240","240","164","154.6796","220.0396","39360","39360","34035.6388","dc","null","null","null","null","null","null","[3,1]","534.0096623565887","116.90657835903244","501.9589927732228"
"","canvas-keyboard-response","246","187864","0.0-6.0-2.34","539","","","","","rectangles no change","null","null","","","critical","c","t","d","240","164","164","240","154.6796","220.0396","spektor","0.14","h","164","240","240","164","154.6796","220.0396","39360","39360","34035.6388","dc","null","null","null","null","null","null","[3,1]","534.0096623565887","116.90657835903244","501.9589927732228"
"","canvas-keyboard-response","247","189201","0.0-6.0-3.34","539","","","","","rectangles with change","null","null","","","critical","c","t","d","240","164","164","240","154.6796","220.0396","spektor","0.14","h","164","240","240","164","154.6796","220.0396","39360","39360","34035.6388","dc","null","null","null","null","null","null","[3,1]","534.0096623565887","116.90657835903244","501.9589927732228"
"","canvas-keyboard-response","248","189223","0.0-6.0-4.34","539","","","","","clear_screen","null","null","","","critical","c","t","d","240","164","164","240","154.6796","220.0396","spektor","0.14","h","164","240","240","164","154.6796","220.0396","39360","39360","34035.6388","dc","null","null","null","null","null","null","[3,1]","534.0096623565887","116.90657835903244","501.9589927732228"
"","canvas-keyboard-response","249","189941","0.0-6.0-5.34","539","","","","","make choice","713","1","","","critical","c","t","d","240","164","164","240","154.6796","220.0396","spektor","0.14","h","164","240","240","164","154.6796","220.0396","39360","39360","34035.6388","dc","null","null","null","null","null","null","[3,1]","","",""
"","canvas-keyboard-response","250","189959","0.0-6.0-6.34","539","","","","","clear_screen","null","null","","","critical","c","t","d","240","164","164","240","154.6796","220.0396","spektor","0.14","h","164","240","240","164","154.6796","220.0396","39360","39360","34035.6388","dc","null","null","null","null","null","null","[3,1]","","",""
"","canvas-keyboard-response","251","190160","0.0-6.0-0.35","539","","","","","pre trial waiting period","null","null","","","critical","c","d","t","164","240","237.1485","162.6685","240","164","trueblood","0.02","w","240","164","164","240","237.1485","162.6685","39360","39360","38576.5967","dc","null","null","null","null","null","null","[2,1]","420.1735516934063","500.5563954399311","500.4670958542622"
"","canvas-keyboard-response","252","190181","0.0-6.0-1.35","539","","","","","clear_screen","null","null","","","critical","c","d","t","164","240","237.1485","162.6685","240","164","trueblood","0.02","w","240","164","164","240","237.1485","162.6685","39360","39360","38576.5967","dc","null","null","null","null","null","null","[2,1]","420.1735516934063","500.5563954399311","500.4670958542622"
"","canvas-keyboard-response","253","190688","0.0-6.0-2.35","539","","","","","rectangles no change","null","null","","","critical","c","d","t","164","240","237.1485","162.6685","240","164","trueblood","0.02","w","240","164","164","240","237.1485","162.6685","39360","39360","38576.5967","dc","null","null","null","null","null","null","[2,1]","420.1735516934063","500.5563954399311","500.4670958542622"
"","canvas-keyboard-response","254","192024","0.0-6.0-3.35","539","","","","","rectangles with change","null","null","","","critical","c","d","t","164","240","237.1485","162.6685","240","164","trueblood","0.02","w","240","164","164","240","237.1485","162.6685","39360","39360","38576.5967","dc","null","null","null","null","null","null","[2,1]","420.1735516934063","500.5563954399311","500.4670958542622"
"","canvas-keyboard-response","255","192046","0.0-6.0-4.35","539","","","","","clear_screen","null","null","","","critical","c","d","t","164","240","237.1485","162.6685","240","164","trueblood","0.02","w","240","164","164","240","237.1485","162.6685","39360","39360","38576.5967","dc","null","null","null","null","null","null","[2,1]","420.1735516934063","500.5563954399311","500.4670958542622"
"","canvas-keyboard-response","256","192797","0.0-6.0-5.35","539","","","","","make choice","746","2","","","critical","c","d","t","164","240","237.1485","162.6685","240","164","trueblood","0.02","w","240","164","164","240","237.1485","162.6685","39360","39360","38576.5967","dc","null","null","null","null","null","null","[2,1]","","",""
"","canvas-keyboard-response","257","192817","0.0-6.0-6.35","539","","","","","clear_screen","null","null","","","critical","c","d","t","164","240","237.1485","162.6685","240","164","trueblood","0.02","w","240","164","164","240","237.1485","162.6685","39360","39360","38576.5967","dc","null","null","null","null","null","null","[2,1]","","",""
"","canvas-keyboard-response","258","193018","0.0-6.0-0.36","539","","","","","pre trial waiting period","null","null","","","critical","t","d","c","240","164","227.1683","158.0083","164","240","spektor","0.09","w","240","164","164","240","227.1683","158.0083","39360","39360","35894.4834","tc","null","null","null","null","null","null","[1,3]","527.8990077293817","205.25386198016295","504.01825978031144"
"","canvas-keyboard-response","259","193037","0.0-6.0-1.36","539","","","","","clear_screen","null","null","","","critical","t","d","c","240","164","227.1683","158.0083","164","240","spektor","0.09","w","240","164","164","240","227.1683","158.0083","39360","39360","35894.4834","tc","null","null","null","null","null","null","[1,3]","527.8990077293817","205.25386198016295","504.01825978031144"
"","canvas-keyboard-response","260","193545","0.0-6.0-2.36","539","","","","","rectangles no change","null","null","","","critical","t","d","c","240","164","227.1683","158.0083","164","240","spektor","0.09","w","240","164","164","240","227.1683","158.0083","39360","39360","35894.4834","tc","null","null","null","null","null","null","[1,3]","527.8990077293817","205.25386198016295","504.01825978031144"
"","canvas-keyboard-response","261","194881","0.0-6.0-3.36","539","","","","","rectangles with change","null","null","","","critical","t","d","c","240","164","227.1683","158.0083","164","240","spektor","0.09","w","240","164","164","240","227.1683","158.0083","39360","39360","35894.4834","tc","null","null","null","null","null","null","[1,3]","527.8990077293817","205.25386198016295","504.01825978031144"
"","canvas-keyboard-response","262","194902","0.0-6.0-4.36","539","","","","","clear_screen","null","null","","","critical","t","d","c","240","164","227.1683","158.0083","164","240","spektor","0.09","w","240","164","164","240","227.1683","158.0083","39360","39360","35894.4834","tc","null","null","null","null","null","null","[1,3]","527.8990077293817","205.25386198016295","504.01825978031144"
"","canvas-keyboard-response","263","195924","0.0-6.0-5.36","539","","","","","make choice","1017","1","","","critical","t","d","c","240","164","227.1683","158.0083","164","240","spektor","0.09","w","240","164","164","240","227.1683","158.0083","39360","39360","35894.4834","tc","null","null","null","null","null","null","[1,3]","","",""
"","canvas-keyboard-response","264","195940","0.0-6.0-6.36","539","","","","","clear_screen","null","null","","","critical","t","d","c","240","164","227.1683","158.0083","164","240","spektor","0.09","w","240","164","164","240","227.1683","158.0083","39360","39360","35894.4834","tc","null","null","null","null","null","null","[1,3]","","",""
"","canvas-keyboard-response","265","196141","0.0-6.0-0.37","539","","","","","pre trial waiting period","null","null","","","critical","d","t","c","164","240","164","240","240","164","spektor","0","h","164","240","240","164","164","240","39360","39360","39360","td","null","null","null","null","null","null","[2,1]","492.1754877197513","118.51795996260135","496.93346475260876"
"","canvas-keyboard-response","266","196161","0.0-6.0-1.37","539","","","","","clear_screen","null","null","","","critical","d","t","c","164","240","164","240","240","164","spektor","0","h","164","240","240","164","164","240","39360","39360","39360","td","null","null","null","null","null","null","[2,1]","492.1754877197513","118.51795996260135","496.93346475260876"
"","canvas-keyboard-response","267","196667","0.0-6.0-2.37","539","","","","","rectangles no change","null","null","","","critical","d","t","c","164","240","164","240","240","164","spektor","0","h","164","240","240","164","164","240","39360","39360","39360","td","null","null","null","null","null","null","[2,1]","492.1754877197513","118.51795996260135","496.93346475260876"
