"success","trial_type","trial_index","time_elapsed","internal_node_id","sub_n","timeout","failed_images","failed_audio","failed_video","screen_id","rt","response","stimulus","view_history","trial","r1","r2","r3","w1","h1","w2","h2","w3","h3","display","tdd","tdo","tw","th","cw","ch","dw","dh","ta","ca","da","probe","csls","csss","clls","clss","sa","la","probe_rects","r1yloc","r2yloc","r3yloc"
"true","fullscreen","0","2244","0.0-0.0","503","","","","","","","","","","","","","","","","","","","","","","","","","","","","","","","","","","","","","","","","","",""
"true","preload","1","2300","0.0-1.0","503","false","[]","[]","[]","img preload","","","","","","","","","","","","","","","","","","","","","","","","","","","","","","","","","","","","",""
"","survey-html-form","2","17187","0.0-2.0","503","","","","","enter-sub-number","14880","{""response"":""503""}","","","","","","","","","","","","","","","","","","","","","","","","","","","","","","","","","","",""
"","image-button-response","3","78094","0.0-3.0","503","","","","","","60839","0","consent.png","","","","","","","","","","","","","","","","","","","","","","","","","","","","","","","","","",""
"","html-button-response","4","88079","0.0-4.0","503","","","","","intro mssg","9980","0","<div style= ""font-size:25px;"" <p> <strong> Welcome! </strong><br> <p style=""color:#8B0000; font-size:25px;""><strong> Please do NOT exit full screen until you are done with the experiment. </strong> </p><p style=""font-size:25px;color:#8B0000;""> <strong> Your data will be lost <br> if you try to go back or refresh the page after the experiment starts. Feel free to click ""previous"" during the instructions, however.</strong> </p><br><p> <strong> Thanks in advance for your contribution to our research! </strong></p>","","","","","","","","","","","","","","","","","","","","","","","","","","","","","","","","","",""
"","instructions","5","167532","0.0-5.0","503","","","","","instructions","79450","","","[{""page_index"":0,""viewing_time"":12091},{""page_index"":1,""viewing_time"":15383},{""page_index"":2,""viewing_time"":5122},{""page_index"":3,""viewing_time"":19831},{""page_index"":4,""viewing_time"":11600},{""page_index"":3,""viewing_time"":7032},{""page_index"":4,""viewing_time"":1192},{""page_index"":5,""viewing_time"":2104},{""page_index"":6,""viewing_time"":3872},{""page_index"":7,""viewing_time"":1223}]","","","","","","","","","","","","","","","","","","","","","","","","","","","","","","","","",""
"","canvas-keyboard-response","6","167736","0.0-6.0-0.0","503","","","","","pre trial waiting period","null","null","","","critical","d","t","c","154.6796","220.0396","164","240","240","164","spektor","0.14","h","164","240","240","164","154.6796","220.0396","39360","39360","34035.6388","td","null","null","null","null","null","null","[2,1]","494.2370797708896","132.870975212952","518.4022071940087"
"","canvas-keyboard-response","7","167760","0.0-6.0-1.0","503","","","","","clear_screen","null","null","","","critical","d","t","c","154.6796","220.0396","164","240","240","164","spektor","0.14","h","164","240","240","164","154.6796","220.0396","39360","39360","34035.6388","td","null","null","null","null","null","null","[2,1]","494.2370797708896","132.870975212952","518.4022071940087"
"","canvas-keyboard-response","8","168270","0.0-6.0-2.0","503","","","","","rectangles no change","null","null","","","critical","d","t","c","154.6796","220.0396","164","240","240","164","spektor","0.14","h","164","240","240","164","154.6796","220.0396","39360","39360","34035.6388","td","null","null","null","null","null","null","[2,1]","494.2370797708896","132.870975212952","518.4022071940087"
"","canvas-keyboard-response","9","169608","0.0-6.0-3.0","503","","","","","rectangles with change","null","null","","","critical","d","t","c","154.6796","220.0396","164","240","240","164","spektor","0.14","h","164","240","240","164","154.6796","220.0396","39360","39360","34035.6388","td","null","null","null","null","null","null","[2,1]","494.2370797708896","132.870975212952","518.4022071940087"
"","canvas-keyboard-response","10","169629","0.0-6.0-4.0","503","","","","","clear_screen","null","null","","","critical","d","t","c","154.6796","220.0396","164","240","240","164","spektor","0.14","h","164","240","240","164","154.6796","220.0396","39360","39360","34035.6388","td","null","null","null","null","null","null","[2,1]","494.2370797708896","132.870975212952","518.4022071940087"
"","canvas-keyboard-response","11","174895","0.0-6.0-5.0","503","","","","","make choice","5258","2","","","critical","d","t","c","154.6796","220.0396","164","240","240","164","spektor","0.14","h","164","240","240","164","154.6796","220.0396","39360","39360","34035.6388","td","null","null","null","null","null","null","[2,1]","","",""
"","canvas-keyboard-response","12","174913","0.0-6.0-6.0","503","","","","","clear_screen","null","null","","","critical","d","t","c","154.6796","220.0396","164","240","240","164","spektor","0.14","h","164","240","240","164","154.6796","220.0396","39360","39360","34035.6388","td","null","null","null","null","null","null","[2,1]","","",""
"","canvas-keyboard-response","13","175115","0.0-6.0-0.1","503","","","","","pre trial waiting period","null","null","","","catch","l","sw","sh","227","230","217","215","178","204","trueblood","null","null","null","null","null","null","null","null","null","null","null","","180","200","260","200","36000","52000","[1,3]","475.2314277155487","474.6139771487425","483.4075637934027"
"","canvas-keyboard-response","14","175137","0.0-6.0-1.1","503","","","","","clear_screen","null","null","","","catch","l","sw","sh","227","230","217","215","178","204","trueblood","null","null","null","null","null","null","null","null","null","null","null","","180","200","260","200","36000","52000","[1,3]","475.2314277155487","474.6139771487425","483.4075637934027"
"","canvas-keyboard-response","15","175648","0.0-6.0-2.1","503","","","","","rectangles no change","null","null","","","catch","l","sw","sh","227","230","217","215","178","204","trueblood","null","null","null","null","null","null","null","null","null","null","null","","180","200","260","200","36000","52000","[1,3]","475.2314277155487","474.6139771487425","483.4075637934027"
"","canvas-keyboard-response","16","176982","0.0-6.0-3.1","503","","","","","rectangles with change","null","null","","","catch","l","sw","sh","227","230","217","215","178","204","trueblood","null","null","null","null","null","null","null","null","null","null","null","","180","200","260","200","36000","52000","[1,3]","475.2314277155487","474.6139771487425","483.4075637934027"
"","canvas-keyboard-response","17","177001","0.0-6.0-4.1","503","","","","","clear_screen","null","null","","","catch","l","sw","sh","227","230","217","215","178","204","trueblood","null","null","null","null","null","null","null","null","null","null","null","","180","200","260","200","36000","52000","[1,3]","475.2314277155487","474.6139771487425","483.4075637934027"
"","canvas-keyboard-response","18","177870","0.0-6.0-5.1","503","","","","","make choice","858","1","","","catch","l","sw","sh","227","230","217","215","178","204","trueblood","null","null","null","null","null","null","null","null","null","null","null","","180","200","260","200","36000","52000","[1,3]","","",""
"","canvas-keyboard-response","19","177888","0.0-6.0-6.1","503","","","","","clear_screen","null","null","","","catch","l","sw","sh","227","230","217","215","178","204","trueblood","null","null","null","null","null","null","null","null","null","null","null","","180","200","260","200","36000","52000","[1,3]","","",""
"","canvas-keyboard-response","20","178089","0.0-6.0-0.2","503","","","","","pre trial waiting period","null","null","","","catch","l","sh","sw","293","160","164","175","205","166","spektor","null","null","null","null","null","null","null","null","null","null","null","","180","200","260","200","36000","52000","[1,2]","531.512851087482","174.9970847485234","495.21826423344334"
"","canvas-keyboard-response","21","178107","0.0-6.0-1.2","503","","","","","clear_screen","null","null","","","catch","l","sh","sw","293","160","164","175","205","166","spektor","null","null","null","null","null","null","null","null","null","null","null","","180","200","260","200","36000","52000","[1,2]","531.512851087482","174.9970847485234","495.21826423344334"
"","canvas-keyboard-response","22","178617","0.0-6.0-2.2","503","","","","","rectangles no change","null","null","","","catch","l","sh","sw","293","160","164","175","205","166","spektor","null","null","null","null","null","null","null","null","null","null","null","","180","200","260","200","36000","52000","[1,2]","531.512851087482","174.9970847485234","495.21826423344334"
"","canvas-keyboard-response","23","179956","0.0-6.0-3.2","503","","","","","rectangles with change","null","null","","","catch","l","sh","sw","293","160","164","175","205","166","spektor","null","null","null","null","null","null","null","null","null","null","null","","180","200","260","200","36000","52000","[1,2]","531.512851087482","174.9970847485234","495.21826423344334"
"","canvas-keyboard-response","24","179975","0.0-6.0-4.2","503","","","","","clear_screen","null","null","","","catch","l","sh","sw","293","160","164","175","205","166","spektor","null","null","null","null","null","null","null","null","null","null","null","","180","200","260","200","36000","52000","[1,2]","531.512851087482","174.9970847485234","495.21826423344334"
"","canvas-keyboard-response","25","180766","0.0-6.0-5.2","503","","","","","make choice","784","1","","","catch","l","sh","sw","293","160","164","175","205","166","spektor","null","null","null","null","null","null","null","null","null","null","null","","180","200","260","200","36000","52000","[1,2]","","",""
"","canvas-keyboard-response","26","180787","0.0-6.0-6.2","503","","","","","clear_screen","null","null","","","catch","l","sh","sw","293","160","164","175","205","166","spektor","null","null","null","null","null","null","null","null","null","null","null","","180","200","260","200","36000","52000","[1,2]","","",""
"","canvas-keyboard-response","27","180988","0.0-6.0-0.3","503","","","","","pre trial waiting period","null","null","","","catch","sh","l","sw","231","147","288","160","191","214","trueblood","null","null","null","null","null","null","null","null","null","null","null","","180","200","260","200","36000","52000","[2,3]","489.3997262108968","489.2587270599066","441.004738951848"
"","canvas-keyboard-response","28","181010","0.0-6.0-1.3","503","","","","","clear_screen","null","null","","","catch","sh","l","sw","231","147","288","160","191","214","trueblood","null","null","null","null","null","null","null","null","null","null","null","","180","200","260","200","36000","52000","[2,3]","489.3997262108968","489.2587270599066","441.004738951848"
"","canvas-keyboard-response","29","181517","0.0-6.0-2.3","503","","","","","rectangles no change","null","null","","","catch","sh","l","sw","231","147","288","160","191","214","trueblood","null","null","null","null","null","null","null","null","null","null","null","","180","200","260","200","36000","52000","[2,3]","489.3997262108968","489.2587270599066","441.004738951848"
"","canvas-keyboard-response","30","182852","0.0-6.0-3.3","503","","","","","rectangles with change","null","null","","","catch","sh","l","sw","231","147","288","160","191","214","trueblood","null","null","null","null","null","null","null","null","null","null","null","","180","200","260","200","36000","52000","[2,3]","489.3997262108968","489.2587270599066","441.004738951848"
"","canvas-keyboard-response","31","182873","0.0-6.0-4.3","503","","","","","clear_screen","null","null","","","catch","sh","l","sw","231","147","288","160","191","214","trueblood","null","null","null","null","null","null","null","null","null","null","null","","180","200","260","200","36000","52000","[2,3]","489.3997262108968","489.2587270599066","441.004738951848"
"","canvas-keyboard-response","32","184055","0.0-6.0-5.3","503","","","","","make choice","1176","2","","","catch","sh","l","sw","231","147","288","160","191","214","trueblood","null","null","null","null","null","null","null","null","null","null","null","","180","200","260","200","36000","52000","[2,3]","","",""
"","canvas-keyboard-response","33","184073","0.0-6.0-6.3","503","","","","","clear_screen","null","null","","","catch","sh","l","sw","231","147","288","160","191","214","trueblood","null","null","null","null","null","null","null","null","null","null","null","","180","200","260","200","36000","52000","[2,3]","","",""
"","canvas-keyboard-response","34","184274","0.0-6.0-0.4","503","","","","","pre trial waiting period","null","null","","","critical","d","t","c","232.8713","160.6713","240","164","164","240","spektor","0.05","w","240","164","164","240","232.8713","160.6713","39360","39360","37415.7294","dc","null","null","null","null","null","null","[1,3]","530.1905056705568","202.74244496863517","495.03703459538565"
"","canvas-keyboard-response","35","184297","0.0-6.0-1.4","503","","","","","clear_screen","null","null","","","critical","d","t","c","232.8713","160.6713","240","164","164","240","spektor","0.05","w","240","164","164","240","232.8713","160.6713","39360","39360","37415.7294","dc","null","null","null","null","null","null","[1,3]","530.1905056705568","202.74244496863517","495.03703459538565"
"","canvas-keyboard-response","36","184804","0.0-6.0-2.4","503","","","","","rectangles no change","null","null","","","critical","d","t","c","232.8713","160.6713","240","164","164","240","spektor","0.05","w","240","164","164","240","232.8713","160.6713","39360","39360","37415.7294","dc","null","null","null","null","null","null","[1,3]","530.1905056705568","202.74244496863517","495.03703459538565"
"","canvas-keyboard-response","37","186145","0.0-6.0-3.4","503","","","","","rectangles with change","null","null","","","critical","d","t","c","232.8713","160.6713","240","164","164","240","spektor","0.05","w","240","164","164","240","232.8713","160.6713","39360","39360","37415.7294","dc","null","null","null","null","null","null","[1,3]","530.1905056705568","202.74244496863517","495.03703459538565"
"","canvas-keyboard-response","38","186165","0.0-6.0-4.4","503","","","","","clear_screen","null","null","","","critical","d","t","c","232.8713","160.6713","240","164","164","240","spektor","0.05","w","240","164","164","240","232.8713","160.6713","39360","39360","37415.7294","dc","null","null","null","null","null","null","[1,3]","530.1905056705568","202.74244496863517","495.03703459538565"
"","canvas-keyboard-response","39","187293","0.0-6.0-5.4","503","","","","","make choice","1124","3","","","critical","d","t","c","232.8713","160.6713","240","164","164","240","spektor","0.05","w","240","164","164","240","232.8713","160.6713","39360","39360","37415.7294","dc","null","null","null","null","null","null","[1,3]","","",""
"","canvas-keyboard-response","40","187313","0.0-6.0-6.4","503","","","","","clear_screen","null","null","","","critical","d","t","c","232.8713","160.6713","240","164","164","240","spektor","0.05","w","240","164","164","240","232.8713","160.6713","39360","39360","37415.7294","dc","null","null","null","null","null","null","[1,3]","","",""
"","canvas-keyboard-response","41","187516","0.0-6.0-0.5","503","","","","","pre trial waiting period","null","null","","","critical","d","c","t","237.1485","162.6685","164","240","240","164","spektor","0.02","w","240","164","164","240","237.1485","162.6685","39360","39360","38576.5967","dc","null","null","null","null","null","null","[1,2]","528.1117835620568","116.60346536661548","493.9801671880582"
"","canvas-keyboard-response","42","187539","0.0-6.0-1.5","503","","","","","clear_screen","null","null","","","critical","d","c","t","237.1485","162.6685","164","240","240","164","spektor","0.02","w","240","164","164","240","237.1485","162.6685","39360","39360","38576.5967","dc","null","null","null","null","null","null","[1,2]","528.1117835620568","116.60346536661548","493.9801671880582"
"","canvas-keyboard-response","43","188047","0.0-6.0-2.5","503","","","","","rectangles no change","null","null","","","critical","d","c","t","237.1485","162.6685","164","240","240","164","spektor","0.02","w","240","164","164","240","237.1485","162.6685","39360","39360","38576.5967","dc","null","null","null","null","null","null","[1,2]","528.1117835620568","116.60346536661548","493.9801671880582"
"","canvas-keyboard-response","44","189382","0.0-6.0-3.5","503","","","","","rectangles with change","null","null","","","critical","d","c","t","237.1485","162.6685","164","240","240","164","spektor","0.02","w","240","164","164","240","237.1485","162.6685","39360","39360","38576.5967","dc","null","null","null","null","null","null","[1,2]","528.1117835620568","116.60346536661548","493.9801671880582"
"","canvas-keyboard-response","45","189403","0.0-6.0-4.5","503","","","","","clear_screen","null","null","","","critical","d","c","t","237.1485","162.6685","164","240","240","164","spektor","0.02","w","240","164","164","240","237.1485","162.6685","39360","39360","38576.5967","dc","null","null","null","null","null","null","[1,2]","528.1117835620568","116.60346536661548","493.9801671880582"
"","canvas-keyboard-response","46","190294","0.0-6.0-5.5","503","","","","","make choice","887","1","","","critical","d","c","t","237.1485","162.6685","164","240","240","164","spektor","0.02","w","240","164","164","240","237.1485","162.6685","39360","39360","38576.5967","dc","null","null","null","null","null","null","[1,2]","","",""
"","canvas-keyboard-response","47","190313","0.0-6.0-6.5","503","","","","","clear_screen","null","null","","","critical","d","c","t","237.1485","162.6685","164","240","240","164","spektor","0.02","w","240","164","164","240","237.1485","162.6685","39360","39360","38576.5967","dc","null","null","null","null","null","null","[1,2]","","",""
"","canvas-keyboard-response","48","190516","0.0-6.0-0.6","503","","","","","pre trial waiting period","null","null","","","catch","l","sw","sh","224","189","147","232","222","167","trueblood","null","null","null","null","null","null","null","null","null","null","null","","180","200","260","200","36000","52000","[1,3]","463.9656173509509","440.5803254904715","511.9825569935021"
"","canvas-keyboard-response","49","190537","0.0-6.0-1.6","503","","","","","clear_screen","null","null","","","catch","l","sw","sh","224","189","147","232","222","167","trueblood","null","null","null","null","null","null","null","null","null","null","null","","180","200","260","200","36000","52000","[1,3]","463.9656173509509","440.5803254904715","511.9825569935021"
"","canvas-keyboard-response","50","191042","0.0-6.0-2.6","503","","","","","rectangles no change","null","null","","","catch","l","sw","sh","224","189","147","232","222","167","trueblood","null","null","null","null","null","null","null","null","null","null","null","","180","200","260","200","36000","52000","[1,3]","463.9656173509509","440.5803254904715","511.9825569935021"
"","canvas-keyboard-response","51","192379","0.0-6.0-3.6","503","","","","","rectangles with change","null","null","","","catch","l","sw","sh","224","189","147","232","222","167","trueblood","null","null","null","null","null","null","null","null","null","null","null","","180","200","260","200","36000","52000","[1,3]","463.9656173509509","440.5803254904715","511.9825569935021"
"","canvas-keyboard-response","52","192401","0.0-6.0-4.6","503","","","","","clear_screen","null","null","","","catch","l","sw","sh","224","189","147","232","222","167","trueblood","null","null","null","null","null","null","null","null","null","null","null","","180","200","260","200","36000","52000","[1,3]","463.9656173509509","440.5803254904715","511.9825569935021"
"","canvas-keyboard-response","53","193215","0.0-6.0-5.6","503","","","","","make choice","808","1","","","catch","l","sw","sh","224","189","147","232","222","167","trueblood","null","null","null","null","null","null","null","null","null","null","null","","180","200","260","200","36000","52000","[1,3]","","",""
"","canvas-keyboard-response","54","193234","0.0-6.0-6.6","503","","","","","clear_screen","null","null","","","catch","l","sw","sh","224","189","147","232","222","167","trueblood","null","null","null","null","null","null","null","null","null","null","null","","180","200","260","200","36000","52000","[1,3]","","",""
"","canvas-keyboard-response","55","193435","0.0-6.0-0.7","503","","","","","pre trial waiting period","null","null","","","critical","t","d","c","240","164","232.8713","160.6713","164","240","spektor","0.05","w","240","164","164","240","232.8713","160.6713","39360","39360","37415.7294","td","null","null","null","null","null","null","[1,2]","520.1838887596112","178.20043088961086","471.5815459419347"
"","canvas-keyboard-response","56","193455","0.0-6.0-1.7","503","","","","","clear_screen","null","null","","","critical","t","d","c","240","164","232.8713","160.6713","164","240","spektor","0.05","w","240","164","164","240","232.8713","160.6713","39360","39360","37415.7294","td","null","null","null","null","null","null","[1,2]","520.1838887596112","178.20043088961086","471.5815459419347"
"","canvas-keyboard-response","57","193963","0.0-6.0-2.7","503","","","","","rectangles no change","null","null","","","critical","t","d","c","240","164","232.8713","160.6713","164","240","spektor","0.05","w","240","164","164","240","232.8713","160.6713","39360","39360","37415.7294","td","null","null","null","null","null","null","[1,2]","520.1838887596112","178.20043088961086","471.5815459419347"
"","canvas-keyboard-response","58","195304","0.0-6.0-3.7","503","","","","","rectangles with change","null","null","","","critical","t","d","c","240","164","232.8713","160.6713","164","240","spektor","0.05","w","240","164","164","240","232.8713","160.6713","39360","39360","37415.7294","td","null","null","null","null","null","null","[1,2]","520.1838887596112","178.20043088961086","471.5815459419347"
"","canvas-keyboard-response","59","195323","0.0-6.0-4.7","503","","","","","clear_screen","null","null","","","critical","t","d","c","240","164","232.8713","160.6713","164","240","spektor","0.05","w","240","164","164","240","232.8713","160.6713","39360","39360","37415.7294","td","null","null","null","null","null","null","[1,2]","520.1838887596112","178.20043088961086","471.5815459419347"
"","canvas-keyboard-response","60","196893","0.0-6.0-5.7","503","","","","","make choice","1566","2","","","critical","t","d","c","240","164","232.8713","160.6713","164","240","spektor","0.05","w","240","164","164","240","232.8713","160.6713","39360","39360","37415.7294","td","null","null","null","null","null","null","[1,2]","","",""
"","canvas-keyboard-response","61","196914","0.0-6.0-6.7","503","","","","","clear_screen","null","null","","","critical","t","d","c","240","164","232.8713","160.6713","164","240","spektor","0.05","w","240","164","164","240","232.8713","160.6713","39360","39360","37415.7294","td","null","null","null","null","null","null","[1,2]","","",""
"","canvas-keyboard-response","62","197115","0.0-6.0-0.8","503","","","","","pre trial waiting period","null","null","","","critical","t","d","c","164","240","162.6685","237.1485","240","164","spektor","0.02","h","164","240","240","164","162.6685","237.1485","39360","39360","38576.5967","tc","null","null","null","null","null","null","[1,3]","494.98646628198685","127.99938178521231","495.4485206361229"
"","canvas-keyboard-response","63","197139","0.0-6.0-1.8","503","","","","","clear_screen","null","null","","","critical","t","d","c","164","240","162.6685","237.1485","240","164","spektor","0.02","h","164","240","240","164","162.6685","237.1485","39360","39360","38576.5967","tc","null","null","null","null","null","null","[1,3]","494.98646628198685","127.99938178521231","495.4485206361229"
"","canvas-keyboard-response","64","197645","0.0-6.0-2.8","503","","","","","rectangles no change","null","null","","","critical","t","d","c","164","240","162.6685","237.1485","240","164","spektor","0.02","h","164","240","240","164","162.6685","237.1485","39360","39360","38576.5967","tc","null","null","null","null","null","null","[1,3]","494.98646628198685","127.99938178521231","495.4485206361229"
"","canvas-keyboard-response","65","198984","0.0-6.0-3.8","503","","","","","rectangles with change","null","null","","","critical","t","d","c","164","240","162.6685","237.1485","240","164","spektor","0.02","h","164","240","240","164","162.6685","237.1485","39360","39360","38576.5967","tc","null","null","null","null","null","null","[1,3]","494.98646628198685","127.99938178521231","495.4485206361229"
"","canvas-keyboard-response","66","199008","0.0-6.0-4.8","503","","","","","clear_screen","null","null","","","critical","t","d","c","164","240","162.6685","237.1485","240","164","spektor","0.02","h","164","240","240","164","162.6685","237.1485","39360","39360","38576.5967","tc","null","null","null","null","null","null","[1,3]","494.98646628198685","127.99938178521231","495.4485206361229"
"","canvas-keyboard-response","67","199708","0.0-6.0-5.8","503","","","","","make choice","689","1","","","critical","t","d","c","164","240","162.6685","237.1485","240","164","spektor","0.02","h","164","240","240","164","162.6685","237.1485","39360","39360","38576.5967","tc","null","null","null","null","null","null","[1,3]","","",""
"","canvas-keyboard-response","68","199724","0.0-6.0-6.8","503","","","","","clear_screen","null","null","","","critical","t","d","c","164","240","162.6685","237.1485","240","164","spektor","0.02","h","164","240","240","164","162.6685","237.1485","39360","39360","38576.5967","tc","null","null","null","null","null","null","[1,3]","","",""
"","canvas-keyboard-response","69","199924","0.0-6.0-0.9","503","","","","","pre trial waiting period","null","null","","","critical","t","d","c","240","164","240","164","164","240","trueblood","0","w","240","164","164","240","240","164","39360","39360","39360","tc","null","null","null","null","null","null","[1,3]","482.54281571827767","500.91381956083484","421.4667673069624"
"","canvas-keyboard-response","70","199945","0.0-6.0-1.9","503","","","","","clear_screen","null","null","","","critical","t","d","c","240","164","240","164","164","240","trueblood","0","w","240","164","164","240","240","164","39360","39360","39360","tc","null","null","null","null","null","null","[1,3]","482.54281571827767","500.91381956083484","421.4667673069624"
"","canvas-keyboard-response","71","200455","0.0-6.0-2.9","503","","","","","rectangles no change","null","null","","","critical","t","d","c","240","164","240","164","164","240","trueblood","0","w","240","164","164","240","240","164","39360","39360","39360","tc","null","null","null","null","null","null","[1,3]","482.54281571827767","500.91381956083484","421.4667673069624"
"","canvas-keyboard-response","72","201788","0.0-6.0-3.9","503","","","","","rectangles with change","null","null","","","critical","t","d","c","240","164","240","164","164","240","trueblood","0","w","240","164","164","240","240","164","39360","39360","39360","tc","null","null","null","null","null","null","[1,3]","482.54281571827767","500.91381956083484","421.4667673069624"
"","canvas-keyboard-response","73","201804","0.0-6.0-4.9","503","","","","","clear_screen","null","null","","","critical","t","d","c","240","164","240","164","164","240","trueblood","0","w","240","164","164","240","240","164","39360","39360","39360","tc","null","null","null","null","null","null","[1,3]","482.54281571827767","500.91381956083484","421.4667673069624"
"","canvas-keyboard-response","74","203829","0.0-6.0-5.9","503","","","","","make choice","2020","1","","","critical","t","d","c","240","164","240","164","164","240","trueblood","0","w","240","164","164","240","240","164","39360","39360","39360","tc","null","null","null","null","null","null","[1,3]","","",""
"","canvas-keyboard-response","75","203847","0.0-6.0-6.9","503","","","","","clear_screen","null","null","","","critical","t","d","c","240","164","240","164","164","240","trueblood","0","w","240","164","164","240","240","164","39360","39360","39360","tc","null","null","null","null","null","null","[1,3]","","",""
"","canvas-keyboard-response","76","204049","0.0-6.0-0.10","503","","","","","pre trial waiting period","null","null","","","catch","l","sh","sw","160","237","209","208","195","208","spektor","null","null","null","null","null","null","null","null","null","null","null","","180","200","260","200","36000","52000","[1,2]","474.1184894811405","114.6307817797261","505.16229477424315"
"","canvas-keyboard-response","77","204069","0.0-6.0-1.10","503","","","","","clear_screen","null","null","","","catch","l","sh","sw","160","237","209","208","195","208","spektor","null","null","null","null","null","null","null","null","null","null","null","","180","200","260","200","36000","52000","[1,2]","474.1184894811405","114.6307817797261","505.16229477424315"
"","canvas-keyboard-response","78","204578","0.0-6.0-2.10","503","","","","","rectangles no change","null","null","","","catch","l","sh","sw","160","237","209","208","195","208","spektor","null","null","null","null","null","null","null","null","null","null","null","","180","200","260","200","36000","52000","[1,2]","474.1184894811405","114.6307817797261","505.16229477424315"
"","canvas-keyboard-response","79","205914","0.0-6.0-3.10","503","","","","","rectangles with change","null","null","","","catch","l","sh","sw","160","237","209","208","195","208","spektor","null","null","null","null","null","null","null","null","null","null","null","","180","200","260","200","36000","52000","[1,2]","474.1184894811405","114.6307817797261","505.16229477424315"
"","canvas-keyboard-response","80","205931","0.0-6.0-4.10","503","","","","","clear_screen","null","null","","","catch","l","sh","sw","160","237","209","208","195","208","spektor","null","null","null","null","null","null","null","null","null","null","null","","180","200","260","200","36000","52000","[1,2]","474.1184894811405","114.6307817797261","505.16229477424315"
"","canvas-keyboard-response","81","206623","0.0-6.0-5.10","503","","","","","make choice","683","2","","","catch","l","sh","sw","160","237","209","208","195","208","spektor","null","null","null","null","null","null","null","null","null","null","null","","180","200","260","200","36000","52000","[1,2]","","",""
"","canvas-keyboard-response","82","206639","0.0-6.0-6.10","503","","","","","clear_screen","null","null","","","catch","l","sh","sw","160","237","209","208","195","208","spektor","null","null","null","null","null","null","null","null","null","null","null","","180","200","260","200","36000","52000","[1,2]","","",""
"","canvas-keyboard-response","83","206840","0.0-6.0-0.11","503","","","","","pre trial waiting period","null","null","","","critical","d","t","c","237.1485","162.6685","240","164","164","240","spektor","0.02","w","240","164","164","240","237.1485","162.6685","39360","39360","38576.5967","tc","null","null","null","null","null","null","[2,3]","497.5796805287802","195.01229237945","502.1513927750348"
"","canvas-keyboard-response","84","206859","0.0-6.0-1.11","503","","","","","clear_screen","null","null","","","critical","d","t","c","237.1485","162.6685","240","164","164","240","spektor","0.02","w","240","164","164","240","237.1485","162.6685","39360","39360","38576.5967","tc","null","null","null","null","null","null","[2,3]","497.5796805287802","195.01229237945","502.1513927750348"
"","canvas-keyboard-response","85","207366","0.0-6.0-2.11","503","","","","","rectangles no change","null","null","","","critical","d","t","c","237.1485","162.6685","240","164","164","240","spektor","0.02","w","240","164","164","240","237.1485","162.6685","39360","39360","38576.5967","tc","null","null","null","null","null","null","[2,3]","497.5796805287802","195.01229237945","502.1513927750348"
"","canvas-keyboard-response","86","208705","0.0-6.0-3.11","503","","","","","rectangles with change","null","null","","","critical","d","t","c","237.1485","162.6685","240","164","164","240","spektor","0.02","w","240","164","164","240","237.1485","162.6685","39360","39360","38576.5967","tc","null","null","null","null","null","null","[2,3]","497.5796805287802","195.01229237945","502.1513927750348"
"","canvas-keyboard-response","87","208726","0.0-6.0-4.11","503","","","","","clear_screen","null","null","","","critical","d","t","c","237.1485","162.6685","240","164","164","240","spektor","0.02","w","240","164","164","240","237.1485","162.6685","39360","39360","38576.5967","tc","null","null","null","null","null","null","[2,3]","497.5796805287802","195.01229237945","502.1513927750348"
"","canvas-keyboard-response","88","211214","0.0-6.0-5.11","503","","","","","make choice","2483","3","","","critical","d","t","c","237.1485","162.6685","240","164","164","240","spektor","0.02","w","240","164","164","240","237.1485","162.6685","39360","39360","38576.5967","tc","null","null","null","null","null","null","[2,3]","","",""
"","canvas-keyboard-response","89","211231","0.0-6.0-6.11","503","","","","","clear_screen","null","null","","","critical","d","t","c","237.1485","162.6685","240","164","164","240","spektor","0.02","w","240","164","164","240","237.1485","162.6685","39360","39360","38576.5967","tc","null","null","null","null","null","null","[2,3]","","",""
"","canvas-keyboard-response","90","211432","0.0-6.0-0.12","503","","","","","pre trial waiting period","null","null","","","critical","t","c","d","164","240","240","164","154.6796","220.0396","trueblood","0.14","h","164","240","240","164","154.6796","220.0396","39360","39360","34035.6388","tc","null","null","null","null","null","null","[1,2]","439.9457702395315","476.3203005472524","467.0509303997306"
"","canvas-keyboard-response","91","211452","0.0-6.0-1.12","503","","","","","clear_screen","null","null","","","critical","t","c","d","164","240","240","164","154.6796","220.0396","trueblood","0.14","h","164","240","240","164","154.6796","220.0396","39360","39360","34035.6388","tc","null","null","null","null","null","null","[1,2]","439.9457702395315","476.3203005472524","467.0509303997306"
"","canvas-keyboard-response","92","211962","0.0-6.0-2.12","503","","","","","rectangles no change","null","null","","","critical","t","c","d","164","240","240","164","154.6796","220.0396","trueblood","0.14","h","164","240","240","164","154.6796","220.0396","39360","39360","34035.6388","tc","null","null","null","null","null","null","[1,2]","439.9457702395315","476.3203005472524","467.0509303997306"
"","canvas-keyboard-response","93","213299","0.0-6.0-3.12","503","","","","","rectangles with change","null","null","","","critical","t","c","d","164","240","240","164","154.6796","220.0396","trueblood","0.14","h","164","240","240","164","154.6796","220.0396","39360","39360","34035.6388","tc","null","null","null","null","null","null","[1,2]","439.9457702395315","476.3203005472524","467.0509303997306"
"","canvas-keyboard-response","94","213317","0.0-6.0-4.12","503","","","","","clear_screen","null","null","","","critical","t","c","d","164","240","240","164","154.6796","220.0396","trueblood","0.14","h","164","240","240","164","154.6796","220.0396","39360","39360","34035.6388","tc","null","null","null","null","null","null","[1,2]","439.9457702395315","476.3203005472524","467.0509303997306"
"","canvas-keyboard-response","95","215789","0.0-6.0-5.12","503","","","","","make choice","2466","1","","","critical","t","c","d","164","240","240","164","154.6796","220.0396","trueblood","0.14","h","164","240","240","164","154.6796","220.0396","39360","39360","34035.6388","tc","null","null","null","null","null","null","[1,2]","","",""
"","canvas-keyboard-response","96","215810","0.0-6.0-6.12","503","","","","","clear_screen","null","null","","","critical","t","c","d","164","240","240","164","154.6796","220.0396","trueblood","0.14","h","164","240","240","164","154.6796","220.0396","39360","39360","34035.6388","tc","null","null","null","null","null","null","[1,2]","","",""
"","canvas-keyboard-response","97","216010","0.0-6.0-0.13","503","","","","","pre trial waiting period","null","null","","","critical","d","t","c","158.0083","227.1683","164","240","240","164","spektor","0.09","h","164","240","240","164","158.0083","227.1683","39360","39360","35894.4834","td","null","null","null","null","null","null","[2,1]","485.79657732281044","126.36011612895122","516.2872568711969"
"","canvas-keyboard-response","98","216032","0.0-6.0-1.13","503","","","","","clear_screen","null","null","","","critical","d","t","c","158.0083","227.1683","164","240","240","164","spektor","0.09","h","164","240","240","164","158.0083","227.1683","39360","39360","35894.4834","td","null","null","null","null","null","null","[2,1]","485.79657732281044","126.36011612895122","516.2872568711969"
"","canvas-keyboard-response","99","216539","0.0-6.0-2.13","503","","","","","rectangles no change","null","null","","","critical","d","t","c","158.0083","227.1683","164","240","240","164","spektor","0.09","h","164","240","240","164","158.0083","227.1683","39360","39360","35894.4834","td","null","null","null","null","null","null","[2,1]","485.79657732281044","126.36011612895122","516.2872568711969"
"","canvas-keyboard-response","100","217880","0.0-6.0-3.13","503","","","","","rectangles with change","null","null","","","critical","d","t","c","158.0083","227.1683","164","240","240","164","spektor","0.09","h","164","240","240","164","158.0083","227.1683","39360","39360","35894.4834","td","null","null","null","null","null","null","[2,1]","485.79657732281044","126.36011612895122","516.2872568711969"
"","canvas-keyboard-response","101","217899","0.0-6.0-4.13","503","","","","","clear_screen","null","null","","","critical","d","t","c","158.0083","227.1683","164","240","240","164","spektor","0.09","h","164","240","240","164","158.0083","227.1683","39360","39360","35894.4834","td","null","null","null","null","null","null","[2,1]","485.79657732281044","126.36011612895122","516.2872568711969"
"","canvas-keyboard-response","102","218390","0.0-6.0-5.13","503","","","","","make choice","485","2","","","critical","d","t","c","158.0083","227.1683","164","240","240","164","spektor","0.09","h","164","240","240","164","158.0083","227.1683","39360","39360","35894.4834","td","null","null","null","null","null","null","[2,1]","","",""
"","canvas-keyboard-response","103","218410","0.0-6.0-6.13","503","","","","","clear_screen","null","null","","","critical","d","t","c","158.0083","227.1683","164","240","240","164","spektor","0.09","h","164","240","240","164","158.0083","227.1683","39360","39360","35894.4834","td","null","null","null","null","null","null","[2,1]","","",""
"","canvas-keyboard-response","104","218611","0.0-6.0-0.14","503","","","","","pre trial waiting period","null","null","","","catch","l","sw","sh","179","225","204","185","226","202","trueblood","null","null","null","null","null","null","null","null","null","null","null","","180","200","260","200","36000","52000","[1,2]","469.77117010749794","462.7086244065362","490.295970322131"
"","canvas-keyboard-response","105","218630","0.0-6.0-1.14","503","","","","","clear_screen","null","null","","","catch","l","sw","sh","179","225","204","185","226","202","trueblood","null","null","null","null","null","null","null","null","null","null","null","","180","200","260","200","36000","52000","[1,2]","469.77117010749794","462.7086244065362","490.295970322131"
"","canvas-keyboard-response","106","219135","0.0-6.0-2.14","503","","","","","rectangles no change","null","null","","","catch","l","sw","sh","179","225","204","185","226","202","trueblood","null","null","null","null","null","null","null","null","null","null","null","","180","200","260","200","36000","52000","[1,2]","469.77117010749794","462.7086244065362","490.295970322131"
"","canvas-keyboard-response","107","220469","0.0-6.0-3.14","503","","","","","rectangles with change","null","null","","","catch","l","sw","sh","179","225","204","185","226","202","trueblood","null","null","null","null","null","null","null","null","null","null","null","","180","200","260","200","36000","52000","[1,2]","469.77117010749794","462.7086244065362","490.295970322131"
"","canvas-keyboard-response","108","220486","0.0-6.0-4.14","503","","","","","clear_screen","null","null","","","catch","l","sw","sh","179","225","204","185","226","202","trueblood","null","null","null","null","null","null","null","null","null","null","null","","180","200","260","200","36000","52000","[1,2]","469.77117010749794","462.7086244065362","490.295970322131"
"","canvas-keyboard-response","109","221909","0.0-6.0-5.14","503","","","","","make choice","1418","1","","","catch","l","sw","sh","179","225","204","185","226","202","trueblood","null","null","null","null","null","null","null","null","null","null","null","","180","200","260","200","36000","52000","[1,2]","","",""
"","canvas-keyboard-response","110","221928","0.0-6.0-6.14","503","","","","","clear_screen","null","null","","","catch","l","sw","sh","179","225","204","185","226","202","trueblood","null","null","null","null","null","null","null","null","null","null","null","","180","200","260","200","36000","52000","[1,2]","","",""
"","canvas-keyboard-response","111","222127","0.0-6.0-0.15","503","","","","","pre trial waiting period","null","null","","","catch","sh","sw","l","195","205","218","178","264","209","trueblood","null","null","null","null","null","null","null","null","null","null","null","","180","200","260","200","36000","52000","[1,3]","462.84686099536594","463.93454488413704","440.4593522474202"
"","canvas-keyboard-response","112","222142","0.0-6.0-1.15","503","","","","","clear_screen","null","null","","","catch","sh","sw","l","195","205","218","178","264","209","trueblood","null","null","null","null","null","null","null","null","null","null","null","","180","200","260","200","36000","52000","[1,3]","462.84686099536594","463.93454488413704","440.4593522474202"
"","canvas-keyboard-response","113","222650","0.0-6.0-2.15","503","","","","","rectangles no change","null","null","","","catch","sh","sw","l","195","205","218","178","264","209","trueblood","null","null","null","null","null","null","null","null","null","null","null","","180","200","260","200","36000","52000","[1,3]","462.84686099536594","463.93454488413704","440.4593522474202"
"","canvas-keyboard-response","114","223989","0.0-6.0-3.15","503","","","","","rectangles with change","null","null","","","catch","sh","sw","l","195","205","218","178","264","209","trueblood","null","null","null","null","null","null","null","null","null","null","null","","180","200","260","200","36000","52000","[1,3]","462.84686099536594","463.93454488413704","440.4593522474202"
"","canvas-keyboard-response","115","224009","0.0-6.0-4.15","503","","","","","clear_screen","null","null","","","catch","sh","sw","l","195","205","218","178","264","209","trueblood","null","null","null","null","null","null","null","null","null","null","null","","180","200","260","200","36000","52000","[1,3]","462.84686099536594","463.93454488413704","440.4593522474202"
"","canvas-keyboard-response","116","224979","0.0-6.0-5.15","503","","","","","make choice","963","3","","","catch","sh","sw","l","195","205","218","178","264","209","trueblood","null","null","null","null","null","null","null","null","null","null","null","","180","200","260","200","36000","52000","[1,3]","","",""
"","canvas-keyboard-response","117","224995","0.0-6.0-6.15","503","","","","","clear_screen","null","null","","","catch","sh","sw","l","195","205","218","178","264","209","trueblood","null","null","null","null","null","null","null","null","null","null","null","","180","200","260","200","36000","52000","[1,3]","","",""
"","canvas-keyboard-response","118","225196","0.0-6.0-0.16","503","","","","","pre trial waiting period","null","null","","","catch","l","sw","sh","271","160","189","207","204","210","spektor","null","null","null","null","null","null","null","null","null","null","null","","180","200","260","200","36000","52000","[1,3]","505.48936359990535","146.50918926561351","503.4037952500698"
"","canvas-keyboard-response","119","225214","0.0-6.0-1.16","503","","","","","clear_screen","null","null","","","catch","l","sw","sh","271","160","189","207","204","210","spektor","null","null","null","null","null","null","null","null","null","null","null","","180","200","260","200","36000","52000","[1,3]","505.48936359990535","146.50918926561351","503.4037952500698"
"","canvas-keyboard-response","120","225720","0.0-6.0-2.16","503","","","","","rectangles no change","null","null","","","catch","l","sw","sh","271","160","189","207","204","210","spektor","null","null","null","null","null","null","null","null","null","null","null","","180","200","260","200","36000","52000","[1,3]","505.48936359990535","146.50918926561351","503.4037952500698"
"","canvas-keyboard-response","121","227059","0.0-6.0-3.16","503","","","","","rectangles with change","null","null","","","catch","l","sw","sh","271","160","189","207","204","210","spektor","null","null","null","null","null","null","null","null","null","null","null","","180","200","260","200","36000","52000","[1,3]","505.48936359990535","146.50918926561351","503.4037952500698"
"","canvas-keyboard-response","122","227081","0.0-6.0-4.16","503","","","","","clear_screen","null","null","","","catch","l","sw","sh","271","160","189","207","204","210","spektor","null","null","null","null","null","null","null","null","null","null","null","","180","200","260","200","36000","52000","[1,3]","505.48936359990535","146.50918926561351","503.4037952500698"
"","canvas-keyboard-response","123","230886","0.0-6.0-5.16","503","","","","","make choice","3802","3","","","catch","l","sw","sh","271","160","189","207","204","210","spektor","null","null","null","null","null","null","null","null","null","null","null","","180","200","260","200","36000","52000","[1,3]","","",""
"","canvas-keyboard-response","124","230906","0.0-6.0-6.16","503","","","","","clear_screen","null","null","","","catch","l","sw","sh","271","160","189","207","204","210","spektor","null","null","null","null","null","null","null","null","null","null","null","","180","200","260","200","36000","52000","[1,3]","","",""
"","canvas-keyboard-response","125","231107","0.0-6.0-0.17","503","","","","","pre trial waiting period","null","null","","","critical","c","t","d","240","164","164","240","162.6685","237.1485","spektor","0.02","h","164","240","240","164","162.6685","237.1485","39360","39360","38576.5967","dc","null","null","null","null","null","null","[3,1]","533.4086790399524","131.19015402916006","502.5619290515121"
"","canvas-keyboard-response","126","231129","0.0-6.0-1.17","503","","","","","clear_screen","null","null","","","critical","c","t","d","240","164","164","240","162.6685","237.1485","spektor","0.02","h","164","240","240","164","162.6685","237.1485","39360","39360","38576.5967","dc","null","null","null","null","null","null","[3,1]","533.4086790399524","131.19015402916006","502.5619290515121"
"","canvas-keyboard-response","127","231635","0.0-6.0-2.17","503","","","","","rectangles no change","null","null","","","critical","c","t","d","240","164","164","240","162.6685","237.1485","spektor","0.02","h","164","240","240","164","162.6685","237.1485","39360","39360","38576.5967","dc","null","null","null","null","null","null","[3,1]","533.4086790399524","131.19015402916006","502.5619290515121"
"","canvas-keyboard-response","128","232972","0.0-6.0-3.17","503","","","","","rectangles with change","null","null","","","critical","c","t","d","240","164","164","240","162.6685","237.1485","spektor","0.02","h","164","240","240","164","162.6685","237.1485","39360","39360","38576.5967","dc","null","null","null","null","null","null","[3,1]","533.4086790399524","131.19015402916006","502.5619290515121"
"","canvas-keyboard-response","129","232988","0.0-6.0-4.17","503","","","","","clear_screen","null","null","","","critical","c","t","d","240","164","164","240","162.6685","237.1485","spektor","0.02","h","164","240","240","164","162.6685","237.1485","39360","39360","38576.5967","dc","null","null","null","null","null","null","[3,1]","533.4086790399524","131.19015402916006","502.5619290515121"
"","canvas-keyboard-response","130","233782","0.0-6.0-5.17","503","","","","","make choice","787","3","","","critical","c","t","d","240","164","164","240","162.6685","237.1485","spektor","0.02","h","164","240","240","164","162.6685","237.1485","39360","39360","38576.5967","dc","null","null","null","null","null","null","[3,1]","","",""
"","canvas-keyboard-response","131","233802","0.0-6.0-6.17","503","","","","","clear_screen","null","null","","","critical","c","t","d","240","164","164","240","162.6685","237.1485","spektor","0.02","h","164","240","240","164","162.6685","237.1485","39360","39360","38576.5967","dc","null","null","null","null","null","null","[3,1]","","",""
"","canvas-keyboard-response","132","234003","0.0-6.0-0.18","503","","","","","pre trial waiting period","null","null","","","critical","d","t","c","220.0396","154.6796","240","164","164","240","trueblood","0.14","w","240","164","164","240","220.0396","154.6796","39360","39360","34035.6388","td","null","null","null","null","null","null","[2,1]","520.9794613304497","494.388062183023","435.2170628795478"
"","canvas-keyboard-response","133","234022","0.0-6.0-1.18","503","","","","","clear_screen","null","null","","","critical","d","t","c","220.0396","154.6796","240","164","164","240","trueblood","0.14","w","240","164","164","240","220.0396","154.6796","39360","39360","34035.6388","td","null","null","null","null","null","null","[2,1]","520.9794613304497","494.388062183023","435.2170628795478"
"","canvas-keyboard-response","134","234530","0.0-6.0-2.18","503","","","","","rectangles no change","null","null","","","critical","d","t","c","220.0396","154.6796","240","164","164","240","trueblood","0.14","w","240","164","164","240","220.0396","154.6796","39360","39360","34035.6388","td","null","null","null","null","null","null","[2,1]","520.9794613304497","494.388062183023","435.2170628795478"
"","canvas-keyboard-response","135","235866","0.0-6.0-3.18","503","","","","","rectangles with change","null","null","","","critical","d","t","c","220.0396","154.6796","240","164","164","240","trueblood","0.14","w","240","164","164","240","220.0396","154.6796","39360","39360","34035.6388","td","null","null","null","null","null","null","[2,1]","520.9794613304497","494.388062183023","435.2170628795478"
"","canvas-keyboard-response","136","235886","0.0-6.0-4.18","503","","","","","clear_screen","null","null","","","critical","d","t","c","220.0396","154.6796","240","164","164","240","trueblood","0.14","w","240","164","164","240","220.0396","154.6796","39360","39360","34035.6388","td","null","null","null","null","null","null","[2,1]","520.9794613304497","494.388062183023","435.2170628795478"
"","canvas-keyboard-response","137","239039","0.0-6.0-5.18","503","","","","","make choice","3148","2","","","critical","d","t","c","220.0396","154.6796","240","164","164","240","trueblood","0.14","w","240","164","164","240","220.0396","154.6796","39360","39360","34035.6388","td","null","null","null","null","null","null","[2,1]","","",""
"","canvas-keyboard-response","138","239059","0.0-6.0-6.18","503","","","","","clear_screen","null","null","","","critical","d","t","c","220.0396","154.6796","240","164","164","240","trueblood","0.14","w","240","164","164","240","220.0396","154.6796","39360","39360","34035.6388","td","null","null","null","null","null","null","[2,1]","","",""
"","canvas-keyboard-response","139","239261","0.0-6.0-0.19","503","","","","","pre trial waiting period","null","null","","","catch","sw","sh","l","180","200","206","172","253","172","trueblood","null","null","null","null","null","null","null","null","null","null","null","","180","200","260","200","36000","52000","[1,3]","485.1078722803672","511.5786240388701","498.36787451803417"
"","canvas-keyboard-response","140","239282","0.0-6.0-1.19","503","","","","","clear_screen","null","null","","","catch","sw","sh","l","180","200","206","172","253","172","trueblood","null","null","null","null","null","null","null","null","null","null","null","","180","200","260","200","36000","52000","[1,3]","485.1078722803672","511.5786240388701","498.36787451803417"
"","canvas-keyboard-response","141","239789","0.0-6.0-2.19","503","","","","","rectangles no change","null","null","","","catch","sw","sh","l","180","200","206","172","253","172","trueblood","null","null","null","null","null","null","null","null","null","null","null","","180","200","260","200","36000","52000","[1,3]","485.1078722803672","511.5786240388701","498.36787451803417"
"","canvas-keyboard-response","142","241128","0.0-6.0-3.19","503","","","","","rectangles with change","null","null","","","catch","sw","sh","l","180","200","206","172","253","172","trueblood","null","null","null","null","null","null","null","null","null","null","null","","180","200","260","200","36000","52000","[1,3]","485.1078722803672","511.5786240388701","498.36787451803417"
"","canvas-keyboard-response","143","241149","0.0-6.0-4.19","503","","","","","clear_screen","null","null","","","catch","sw","sh","l","180","200","206","172","253","172","trueblood","null","null","null","null","null","null","null","null","null","null","null","","180","200","260","200","36000","52000","[1,3]","485.1078722803672","511.5786240388701","498.36787451803417"
"","canvas-keyboard-response","144","241743","0.0-6.0-5.19","503","","","","","make choice","586","3","","","catch","sw","sh","l","180","200","206","172","253","172","trueblood","null","null","null","null","null","null","null","null","null","null","null","","180","200","260","200","36000","52000","[1,3]","","",""
"","canvas-keyboard-response","145","241763","0.0-6.0-6.19","503","","","","","clear_screen","null","null","","","catch","sw","sh","l","180","200","206","172","253","172","trueblood","null","null","null","null","null","null","null","null","null","null","null","","180","200","260","200","36000","52000","[1,3]","","",""
"","canvas-keyboard-response","146","241965","0.0-6.0-0.20","503","","","","","pre trial waiting period","null","null","","","critical","t","d","c","164","240","158.0083","227.1683","240","164","spektor","0.09","h","164","240","240","164","158.0083","227.1683","39360","39360","35894.4834","tc","null","null","null","null","null","null","[1,3]","462.3535559455703","138.35265949140916","528.2111892978165"
"","canvas-keyboard-response","147","241984","0.0-6.0-1.20","503","","","","","clear_screen","null","null","","","critical","t","d","c","164","240","158.0083","227.1683","240","164","spektor","0.09","h","164","240","240","164","158.0083","227.1683","39360","39360","35894.4834","tc","null","null","null","null","null","null","[1,3]","462.3535559455703","138.35265949140916","528.2111892978165"
"","canvas-keyboard-response","148","242491","0.0-6.0-2.20","503","","","","","rectangles no change","null","null","","","critical","t","d","c","164","240","158.0083","227.1683","240","164","spektor","0.09","h","164","240","240","164","158.0083","227.1683","39360","39360","35894.4834","tc","null","null","null","null","null","null","[1,3]","462.3535559455703","138.35265949140916","528.2111892978165"
"","canvas-keyboard-response","149","243826","0.0-6.0-3.20","503","","","","","rectangles with change","null","null","","","critical","t","d","c","164","240","158.0083","227.1683","240","164","spektor","0.09","h","164","240","240","164","158.0083","227.1683","39360","39360","35894.4834","tc","null","null","null","null","null","null","[1,3]","462.3535559455703","138.35265949140916","528.2111892978165"
"","canvas-keyboard-response","150","243849","0.0-6.0-4.20","503","","","","","clear_screen","null","null","","","critical","t","d","c","164","240","158.0083","227.1683","240","164","spektor","0.09","h","164","240","240","164","158.0083","227.1683","39360","39360","35894.4834","tc","null","null","null","null","null","null","[1,3]","462.3535559455703","138.35265949140916","528.2111892978165"
"","canvas-keyboard-response","151","245373","0.0-6.0-5.20","503","","","","","make choice","1515","3","","","critical","t","d","c","164","240","158.0083","227.1683","240","164","spektor","0.09","h","164","240","240","164","158.0083","227.1683","39360","39360","35894.4834","tc","null","null","null","null","null","null","[1,3]","","",""
"","canvas-keyboard-response","152","245390","0.0-6.0-6.20","503","","","","","clear_screen","null","null","","","critical","t","d","c","164","240","158.0083","227.1683","240","164","spektor","0.09","h","164","240","240","164","158.0083","227.1683","39360","39360","35894.4834","tc","null","null","null","null","null","null","[1,3]","","",""
"","canvas-keyboard-response","153","245591","0.0-6.0-0.21","503","","","","","pre trial waiting period","null","null","","","critical","c","t","d","164","240","240","164","220.0396","154.6796","spektor","0.14","w","240","164","164","240","220.0396","154.6796","39360","39360","34035.6388","tc","null","null","null","null","null","null","[2,1]","493.464804704924","183.57050441678962","501.88556286280584"
"","canvas-keyboard-response","154","245611","0.0-6.0-1.21","503","","","","","clear_screen","null","null","","","critical","c","t","d","164","240","240","164","220.0396","154.6796","spektor","0.14","w","240","164","164","240","220.0396","154.6796","39360","39360","34035.6388","tc","null","null","null","null","null","null","[2,1]","493.464804704924","183.57050441678962","501.88556286280584"
"","canvas-keyboard-response","155","246118","0.0-6.0-2.21","503","","","","","rectangles no change","null","null","","","critical","c","t","d","164","240","240","164","220.0396","154.6796","spektor","0.14","w","240","164","164","240","220.0396","154.6796","39360","39360","34035.6388","tc","null","null","null","null","null","null","[2,1]","493.464804704924","183.57050441678962","501.88556286280584"
"","canvas-keyboard-response","156","247457","0.0-6.0-3.21","503","","","","","rectangles with change","null","null","","","critical","c","t","d","164","240","240","164","220.0396","154.6796","spektor","0.14","w","240","164","164","240","220.0396","154.6796","39360","39360","34035.6388","tc","null","null","null","null","null","null","[2,1]","493.464804704924","183.57050441678962","501.88556286280584"
"","canvas-keyboard-response","157","247475","0.0-6.0-4.21","503","","","","","clear_screen","null","null","","","critical","c","t","d","164","240","240","164","220.0396","154.6796","spektor","0.14","w","240","164","164","240","220.0396","154.6796","39360","39360","34035.6388","tc","null","null","null","null","null","null","[2,1]","493.464804704924","183.57050441678962","501.88556286280584"
"","canvas-keyboard-response","158","249174","0.0-6.0-5.21","503","","","","","make choice","1693","2","","","critical","c","t","d","164","240","240","164","220.0396","154.6796","spektor","0.14","w","240","164","164","240","220.0396","154.6796","39360","39360","34035.6388","tc","null","null","null","null","null","null","[2,1]","","",""
"","canvas-keyboard-response","159","249192","0.0-6.0-6.21","503","","","","","clear_screen","null","null","","","critical","c","t","d","164","240","240","164","220.0396","154.6796","spektor","0.14","w","240","164","164","240","220.0396","154.6796","39360","39360","34035.6388","tc","null","null","null","null","null","null","[2,1]","","",""
"","canvas-keyboard-response","160","249393","0.0-6.0-0.22","503","","","","","pre trial waiting period","null","null","","","catch","sh","l","sw","191","171","261","199","211","228","trueblood","null","null","null","null","null","null","null","null","null","null","null","","180","200","260","200","36000","52000","[1,2]","464.6436232006142","462.28129112798837","450.3941357669688"
"","canvas-keyboard-response","161","249413","0.0-6.0-1.22","503","","","","","clear_screen","null","null","","","catch","sh","l","sw","191","171","261","199","211","228","trueblood","null","null","null","null","null","null","null","null","null","null","null","","180","200","260","200","36000","52000","[1,2]","464.6436232006142","462.28129112798837","450.3941357669688"
"","canvas-keyboard-response","162","249922","0.0-6.0-2.22","503","","","","","rectangles no change","null","null","","","catch","sh","l","sw","191","171","261","199","211","228","trueblood","null","null","null","null","null","null","null","null","null","null","null","","180","200","260","200","36000","52000","[1,2]","464.6436232006142","462.28129112798837","450.3941357669688"
"","canvas-keyboard-response","163","251258","0.0-6.0-3.22","503","","","","","rectangles with change","null","null","","","catch","sh","l","sw","191","171","261","199","211","228","trueblood","null","null","null","null","null","null","null","null","null","null","null","","180","200","260","200","36000","52000","[1,2]","464.6436232006142","462.28129112798837","450.3941357669688"
"","canvas-keyboard-response","164","251278","0.0-6.0-4.22","503","","","","","clear_screen","null","null","","","catch","sh","l","sw","191","171","261","199","211","228","trueblood","null","null","null","null","null","null","null","null","null","null","null","","180","200","260","200","36000","52000","[1,2]","464.6436232006142","462.28129112798837","450.3941357669688"
"","canvas-keyboard-response","165","251702","0.0-6.0-5.22","503","","","","","make choice","417","2","","","catch","sh","l","sw","191","171","261","199","211","228","trueblood","null","null","null","null","null","null","null","null","null","null","null","","180","200","260","200","36000","52000","[1,2]","","",""
"","canvas-keyboard-response","166","251721","0.0-6.0-6.22","503","","","","","clear_screen","null","null","","","catch","sh","l","sw","191","171","261","199","211","228","trueblood","null","null","null","null","null","null","null","null","null","null","null","","180","200","260","200","36000","52000","[1,2]","","",""
"","canvas-keyboard-response","167","251922","0.0-6.0-0.23","503","","","","","pre trial waiting period","null","null","","","critical","t","c","d","240","164","164","240","232.8713","160.6713","spektor","0.05","w","240","164","164","240","232.8713","160.6713","39360","39360","37415.7294","tc","null","null","null","null","null","null","[1,2]","528.7490365229864","110.83547631799874","517.4357889720586"
"","canvas-keyboard-response","168","251946","0.0-6.0-1.23","503","","","","","clear_screen","null","null","","","critical","t","c","d","240","164","164","240","232.8713","160.6713","spektor","0.05","w","240","164","164","240","232.8713","160.6713","39360","39360","37415.7294","tc","null","null","null","null","null","null","[1,2]","528.7490365229864","110.83547631799874","517.4357889720586"
"","canvas-keyboard-response","169","252453","0.0-6.0-2.23","503","","","","","rectangles no change","null","null","","","critical","t","c","d","240","164","164","240","232.8713","160.6713","spektor","0.05","w","240","164","164","240","232.8713","160.6713","39360","39360","37415.7294","tc","null","null","null","null","null","null","[1,2]","528.7490365229864","110.83547631799874","517.4357889720586"
"","canvas-keyboard-response","170","253790","0.0-6.0-3.23","503","","","","","rectangles with change","null","null","","","critical","t","c","d","240","164","164","240","232.8713","160.6713","spektor","0.05","w","240","164","164","240","232.8713","160.6713","39360","39360","37415.7294","tc","null","null","null","null","null","null","[1,2]","528.7490365229864","110.83547631799874","517.4357889720586"
"","canvas-keyboard-response","171","253812","0.0-6.0-4.23","503","","","","","clear_screen","null","null","","","critical","t","c","d","240","164","164","240","232.8713","160.6713","spektor","0.05","w","240","164","164","240","232.8713","160.6713","39360","39360","37415.7294","tc","null","null","null","null","null","null","[1,2]","528.7490365229864","110.83547631799874","517.4357889720586"
"","canvas-keyboard-response","172","254125","0.0-6.0-5.23","503","","","","","make choice","308","1","","","critical","t","c","d","240","164","164","240","232.8713","160.6713","spektor","0.05","w","240","164","164","240","232.8713","160.6713","39360","39360","37415.7294","tc","null","null","null","null","null","null","[1,2]","","",""
"","canvas-keyboard-response","173","254145","0.0-6.0-6.23","503","","","","","clear_screen","null","null","","","critical","t","c","d","240","164","164","240","232.8713","160.6713","spektor","0.05","w","240","164","164","240","232.8713","160.6713","39360","39360","37415.7294","tc","null","null","null","null","null","null","[1,2]","","",""
"","canvas-keyboard-response","174","254346","0.0-6.0-0.24","503","","","","","pre trial waiting period","null","null","","","catch","sw","l","sh","180","200","163","247","228","146","spektor","null","null","null","null","null","null","null","null","null","null","null","","180","200","260","200","36000","52000","[2,3]","487.6723223463464","102.47134494467721","511.58065478908014"
"","canvas-keyboard-response","175","254366","0.0-6.0-1.24","503","","","","","clear_screen","null","null","","","catch","sw","l","sh","180","200","163","247","228","146","spektor","null","null","null","null","null","null","null","null","null","null","null","","180","200","260","200","36000","52000","[2,3]","487.6723223463464","102.47134494467721","511.58065478908014"
"","canvas-keyboard-response","176","254877","0.0-6.0-2.24","503","","","","","rectangles no change","null","null","","","catch","sw","l","sh","180","200","163","247","228","146","spektor","null","null","null","null","null","null","null","null","null","null","null","","180","200","260","200","36000","52000","[2,3]","487.6723223463464","102.47134494467721","511.58065478908014"
"","canvas-keyboard-response","177","256213","0.0-6.0-3.24","503","","","","","rectangles with change","null","null","","","catch","sw","l","sh","180","200","163","247","228","146","spektor","null","null","null","null","null","null","null","null","null","null","null","","180","200","260","200","36000","52000","[2,3]","487.6723223463464","102.47134494467721","511.58065478908014"
"","canvas-keyboard-response","178","256231","0.0-6.0-4.24","503","","","","","clear_screen","null","null","","","catch","sw","l","sh","180","200","163","247","228","146","spektor","null","null","null","null","null","null","null","null","null","null","null","","180","200","260","200","36000","52000","[2,3]","487.6723223463464","102.47134494467721","511.58065478908014"
"","canvas-keyboard-response","179","257142","0.0-6.0-5.24","503","","","","","make choice","901","3","","","catch","sw","l","sh","180","200","163","247","228","146","spektor","null","null","null","null","null","null","null","null","null","null","null","","180","200","260","200","36000","52000","[2,3]","","",""
"","canvas-keyboard-response","180","257159","0.0-6.0-6.24","503","","","","","clear_screen","null","null","","","catch","sw","l","sh","180","200","163","247","228","146","spektor","null","null","null","null","null","null","null","null","null","null","null","","180","200","260","200","36000","52000","[2,3]","","",""
"","canvas-keyboard-response","181","257360","0.0-6.0-0.25","503","","","","","pre trial waiting period","null","null","","","catch","l","sw","sh","211","228","174","202","221","201","spektor","null","null","null","null","null","null","null","null","null","null","null","","180","200","260","200","36000","52000","[1,3]","463.0240611347687","163.47224520121247","517.1745589261373"
"","canvas-keyboard-response","182","257378","0.0-6.0-1.25","503","","","","","clear_screen","null","null","","","catch","l","sw","sh","211","228","174","202","221","201","spektor","null","null","null","null","null","null","null","null","null","null","null","","180","200","260","200","36000","52000","[1,3]","463.0240611347687","163.47224520121247","517.1745589261373"
"","canvas-keyboard-response","183","257887","0.0-6.0-2.25","503","","","","","rectangles no change","null","null","","","catch","l","sw","sh","211","228","174","202","221","201","spektor","null","null","null","null","null","null","null","null","null","null","null","","180","200","260","200","36000","52000","[1,3]","463.0240611347687","163.47224520121247","517.1745589261373"
"","canvas-keyboard-response","184","259225","0.0-6.0-3.25","503","","","","","rectangles with change","null","null","","","catch","l","sw","sh","211","228","174","202","221","201","spektor","null","null","null","null","null","null","null","null","null","null","null","","180","200","260","200","36000","52000","[1,3]","463.0240611347687","163.47224520121247","517.1745589261373"
"","canvas-keyboard-response","185","259247","0.0-6.0-4.25","503","","","","","clear_screen","null","null","","","catch","l","sw","sh","211","228","174","202","221","201","spektor","null","null","null","null","null","null","null","null","null","null","null","","180","200","260","200","36000","52000","[1,3]","463.0240611347687","163.47224520121247","517.1745589261373"
"","canvas-keyboard-response","186","259581","0.0-6.0-5.25","503","","","","","make choice","329","1","","","catch","l","sw","sh","211","228","174","202","221","201","spektor","null","null","null","null","null","null","null","null","null","null","null","","180","200","260","200","36000","52000","[1,3]","","",""
"","canvas-keyboard-response","187","259604","0.0-6.0-6.25","503","","","","","clear_screen","null","null","","","catch","l","sw","sh","211","228","174","202","221","201","spektor","null","null","null","null","null","null","null","null","null","null","null","","180","200","260","200","36000","52000","[1,3]","","",""
"","canvas-keyboard-response","188","259805","0.0-6.0-0.26","503","","","","","pre trial waiting period","null","null","","","critical","c","d","t","240","164","158.0083","227.1683","164","240","trueblood","0.09","h","164","240","240","164","158.0083","227.1683","39360","39360","35894.4834","td","null","null","null","null","null","null","[3,2]","498.6865762735657","429.10921269598344","427.728215179002"
"","canvas-keyboard-response","189","259828","0.0-6.0-1.26","503","","","","","clear_screen","null","null","","","critical","c","d","t","240","164","158.0083","227.1683","164","240","trueblood","0.09","h","164","240","240","164","158.0083","227.1683","39360","39360","35894.4834","td","null","null","null","null","null","null","[3,2]","498.6865762735657","429.10921269598344","427.728215179002"
"","canvas-keyboard-response","190","260334","0.0-6.0-2.26","503","","","","","rectangles no change","null","null","","","critical","c","d","t","240","164","158.0083","227.1683","164","240","trueblood","0.09","h","164","240","240","164","158.0083","227.1683","39360","39360","35894.4834","td","null","null","null","null","null","null","[3,2]","498.6865762735657","429.10921269598344","427.728215179002"
"","canvas-keyboard-response","191","261672","0.0-6.0-3.26","503","","","","","rectangles with change","null","null","","","critical","c","d","t","240","164","158.0083","227.1683","164","240","trueblood","0.09","h","164","240","240","164","158.0083","227.1683","39360","39360","35894.4834","td","null","null","null","null","null","null","[3,2]","498.6865762735657","429.10921269598344","427.728215179002"
"","canvas-keyboard-response","192","261693","0.0-6.0-4.26","503","","","","","clear_screen","null","null","","","critical","c","d","t","240","164","158.0083","227.1683","164","240","trueblood","0.09","h","164","240","240","164","158.0083","227.1683","39360","39360","35894.4834","td","null","null","null","null","null","null","[3,2]","498.6865762735657","429.10921269598344","427.728215179002"
"","canvas-keyboard-response","193","262197","0.0-6.0-5.26","503","","","","","make choice","501","3","","","critical","c","d","t","240","164","158.0083","227.1683","164","240","trueblood","0.09","h","164","240","240","164","158.0083","227.1683","39360","39360","35894.4834","td","null","null","null","null","null","null","[3,2]","","",""
"","canvas-keyboard-response","194","262217","0.0-6.0-6.26","503","","","","","clear_screen","null","null","","","critical","c","d","t","240","164","158.0083","227.1683","164","240","trueblood","0.09","h","164","240","240","164","158.0083","227.1683","39360","39360","35894.4834","td","null","null","null","null","null","null","[3,2]","","",""
"","canvas-keyboard-response","195","262418","0.0-6.0-0.27","503","","","","","pre trial waiting period","null","null","","","critical","c","t","d","164","240","240","164","227.1683","158.0083","spektor","0.09","w","240","164","164","240","227.1683","158.0083","39360","39360","35894.4834","tc","null","null","null","null","null","null","[2,1]","498.69840232914015","212.2385317187696","514.0781396966573"
"","canvas-keyboard-response","196","262438","0.0-6.0-1.27","503","","","","","clear_screen","null","null","","","critical","c","t","d","164","240","240","164","227.1683","158.0083","spektor","0.09","w","240","164","164","240","227.1683","158.0083","39360","39360","35894.4834","tc","null","null","null","null","null","null","[2,1]","498.69840232914015","212.2385317187696","514.0781396966573"
"","canvas-keyboard-response","197","262944","0.0-6.0-2.27","503","","","","","rectangles no change","null","null","","","critical","c","t","d","164","240","240","164","227.1683","158.0083","spektor","0.09","w","240","164","164","240","227.1683","158.0083","39360","39360","35894.4834","tc","null","null","null","null","null","null","[2,1]","498.69840232914015","212.2385317187696","514.0781396966573"
"","canvas-keyboard-response","198","264283","0.0-6.0-3.27","503","","","","","rectangles with change","null","null","","","critical","c","t","d","164","240","240","164","227.1683","158.0083","spektor","0.09","w","240","164","164","240","227.1683","158.0083","39360","39360","35894.4834","tc","null","null","null","null","null","null","[2,1]","498.69840232914015","212.2385317187696","514.0781396966573"
"","canvas-keyboard-response","199","264305","0.0-6.0-4.27","503","","","","","clear_screen","null","null","","","critical","c","t","d","164","240","240","164","227.1683","158.0083","spektor","0.09","w","240","164","164","240","227.1683","158.0083","39360","39360","35894.4834","tc","null","null","null","null","null","null","[2,1]","498.69840232914015","212.2385317187696","514.0781396966573"
"","canvas-keyboard-response","200","264846","0.0-6.0-5.27","503","","","","","make choice","533","2","","","critical","c","t","d","164","240","240","164","227.1683","158.0083","spektor","0.09","w","240","164","164","240","227.1683","158.0083","39360","39360","35894.4834","tc","null","null","null","null","null","null","[2,1]","","",""
"","canvas-keyboard-response","201","264863","0.0-6.0-6.27","503","","","","","clear_screen","null","null","","","critical","c","t","d","164","240","240","164","227.1683","158.0083","spektor","0.09","w","240","164","164","240","227.1683","158.0083","39360","39360","35894.4834","tc","null","null","null","null","null","null","[2,1]","","",""
"","canvas-keyboard-response","202","265064","0.0-6.0-0.28","503","","","","","pre trial waiting period","null","null","","","critical","c","d","t","240","164","164","240","164","240","spektor","0","h","164","240","240","164","164","240","39360","39360","39360","dc","null","null","null","null","null","null","[2,1]","524.7658443515007","125.19990365221858","490.32620099867694"
"","canvas-keyboard-response","203","265085","0.0-6.0-1.28","503","","","","","clear_screen","null","null","","","critical","c","d","t","240","164","164","240","164","240","spektor","0","h","164","240","240","164","164","240","39360","39360","39360","dc","null","null","null","null","null","null","[2,1]","524.7658443515007","125.19990365221858","490.32620099867694"
"","canvas-keyboard-response","204","265594","0.0-6.0-2.28","503","","","","","rectangles no change","null","null","","","critical","c","d","t","240","164","164","240","164","240","spektor","0","h","164","240","240","164","164","240","39360","39360","39360","dc","null","null","null","null","null","null","[2,1]","524.7658443515007","125.19990365221858","490.32620099867694"
"","canvas-keyboard-response","205","266932","0.0-6.0-3.28","503","","","","","rectangles with change","null","null","","","critical","c","d","t","240","164","164","240","164","240","spektor","0","h","164","240","240","164","164","240","39360","39360","39360","dc","null","null","null","null","null","null","[2,1]","524.7658443515007","125.19990365221858","490.32620099867694"
"","canvas-keyboard-response","206","266953","0.0-6.0-4.28","503","","","","","clear_screen","null","null","","","critical","c","d","t","240","164","164","240","164","240","spektor","0","h","164","240","240","164","164","240","39360","39360","39360","dc","null","null","null","null","null","null","[2,1]","524.7658443515007","125.19990365221858","490.32620099867694"
"","canvas-keyboard-response","207","267255","0.0-6.0-5.28","503","","","","","make choice","294","1","","","critical","c","d","t","240","164","164","240","164","240","spektor","0","h","164","240","240","164","164","240","39360","39360","39360","dc","null","null","null","null","null","null","[2,1]","","",""
"","canvas-keyboard-response","208","267273","0.0-6.0-6.28","503","","","","","clear_screen","null","null","","","critical","c","d","t","240","164","164","240","164","240","spektor","0","h","164","240","240","164","164","240","39360","39360","39360","dc","null","null","null","null","null","null","[2,1]","","",""
"","canvas-keyboard-response","209","267475","0.0-6.0-0.29","503","","","","","pre trial waiting period","null","null","","","critical","t","c","d","164","240","240","164","164","240","trueblood","0","h","164","240","240","164","164","240","39360","39360","39360","dc","null","null","null","null","null","null","[3,2]","427.1400887118056","474.01796918906234","428.9152478016831"
"","canvas-keyboard-response","210","267493","0.0-6.0-1.29","503","","","","","clear_screen","null","null","","","critical","t","c","d","164","240","240","164","164","240","trueblood","0","h","164","240","240","164","164","240","39360","39360","39360","dc","null","null","null","null","null","null","[3,2]","427.1400887118056","474.01796918906234","428.9152478016831"
"","canvas-keyboard-response","211","267998","0.0-6.0-2.29","503","","","","","rectangles no change","null","null","","","critical","t","c","d","164","240","240","164","164","240","trueblood","0","h","164","240","240","164","164","240","39360","39360","39360","dc","null","null","null","null","null","null","[3,2]","427.1400887118056","474.01796918906234","428.9152478016831"
"","canvas-keyboard-response","212","269335","0.0-6.0-3.29","503","","","","","rectangles with change","null","null","","","critical","t","c","d","164","240","240","164","164","240","trueblood","0","h","164","240","240","164","164","240","39360","39360","39360","dc","null","null","null","null","null","null","[3,2]","427.1400887118056","474.01796918906234","428.9152478016831"
"","canvas-keyboard-response","213","269354","0.0-6.0-4.29","503","","","","","clear_screen","null","null","","","critical","t","c","d","164","240","240","164","164","240","trueblood","0","h","164","240","240","164","164","240","39360","39360","39360","dc","null","null","null","null","null","null","[3,2]","427.1400887118056","474.01796918906234","428.9152478016831"
"","canvas-keyboard-response","214","270789","0.0-6.0-5.29","503","","","","","make choice","1429","2","","","critical","t","c","d","164","240","240","164","164","240","trueblood","0","h","164","240","240","164","164","240","39360","39360","39360","dc","null","null","null","null","null","null","[3,2]","","",""
"","canvas-keyboard-response","215","270809","0.0-6.0-6.29","503","","","","","clear_screen","null","null","","","critical","t","c","d","164","240","240","164","164","240","trueblood","0","h","164","240","240","164","164","240","39360","39360","39360","dc","null","null","null","null","null","null","[3,2]","","",""
"","canvas-keyboard-response","216","271010","0.0-6.0-0.30","503","","","","","pre trial waiting period","null","null","","","catch","sw","l","sh","180","200","233","261","215","150","spektor","null","null","null","null","null","null","null","null","null","null","null","","180","200","260","200","36000","52000","[1,2]","521.2780741990607","107.72166055710959","542.1411860150579"
"","canvas-keyboard-response","217","271030","0.0-6.0-1.30","503","","","","","clear_screen","null","null","","","catch","sw","l","sh","180","200","233","261","215","150","spektor","null","null","null","null","null","null","null","null","null","null","null","","180","200","260","200","36000","52000","[1,2]","521.2780741990607","107.72166055710959","542.1411860150579"
"","canvas-keyboard-response","218","271534","0.0-6.0-2.30","503","","","","","rectangles no change","null","null","","","catch","sw","l","sh","180","200","233","261","215","150","spektor","null","null","null","null","null","null","null","null","null","null","null","","180","200","260","200","36000","52000","[1,2]","521.2780741990607","107.72166055710959","542.1411860150579"
"","canvas-keyboard-response","219","272873","0.0-6.0-3.30","503","","","","","rectangles with change","null","null","","","catch","sw","l","sh","180","200","233","261","215","150","spektor","null","null","null","null","null","null","null","null","null","null","null","","180","200","260","200","36000","52000","[1,2]","521.2780741990607","107.72166055710959","542.1411860150579"
"","canvas-keyboard-response","220","272893","0.0-6.0-4.30","503","","","","","clear_screen","null","null","","","catch","sw","l","sh","180","200","233","261","215","150","spektor","null","null","null","null","null","null","null","null","null","null","null","","180","200","260","200","36000","52000","[1,2]","521.2780741990607","107.72166055710959","542.1411860150579"
"","canvas-keyboard-response","221","273269","0.0-6.0-5.30","503","","","","","make choice","370","2","","","catch","sw","l","sh","180","200","233","261","215","150","spektor","null","null","null","null","null","null","null","null","null","null","null","","180","200","260","200","36000","52000","[1,2]","","",""
"","canvas-keyboard-response","222","273287","0.0-6.0-6.30","503","","","","","clear_screen","null","null","","","catch","sw","l","sh","180","200","233","261","215","150","spektor","null","null","null","null","null","null","null","null","null","null","null","","180","200","260","200","36000","52000","[1,2]","","",""
"","canvas-keyboard-response","223","273487","0.0-6.0-0.31","503","","","","","pre trial waiting period","null","null","","","catch","sh","l","sw","228","177","181","294","202","186","trueblood","null","null","null","null","null","null","null","null","null","null","null","","180","200","260","200","36000","52000","[2,3]","482.30973843208676","400.79999978557413","497.3788908266237"
"","canvas-keyboard-response","224","273506","0.0-6.0-1.31","503","","","","","clear_screen","null","null","","","catch","sh","l","sw","228","177","181","294","202","186","trueblood","null","null","null","null","null","null","null","null","null","null","null","","180","200","260","200","36000","52000","[2,3]","482.30973843208676","400.79999978557413","497.3788908266237"
"","canvas-keyboard-response","225","274017","0.0-6.0-2.31","503","","","","","rectangles no change","null","null","","","catch","sh","l","sw","228","177","181","294","202","186","trueblood","null","null","null","null","null","null","null","null","null","null","null","","180","200","260","200","36000","52000","[2,3]","482.30973843208676","400.79999978557413","497.3788908266237"
"","canvas-keyboard-response","226","275357","0.0-6.0-3.31","503","","","","","rectangles with change","null","null","","","catch","sh","l","sw","228","177","181","294","202","186","trueblood","null","null","null","null","null","null","null","null","null","null","null","","180","200","260","200","36000","52000","[2,3]","482.30973843208676","400.79999978557413","497.3788908266237"
"","canvas-keyboard-response","227","275377","0.0-6.0-4.31","503","","","","","clear_screen","null","null","","","catch","sh","l","sw","228","177","181","294","202","186","trueblood","null","null","null","null","null","null","null","null","null","null","null","","180","200","260","200","36000","52000","[2,3]","482.30973843208676","400.79999978557413","497.3788908266237"
"","canvas-keyboard-response","228","275933","0.0-6.0-5.31","503","","","","","make choice","551","2","","","catch","sh","l","sw","228","177","181","294","202","186","trueblood","null","null","null","null","null","null","null","null","null","null","null","","180","200","260","200","36000","52000","[2,3]","","",""
"","canvas-keyboard-response","229","275951","0.0-6.0-6.31","503","","","","","clear_screen","null","null","","","catch","sh","l","sw","228","177","181","294","202","186","trueblood","null","null","null","null","null","null","null","null","null","null","null","","180","200","260","200","36000","52000","[2,3]","","",""
"","canvas-keyboard-response","230","276152","0.0-6.0-0.32","503","","","","","pre trial waiting period","null","null","","","catch","sw","l","sh","180","200","223","219","204","201","trueblood","null","null","null","null","null","null","null","null","null","null","null","","180","200","260","200","36000","52000","[1,2]","476.7712921290591","470.9755514385653","447.1808095303457"
"","canvas-keyboard-response","231","276173","0.0-6.0-1.32","503","","","","","clear_screen","null","null","","","catch","sw","l","sh","180","200","223","219","204","201","trueblood","null","null","null","null","null","null","null","null","null","null","null","","180","200","260","200","36000","52000","[1,2]","476.7712921290591","470.9755514385653","447.1808095303457"
"","canvas-keyboard-response","232","276681","0.0-6.0-2.32","503","","","","","rectangles no change","null","null","","","catch","sw","l","sh","180","200","223","219","204","201","trueblood","null","null","null","null","null","null","null","null","null","null","null","","180","200","260","200","36000","52000","[1,2]","476.7712921290591","470.9755514385653","447.1808095303457"
"","canvas-keyboard-response","233","278014","0.0-6.0-3.32","503","","","","","rectangles with change","null","null","","","catch","sw","l","sh","180","200","223","219","204","201","trueblood","null","null","null","null","null","null","null","null","null","null","null","","180","200","260","200","36000","52000","[1,2]","476.7712921290591","470.9755514385653","447.1808095303457"
"","canvas-keyboard-response","234","278036","0.0-6.0-4.32","503","","","","","clear_screen","null","null","","","catch","sw","l","sh","180","200","223","219","204","201","trueblood","null","null","null","null","null","null","null","null","null","null","null","","180","200","260","200","36000","52000","[1,2]","476.7712921290591","470.9755514385653","447.1808095303457"
"","canvas-keyboard-response","235","278438","0.0-6.0-5.32","503","","","","","make choice","395","2","","","catch","sw","l","sh","180","200","223","219","204","201","trueblood","null","null","null","null","null","null","null","null","null","null","null","","180","200","260","200","36000","52000","[1,2]","","",""
"","canvas-keyboard-response","236","278460","0.0-6.0-6.32","503","","","","","clear_screen","null","null","","","catch","sw","l","sh","180","200","223","219","204","201","trueblood","null","null","null","null","null","null","null","null","null","null","null","","180","200","260","200","36000","52000","[1,2]","","",""
"","canvas-keyboard-response","237","278662","0.0-6.0-0.33","503","","","","","pre trial waiting period","null","null","","","critical","t","c","d","164","240","240","164","164","240","spektor","0","h","164","240","240","164","164","240","39360","39360","39360","td","null","null","null","null","null","null","[1,3]","478.13235598216903","170.49413635661773","499.05238183651943"
"","canvas-keyboard-response","238","278682","0.0-6.0-1.33","503","","","","","clear_screen","null","null","","","critical","t","c","d","164","240","240","164","164","240","spektor","0","h","164","240","240","164","164","240","39360","39360","39360","td","null","null","null","null","null","null","[1,3]","478.13235598216903","170.49413635661773","499.05238183651943"
"","canvas-keyboard-response","239","279187","0.0-6.0-2.33","503","","","","","rectangles no change","null","null","","","critical","t","c","d","164","240","240","164","164","240","spektor","0","h","164","240","240","164","164","240","39360","39360","39360","td","null","null","null","null","null","null","[1,3]","478.13235598216903","170.49413635661773","499.05238183651943"
"","canvas-keyboard-response","240","280529","0.0-6.0-3.33","503","","","","","rectangles with change","null","null","","","critical","t","c","d","164","240","240","164","164","240","spektor","0","h","164","240","240","164","164","240","39360","39360","39360","td","null","null","null","null","null","null","[1,3]","478.13235598216903","170.49413635661773","499.05238183651943"
"","canvas-keyboard-response","241","280549","0.0-6.0-4.33","503","","","","","clear_screen","null","null","","","critical","t","c","d","164","240","240","164","164","240","spektor","0","h","164","240","240","164","164","240","39360","39360","39360","td","null","null","null","null","null","null","[1,3]","478.13235598216903","170.49413635661773","499.05238183651943"
"","canvas-keyboard-response","242","281174","0.0-6.0-5.33","503","","","","","make choice","621","1","","","critical","t","c","d","164","240","240","164","164","240","spektor","0","h","164","240","240","164","164","240","39360","39360","39360","td","null","null","null","null","null","null","[1,3]","","",""
"","canvas-keyboard-response","243","281195","0.0-6.0-6.33","503","","","","","clear_screen","null","null","","","critical","t","c","d","164","240","240","164","164","240","spektor","0","h","164","240","240","164","164","240","39360","39360","39360","td","null","null","null","null","null","null","[1,3]","","",""
"","canvas-keyboard-response","244","281396","0.0-6.0-0.34","503","","","","","pre trial waiting period","null","null","","","critical","d","c","t","232.8713","160.6713","164","240","240","164","trueblood","0.05","w","240","164","164","240","232.8713","160.6713","39360","39360","37415.7294","dc","null","null","null","null","null","null","[1,2]","503.19365810673895","463.9700519215582","499.53524762933716"
"","canvas-keyboard-response","245","281417","0.0-6.0-1.34","503","","","","","clear_screen","null","null","","","critical","d","c","t","232.8713","160.6713","164","240","240","164","trueblood","0.05","w","240","164","164","240","232.8713","160.6713","39360","39360","37415.7294","dc","null","null","null","null","null","null","[1,2]","503.19365810673895","463.9700519215582","499.53524762933716"
"","canvas-keyboard-response","246","281923","0.0-6.0-2.34","503","","","","","rectangles no change","null","null","","","critical","d","c","t","232.8713","160.6713","164","240","240","164","trueblood","0.05","w","240","164","164","240","232.8713","160.6713","39360","39360","37415.7294","dc","null","null","null","null","null","null","[1,2]","503.19365810673895","463.9700519215582","499.53524762933716"
"","canvas-keyboard-response","247","283260","0.0-6.0-3.34","503","","","","","rectangles with change","null","null","","","critical","d","c","t","232.8713","160.6713","164","240","240","164","trueblood","0.05","w","240","164","164","240","232.8713","160.6713","39360","39360","37415.7294","dc","null","null","null","null","null","null","[1,2]","503.19365810673895","463.9700519215582","499.53524762933716"
"","canvas-keyboard-response","248","283276","0.0-6.0-4.34","503","","","","","clear_screen","null","null","","","critical","d","c","t","232.8713","160.6713","164","240","240","164","trueblood","0.05","w","240","164","164","240","232.8713","160.6713","39360","39360","37415.7294","dc","null","null","null","null","null","null","[1,2]","503.19365810673895","463.9700519215582","499.53524762933716"
"","canvas-keyboard-response","249","285574","0.0-6.0-5.34","503","","","","","make choice","2289","1","","","critical","d","c","t","232.8713","160.6713","164","240","240","164","trueblood","0.05","w","240","164","164","240","232.8713","160.6713","39360","39360","37415.7294","dc","null","null","null","null","null","null","[1,2]","","",""
"","canvas-keyboard-response","250","285593","0.0-6.0-6.34","503","","","","","clear_screen","null","null","","","critical","d","c","t","232.8713","160.6713","164","240","240","164","trueblood","0.05","w","240","164","164","240","232.8713","160.6713","39360","39360","37415.7294","dc","null","null","null","null","null","null","[1,2]","","",""
"","canvas-keyboard-response","251","285795","0.0-6.0-0.35","503","","","","","pre trial waiting period","null","null","","","catch","l","sh","sw","177","236","214","154","203","233","spektor","null","null","null","null","null","null","null","null","null","null","null","","180","200","260","200","36000","52000","[1,2]","504.82487474413585","204.7600115216278","503.0641430075118"
"","canvas-keyboard-response","252","285815","0.0-6.0-1.35","503","","","","","clear_screen","null","null","","","catch","l","sh","sw","177","236","214","154","203","233","spektor","null","null","null","null","null","null","null","null","null","null","null","","180","200","260","200","36000","52000","[1,2]","504.82487474413585","204.7600115216278","503.0641430075118"
"","canvas-keyboard-response","253","286320","0.0-6.0-2.35","503","","","","","rectangles no change","null","null","","","catch","l","sh","sw","177","236","214","154","203","233","spektor","null","null","null","null","null","null","null","null","null","null","null","","180","200","260","200","36000","52000","[1,2]","504.82487474413585","204.7600115216278","503.0641430075118"
"","canvas-keyboard-response","254","287658","0.0-6.0-3.35","503","","","","","rectangles with change","null","null","","","catch","l","sh","sw","177","236","214","154","203","233","spektor","null","null","null","null","null","null","null","null","null","null","null","","180","200","260","200","36000","52000","[1,2]","504.82487474413585","204.7600115216278","503.0641430075118"
"","canvas-keyboard-response","255","287677","0.0-6.0-4.35","503","","","","","clear_screen","null","null","","","catch","l","sh","sw","177","236","214","154","203","233","spektor","null","null","null","null","null","null","null","null","null","null","null","","180","200","260","200","36000","52000","[1,2]","504.82487474413585","204.7600115216278","503.0641430075118"
"","canvas-keyboard-response","256","287966","0.0-6.0-5.35","503","","","","","make choice","283","1","","","catch","l","sh","sw","177","236","214","154","203","233","spektor","null","null","null","null","null","null","null","null","null","null","null","","180","200","260","200","36000","52000","[1,2]","","",""
"","canvas-keyboard-response","257","287983","0.0-6.0-6.35","503","","","","","clear_screen","null","null","","","catch","l","sh","sw","177","236","214","154","203","233","spektor","null","null","null","null","null","null","null","null","null","null","null","","180","200","260","200","36000","52000","[1,2]","","",""
"","canvas-keyboard-response","258","288185","0.0-6.0-0.36","503","","","","","pre trial waiting period","null","null","","","critical","t","d","c","240","164","240","164","164","240","spektor","0","w","240","164","164","240","240","164","39360","39360","39360","tc","null","null","null","null","null","null","[1,3]","533.0347425398903","215.90210443670094","461.5781506967375"
"","canvas-keyboard-response","259","288208","0.0-6.0-1.36","503","","","","","clear_screen","null","null","","","critical","t","d","c","240","164","240","164","164","240","spektor","0","w","240","164","164","240","240","164","39360","39360","39360","tc","null","null","null","null","null","null","[1,3]","533.0347425398903","215.90210443670094","461.5781506967375"
"","canvas-keyboard-response","260","288716","0.0-6.0-2.36","503","","","","","rectangles no change","null","null","","","critical","t","d","c","240","164","240","164","164","240","spektor","0","w","240","164","164","240","240","164","39360","39360","39360","tc","null","null","null","null","null","null","[1,3]","533.0347425398903","215.90210443670094","461.5781506967375"
"","canvas-keyboard-response","261","290049","0.0-6.0-3.36","503","","","","","rectangles with change","null","null","","","critical","t","d","c","240","164","240","164","164","240","spektor","0","w","240","164","164","240","240","164","39360","39360","39360","tc","null","null","null","null","null","null","[1,3]","533.0347425398903","215.90210443670094","461.5781506967375"
"","canvas-keyboard-response","262","290071","0.0-6.0-4.36","503","","","","","clear_screen","null","null","","","critical","t","d","c","240","164","240","164","164","240","spektor","0","w","240","164","164","240","240","164","39360","39360","39360","tc","null","null","null","null","null","null","[1,3]","533.0347425398903","215.90210443670094","461.5781506967375"
"","canvas-keyboard-response","263","291534","0.0-6.0-5.36","503","","","","","make choice","1460","1","","","critical","t","d","c","240","164","240","164","164","240","spektor","0","w","240","164","164","240","240","164","39360","39360","39360","tc","null","null","null","null","null","null","[1,3]","","",""
"","canvas-keyboard-response","264","291555","0.0-6.0-6.36","503","","","","","clear_screen","null","null","","","critical","t","d","c","240","164","240","164","164","240","spektor","0","w","240","164","164","240","240","164","39360","39360","39360","tc","null","null","null","null","null","null","[1,3]","","",""
"","canvas-keyboard-response","265","291755","0.0-6.0-0.37","503","","","","","pre trial waiting period","null","null","","","critical","t","d","c","164","240","160.6713","232.8713","240","164","spektor","0.05","h","164","240","240","164","160.6713","232.8713","39360","39360","37415.7294","dc","null","null","null","null","null","null","[2,3]","499.5198681060515","115.75679370944326","511.4848569408237"
"","canvas-keyboard-response","266","291774","0.0-6.0-1.37","503","","","","","clear_screen","null","null","","","critical","t","d","c","164","240","160.6713","232.8713","240","164","spektor","0.05","h","164","240","240","164","160.6713","232.8713","39360","39360","37415.7294","dc","null","null","null","null","null","null","[2,3]","499.5198681060515","115.75679370944326","511.4848569408237"
"","canvas-keyboard-response","267","292285","0.0-6.0-2.37","503","","","","","rectangles no change","null","null","","","critical","t","d","c","164","240","160.6713","232.8713","240","164","spektor","0.05","h","164","240","240","164","160.6713","232.8713","39360","39360","37415.7294","dc","null","null","null","null","null","null","[2,3]","499.5198681060515","115.75679370944326","511.4848569408237"
"","canvas-keyboard-response","268","293620","0.0-6.0-3.37","503","","","","","rectangles with change","null","null","","","critical","t","d","c","164","240","160.6713","232.8713","240","164","spektor","0.05","h","164","240","240","164","160.6713","232.8713","39360","39360","37415.7294","dc","null","null","null","null","null","null","[2,3]","499.5198681060515","115.75679370944326","511.4848569408237"
