"success","trial_type","trial_index","time_elapsed","internal_node_id","sub_n","timeout","failed_images","failed_audio","failed_video","screen_id","rt","response","stimulus","view_history","trial","r1","r2","r3","w1","h1","w2","h2","w3","h3","display","tdd","tdo","tw","th","cw","ch","dw","dh","ta","ca","da","probe","csls","csss","clls","clss","sa","la","probe_rects","r1yloc","r2yloc","r3yloc"
"true","fullscreen","0","2500","0.0-0.0","550","","","","","","","","","","","","","","","","","","","","","","","","","","","","","","","","","","","","","","","","","",""
"true","preload","1","2517","0.0-1.0","550","false","[]","[]","[]","img preload","","","","","","","","","","","","","","","","","","","","","","","","","","","","","","","","","","","","",""
"","survey-html-form","2","7949","0.0-2.0","550","","","","","enter-sub-number","5425","{""response"":""550""}","","","","","","","","","","","","","","","","","","","","","","","","","","","","","","","","","","",""
"","image-button-response","3","51976","0.0-3.0","550","","","","","","43960","0","consent.png","","","","","","","","","","","","","","","","","","","","","","","","","","","","","","","","","",""
"","html-button-response","4","55704","0.0-4.0","550","","","","","intro mssg","3721","0","<div style= ""font-size:25px;"" <p> <strong> Welcome! </strong><br> <p style=""color:#8B0000; font-size:25px;""><strong> Please do NOT exit full screen until you are done with the experiment. </strong> </p><p style=""font-size:25px;color:#8B0000;""> <strong> Your data will be lost <br> if you try to go back or refresh the page after the experiment starts. Feel free to click ""previous"" during the instructions, however.</strong> </p><br><p> <strong> Thanks in advance for your contribution to our research! </strong></p>","","","","","","","","","","","","","","","","","","","","","","","","","","","","","","","","","",""
"","instructions","5","101056","0.0-5.0","550","","","","","instructions","45348","","","[{""page_index"":0,""viewing_time"":6555},{""page_index"":1,""viewing_time"":7800},{""page_index"":2,""viewing_time"":2624},{""page_index"":3,""viewing_time"":17286},{""page_index"":4,""viewing_time"":4930},{""page_index"":5,""viewing_time"":1992},{""page_index"":6,""viewing_time"":2929},{""page_index"":7,""viewing_time"":1231}]","","","","","","","","","","","","","","","","","","","","","","","","","","","","","","","","",""
"","canvas-keyboard-response","6","101262","0.0-6.0-0.0","550","","","","","pre trial waiting period","null","null","","","critical","c","d","t","164","240","232.8713","160.6713","240","164","spektor","0.05","w","240","164","164","240","232.8713","160.6713","39360","39360","37415.7294","td","null","null","null","null","null","null","[3,2]","500.37743692085826","182.4186066668908","518.6932929464328"
"","canvas-keyboard-response","7","101288","0.0-6.0-1.0","550","","","","","clear_screen","null","null","","","critical","c","d","t","164","240","232.8713","160.6713","240","164","spektor","0.05","w","240","164","164","240","232.8713","160.6713","39360","39360","37415.7294","td","null","null","null","null","null","null","[3,2]","500.37743692085826","182.4186066668908","518.6932929464328"
"","canvas-keyboard-response","8","101797","0.0-6.0-2.0","550","","","","","rectangles no change","null","null","","","critical","c","d","t","164","240","232.8713","160.6713","240","164","spektor","0.05","w","240","164","164","240","232.8713","160.6713","39360","39360","37415.7294","td","null","null","null","null","null","null","[3,2]","500.37743692085826","182.4186066668908","518.6932929464328"
"","canvas-keyboard-response","9","103138","0.0-6.0-3.0","550","","","","","rectangles with change","null","null","","","critical","c","d","t","164","240","232.8713","160.6713","240","164","spektor","0.05","w","240","164","164","240","232.8713","160.6713","39360","39360","37415.7294","td","null","null","null","null","null","null","[3,2]","500.37743692085826","182.4186066668908","518.6932929464328"
"","canvas-keyboard-response","10","103161","0.0-6.0-4.0","550","","","","","clear_screen","null","null","","","critical","c","d","t","164","240","232.8713","160.6713","240","164","spektor","0.05","w","240","164","164","240","232.8713","160.6713","39360","39360","37415.7294","td","null","null","null","null","null","null","[3,2]","500.37743692085826","182.4186066668908","518.6932929464328"
"","canvas-keyboard-response","11","104975","0.0-6.0-5.0","550","","","","","make choice","1806","3","","","critical","c","d","t","164","240","232.8713","160.6713","240","164","spektor","0.05","w","240","164","164","240","232.8713","160.6713","39360","39360","37415.7294","td","null","null","null","null","null","null","[3,2]","","",""
"","canvas-keyboard-response","12","104997","0.0-6.0-6.0","550","","","","","clear_screen","null","null","","","critical","c","d","t","164","240","232.8713","160.6713","240","164","spektor","0.05","w","240","164","164","240","232.8713","160.6713","39360","39360","37415.7294","td","null","null","null","null","null","null","[3,2]","","",""
"","canvas-keyboard-response","13","105199","0.0-6.0-0.1","550","","","","","pre trial waiting period","null","null","","","catch","sw","sh","l","180","200","224","181","294","190","spektor","null","null","null","null","null","null","null","null","null","null","null","","180","200","260","200","36000","52000","[1,3]","520.5710404477584","152.89788579616467","495.25830607523426"
"","canvas-keyboard-response","14","105221","0.0-6.0-1.1","550","","","","","clear_screen","null","null","","","catch","sw","sh","l","180","200","224","181","294","190","spektor","null","null","null","null","null","null","null","null","null","null","null","","180","200","260","200","36000","52000","[1,3]","520.5710404477584","152.89788579616467","495.25830607523426"
"","canvas-keyboard-response","15","105729","0.0-6.0-2.1","550","","","","","rectangles no change","null","null","","","catch","sw","sh","l","180","200","224","181","294","190","spektor","null","null","null","null","null","null","null","null","null","null","null","","180","200","260","200","36000","52000","[1,3]","520.5710404477584","152.89788579616467","495.25830607523426"
"","canvas-keyboard-response","16","107064","0.0-6.0-3.1","550","","","","","rectangles with change","null","null","","","catch","sw","sh","l","180","200","224","181","294","190","spektor","null","null","null","null","null","null","null","null","null","null","null","","180","200","260","200","36000","52000","[1,3]","520.5710404477584","152.89788579616467","495.25830607523426"
"","canvas-keyboard-response","17","107088","0.0-6.0-4.1","550","","","","","clear_screen","null","null","","","catch","sw","sh","l","180","200","224","181","294","190","spektor","null","null","null","null","null","null","null","null","null","null","null","","180","200","260","200","36000","52000","[1,3]","520.5710404477584","152.89788579616467","495.25830607523426"
"","canvas-keyboard-response","18","107631","0.0-6.0-5.1","550","","","","","make choice","535","3","","","catch","sw","sh","l","180","200","224","181","294","190","spektor","null","null","null","null","null","null","null","null","null","null","null","","180","200","260","200","36000","52000","[1,3]","","",""
"","canvas-keyboard-response","19","107652","0.0-6.0-6.1","550","","","","","clear_screen","null","null","","","catch","sw","sh","l","180","200","224","181","294","190","spektor","null","null","null","null","null","null","null","null","null","null","null","","180","200","260","200","36000","52000","[1,3]","","",""
"","canvas-keyboard-response","20","107852","0.0-6.0-0.2","550","","","","","pre trial waiting period","null","null","","","catch","sw","l","sh","180","200","224","190","222","186","spektor","null","null","null","null","null","null","null","null","null","null","null","","180","200","260","200","36000","52000","[2,3]","476.76780525528983","151.3375787940198","531.7529214806914"
"","canvas-keyboard-response","21","107877","0.0-6.0-1.2","550","","","","","clear_screen","null","null","","","catch","sw","l","sh","180","200","224","190","222","186","spektor","null","null","null","null","null","null","null","null","null","null","null","","180","200","260","200","36000","52000","[2,3]","476.76780525528983","151.3375787940198","531.7529214806914"
"","canvas-keyboard-response","22","108384","0.0-6.0-2.2","550","","","","","rectangles no change","null","null","","","catch","sw","l","sh","180","200","224","190","222","186","spektor","null","null","null","null","null","null","null","null","null","null","null","","180","200","260","200","36000","52000","[2,3]","476.76780525528983","151.3375787940198","531.7529214806914"
"","canvas-keyboard-response","23","109723","0.0-6.0-3.2","550","","","","","rectangles with change","null","null","","","catch","sw","l","sh","180","200","224","190","222","186","spektor","null","null","null","null","null","null","null","null","null","null","null","","180","200","260","200","36000","52000","[2,3]","476.76780525528983","151.3375787940198","531.7529214806914"
"","canvas-keyboard-response","24","109743","0.0-6.0-4.2","550","","","","","clear_screen","null","null","","","catch","sw","l","sh","180","200","224","190","222","186","spektor","null","null","null","null","null","null","null","null","null","null","null","","180","200","260","200","36000","52000","[2,3]","476.76780525528983","151.3375787940198","531.7529214806914"
"","canvas-keyboard-response","25","110838","0.0-6.0-5.2","550","","","","","make choice","1091","2","","","catch","sw","l","sh","180","200","224","190","222","186","spektor","null","null","null","null","null","null","null","null","null","null","null","","180","200","260","200","36000","52000","[2,3]","","",""
"","canvas-keyboard-response","26","110858","0.0-6.0-6.2","550","","","","","clear_screen","null","null","","","catch","sw","l","sh","180","200","224","190","222","186","spektor","null","null","null","null","null","null","null","null","null","null","null","","180","200","260","200","36000","52000","[2,3]","","",""
"","canvas-keyboard-response","27","111059","0.0-6.0-0.3","550","","","","","pre trial waiting period","null","null","","","catch","l","sh","sw","290","162","217","145","160","207","spektor","null","null","null","null","null","null","null","null","null","null","null","","180","200","260","200","36000","52000","[1,2]","536.3227883105649","213.11558853468097","504.3439777472308"
"","canvas-keyboard-response","28","111079","0.0-6.0-1.3","550","","","","","clear_screen","null","null","","","catch","l","sh","sw","290","162","217","145","160","207","spektor","null","null","null","null","null","null","null","null","null","null","null","","180","200","260","200","36000","52000","[1,2]","536.3227883105649","213.11558853468097","504.3439777472308"
"","canvas-keyboard-response","29","111587","0.0-6.0-2.3","550","","","","","rectangles no change","null","null","","","catch","l","sh","sw","290","162","217","145","160","207","spektor","null","null","null","null","null","null","null","null","null","null","null","","180","200","260","200","36000","52000","[1,2]","536.3227883105649","213.11558853468097","504.3439777472308"
"","canvas-keyboard-response","30","112923","0.0-6.0-3.3","550","","","","","rectangles with change","null","null","","","catch","l","sh","sw","290","162","217","145","160","207","spektor","null","null","null","null","null","null","null","null","null","null","null","","180","200","260","200","36000","52000","[1,2]","536.3227883105649","213.11558853468097","504.3439777472308"
"","canvas-keyboard-response","31","112942","0.0-6.0-4.3","550","","","","","clear_screen","null","null","","","catch","l","sh","sw","290","162","217","145","160","207","spektor","null","null","null","null","null","null","null","null","null","null","null","","180","200","260","200","36000","52000","[1,2]","536.3227883105649","213.11558853468097","504.3439777472308"
"","canvas-keyboard-response","32","113375","0.0-6.0-5.3","550","","","","","make choice","427","1","","","catch","l","sh","sw","290","162","217","145","160","207","spektor","null","null","null","null","null","null","null","null","null","null","null","","180","200","260","200","36000","52000","[1,2]","","",""
"","canvas-keyboard-response","33","113394","0.0-6.0-6.3","550","","","","","clear_screen","null","null","","","catch","l","sh","sw","290","162","217","145","160","207","spektor","null","null","null","null","null","null","null","null","null","null","null","","180","200","260","200","36000","52000","[1,2]","","",""
"","canvas-keyboard-response","34","113594","0.0-6.0-0.4","550","","","","","pre trial waiting period","null","null","","","catch","sw","sh","l","180","200","193","197","288","196","spektor","null","null","null","null","null","null","null","null","null","null","null","","180","200","260","200","36000","52000","[2,3]","475.54153850641376","176.80149721042582","496.416671753935"
"","canvas-keyboard-response","35","113617","0.0-6.0-1.4","550","","","","","clear_screen","null","null","","","catch","sw","sh","l","180","200","193","197","288","196","spektor","null","null","null","null","null","null","null","null","null","null","null","","180","200","260","200","36000","52000","[2,3]","475.54153850641376","176.80149721042582","496.416671753935"
"","canvas-keyboard-response","36","114126","0.0-6.0-2.4","550","","","","","rectangles no change","null","null","","","catch","sw","sh","l","180","200","193","197","288","196","spektor","null","null","null","null","null","null","null","null","null","null","null","","180","200","260","200","36000","52000","[2,3]","475.54153850641376","176.80149721042582","496.416671753935"
"","canvas-keyboard-response","37","115461","0.0-6.0-3.4","550","","","","","rectangles with change","null","null","","","catch","sw","sh","l","180","200","193","197","288","196","spektor","null","null","null","null","null","null","null","null","null","null","null","","180","200","260","200","36000","52000","[2,3]","475.54153850641376","176.80149721042582","496.416671753935"
"","canvas-keyboard-response","38","115480","0.0-6.0-4.4","550","","","","","clear_screen","null","null","","","catch","sw","sh","l","180","200","193","197","288","196","spektor","null","null","null","null","null","null","null","null","null","null","null","","180","200","260","200","36000","52000","[2,3]","475.54153850641376","176.80149721042582","496.416671753935"
"","canvas-keyboard-response","39","115887","0.0-6.0-5.4","550","","","","","make choice","402","3","","","catch","sw","sh","l","180","200","193","197","288","196","spektor","null","null","null","null","null","null","null","null","null","null","null","","180","200","260","200","36000","52000","[2,3]","","",""
"","canvas-keyboard-response","40","115905","0.0-6.0-6.4","550","","","","","clear_screen","null","null","","","catch","sw","sh","l","180","200","193","197","288","196","spektor","null","null","null","null","null","null","null","null","null","null","null","","180","200","260","200","36000","52000","[2,3]","","",""
"","canvas-keyboard-response","41","116107","0.0-6.0-0.5","550","","","","","pre trial waiting period","null","null","","","critical","c","d","t","164","240","240","164","240","164","trueblood","0","w","240","164","164","240","240","164","39360","39360","39360","td","null","null","null","null","null","null","[3,2]","431.5304574286909","511.6890571867311","517.0113686148894"
"","canvas-keyboard-response","42","116127","0.0-6.0-1.5","550","","","","","clear_screen","null","null","","","critical","c","d","t","164","240","240","164","240","164","trueblood","0","w","240","164","164","240","240","164","39360","39360","39360","td","null","null","null","null","null","null","[3,2]","431.5304574286909","511.6890571867311","517.0113686148894"
"","canvas-keyboard-response","43","116640","0.0-6.0-2.5","550","","","","","rectangles no change","null","null","","","critical","c","d","t","164","240","240","164","240","164","trueblood","0","w","240","164","164","240","240","164","39360","39360","39360","td","null","null","null","null","null","null","[3,2]","431.5304574286909","511.6890571867311","517.0113686148894"
"","canvas-keyboard-response","44","117975","0.0-6.0-3.5","550","","","","","rectangles with change","null","null","","","critical","c","d","t","164","240","240","164","240","164","trueblood","0","w","240","164","164","240","240","164","39360","39360","39360","td","null","null","null","null","null","null","[3,2]","431.5304574286909","511.6890571867311","517.0113686148894"
"","canvas-keyboard-response","45","117997","0.0-6.0-4.5","550","","","","","clear_screen","null","null","","","critical","c","d","t","164","240","240","164","240","164","trueblood","0","w","240","164","164","240","240","164","39360","39360","39360","td","null","null","null","null","null","null","[3,2]","431.5304574286909","511.6890571867311","517.0113686148894"
"","canvas-keyboard-response","46","118335","0.0-6.0-5.5","550","","","","","make choice","332","2","","","critical","c","d","t","164","240","240","164","240","164","trueblood","0","w","240","164","164","240","240","164","39360","39360","39360","td","null","null","null","null","null","null","[3,2]","","",""
"","canvas-keyboard-response","47","118355","0.0-6.0-6.5","550","","","","","clear_screen","null","null","","","critical","c","d","t","164","240","240","164","240","164","trueblood","0","w","240","164","164","240","240","164","39360","39360","39360","td","null","null","null","null","null","null","[3,2]","","",""
"","canvas-keyboard-response","48","118555","0.0-6.0-0.6","550","","","","","pre trial waiting period","null","null","","","critical","t","c","d","164","240","240","164","160.6713","232.8713","spektor","0.05","h","164","240","240","164","160.6713","232.8713","39360","39360","37415.7294","dc","null","null","null","null","null","null","[3,2]","485.3651743202819","161.1296813822568","500.8383333064155"
"","canvas-keyboard-response","49","118577","0.0-6.0-1.6","550","","","","","clear_screen","null","null","","","critical","t","c","d","164","240","240","164","160.6713","232.8713","spektor","0.05","h","164","240","240","164","160.6713","232.8713","39360","39360","37415.7294","dc","null","null","null","null","null","null","[3,2]","485.3651743202819","161.1296813822568","500.8383333064155"
"","canvas-keyboard-response","50","119085","0.0-6.0-2.6","550","","","","","rectangles no change","null","null","","","critical","t","c","d","164","240","240","164","160.6713","232.8713","spektor","0.05","h","164","240","240","164","160.6713","232.8713","39360","39360","37415.7294","dc","null","null","null","null","null","null","[3,2]","485.3651743202819","161.1296813822568","500.8383333064155"
"","canvas-keyboard-response","51","120421","0.0-6.0-3.6","550","","","","","rectangles with change","null","null","","","critical","t","c","d","164","240","240","164","160.6713","232.8713","spektor","0.05","h","164","240","240","164","160.6713","232.8713","39360","39360","37415.7294","dc","null","null","null","null","null","null","[3,2]","485.3651743202819","161.1296813822568","500.8383333064155"
"","canvas-keyboard-response","52","120443","0.0-6.0-4.6","550","","","","","clear_screen","null","null","","","critical","t","c","d","164","240","240","164","160.6713","232.8713","spektor","0.05","h","164","240","240","164","160.6713","232.8713","39360","39360","37415.7294","dc","null","null","null","null","null","null","[3,2]","485.3651743202819","161.1296813822568","500.8383333064155"
"","canvas-keyboard-response","53","120935","0.0-6.0-5.6","550","","","","","make choice","486","2","","","critical","t","c","d","164","240","240","164","160.6713","232.8713","spektor","0.05","h","164","240","240","164","160.6713","232.8713","39360","39360","37415.7294","dc","null","null","null","null","null","null","[3,2]","","",""
"","canvas-keyboard-response","54","120952","0.0-6.0-6.6","550","","","","","clear_screen","null","null","","","critical","t","c","d","164","240","240","164","160.6713","232.8713","spektor","0.05","h","164","240","240","164","160.6713","232.8713","39360","39360","37415.7294","dc","null","null","null","null","null","null","[3,2]","","",""
"","canvas-keyboard-response","55","121154","0.0-6.0-0.7","550","","","","","pre trial waiting period","null","null","","","catch","sw","l","sh","180","200","290","207","188","212","trueblood","null","null","null","null","null","null","null","null","null","null","null","","180","200","260","200","36000","52000","[2,3]","461.3541559025246","461.54125166665915","467.4570476917952"
"","canvas-keyboard-response","56","121173","0.0-6.0-1.7","550","","","","","clear_screen","null","null","","","catch","sw","l","sh","180","200","290","207","188","212","trueblood","null","null","null","null","null","null","null","null","null","null","null","","180","200","260","200","36000","52000","[2,3]","461.3541559025246","461.54125166665915","467.4570476917952"
"","canvas-keyboard-response","57","121679","0.0-6.0-2.7","550","","","","","rectangles no change","null","null","","","catch","sw","l","sh","180","200","290","207","188","212","trueblood","null","null","null","null","null","null","null","null","null","null","null","","180","200","260","200","36000","52000","[2,3]","461.3541559025246","461.54125166665915","467.4570476917952"
"","canvas-keyboard-response","58","123018","0.0-6.0-3.7","550","","","","","rectangles with change","null","null","","","catch","sw","l","sh","180","200","290","207","188","212","trueblood","null","null","null","null","null","null","null","null","null","null","null","","180","200","260","200","36000","52000","[2,3]","461.3541559025246","461.54125166665915","467.4570476917952"
"","canvas-keyboard-response","59","123036","0.0-6.0-4.7","550","","","","","clear_screen","null","null","","","catch","sw","l","sh","180","200","290","207","188","212","trueblood","null","null","null","null","null","null","null","null","null","null","null","","180","200","260","200","36000","52000","[2,3]","461.3541559025246","461.54125166665915","467.4570476917952"
"","canvas-keyboard-response","60","123591","0.0-6.0-5.7","550","","","","","make choice","549","2","","","catch","sw","l","sh","180","200","290","207","188","212","trueblood","null","null","null","null","null","null","null","null","null","null","null","","180","200","260","200","36000","52000","[2,3]","","",""
"","canvas-keyboard-response","61","123610","0.0-6.0-6.7","550","","","","","clear_screen","null","null","","","catch","sw","l","sh","180","200","290","207","188","212","trueblood","null","null","null","null","null","null","null","null","null","null","null","","180","200","260","200","36000","52000","[2,3]","","",""
"","canvas-keyboard-response","62","123811","0.0-6.0-0.8","550","","","","","pre trial waiting period","null","null","","","critical","c","t","d","164","240","240","164","227.1683","158.0083","trueblood","0.09","w","240","164","164","240","227.1683","158.0083","39360","39360","35894.4834","td","null","null","null","null","null","null","[2,3]","423.7063276103778","507.4022403434101","503.82768617656103"
"","canvas-keyboard-response","63","123830","0.0-6.0-1.8","550","","","","","clear_screen","null","null","","","critical","c","t","d","164","240","240","164","227.1683","158.0083","trueblood","0.09","w","240","164","164","240","227.1683","158.0083","39360","39360","35894.4834","td","null","null","null","null","null","null","[2,3]","423.7063276103778","507.4022403434101","503.82768617656103"
"","canvas-keyboard-response","64","124337","0.0-6.0-2.8","550","","","","","rectangles no change","null","null","","","critical","c","t","d","164","240","240","164","227.1683","158.0083","trueblood","0.09","w","240","164","164","240","227.1683","158.0083","39360","39360","35894.4834","td","null","null","null","null","null","null","[2,3]","423.7063276103778","507.4022403434101","503.82768617656103"
"","canvas-keyboard-response","65","125674","0.0-6.0-3.8","550","","","","","rectangles with change","null","null","","","critical","c","t","d","164","240","240","164","227.1683","158.0083","trueblood","0.09","w","240","164","164","240","227.1683","158.0083","39360","39360","35894.4834","td","null","null","null","null","null","null","[2,3]","423.7063276103778","507.4022403434101","503.82768617656103"
"","canvas-keyboard-response","66","125697","0.0-6.0-4.8","550","","","","","clear_screen","null","null","","","critical","c","t","d","164","240","240","164","227.1683","158.0083","trueblood","0.09","w","240","164","164","240","227.1683","158.0083","39360","39360","35894.4834","td","null","null","null","null","null","null","[2,3]","423.7063276103778","507.4022403434101","503.82768617656103"
"","canvas-keyboard-response","67","126559","0.0-6.0-5.8","550","","","","","make choice","853","2","","","critical","c","t","d","164","240","240","164","227.1683","158.0083","trueblood","0.09","w","240","164","164","240","227.1683","158.0083","39360","39360","35894.4834","td","null","null","null","null","null","null","[2,3]","","",""
"","canvas-keyboard-response","68","126577","0.0-6.0-6.8","550","","","","","clear_screen","null","null","","","critical","c","t","d","164","240","240","164","227.1683","158.0083","trueblood","0.09","w","240","164","164","240","227.1683","158.0083","39360","39360","35894.4834","td","null","null","null","null","null","null","[2,3]","","",""
"","canvas-keyboard-response","69","126778","0.0-6.0-0.9","550","","","","","pre trial waiting period","null","null","","","critical","t","d","c","164","240","154.6796","220.0396","240","164","spektor","0.14","h","164","240","240","164","154.6796","220.0396","39360","39360","34035.6388","tc","null","null","null","null","null","null","[1,3]","463.38156220111546","140.35119027443756","541.808790648095"
"","canvas-keyboard-response","70","126801","0.0-6.0-1.9","550","","","","","clear_screen","null","null","","","critical","t","d","c","164","240","154.6796","220.0396","240","164","spektor","0.14","h","164","240","240","164","154.6796","220.0396","39360","39360","34035.6388","tc","null","null","null","null","null","null","[1,3]","463.38156220111546","140.35119027443756","541.808790648095"
"","canvas-keyboard-response","71","127309","0.0-6.0-2.9","550","","","","","rectangles no change","null","null","","","critical","t","d","c","164","240","154.6796","220.0396","240","164","spektor","0.14","h","164","240","240","164","154.6796","220.0396","39360","39360","34035.6388","tc","null","null","null","null","null","null","[1,3]","463.38156220111546","140.35119027443756","541.808790648095"
"","canvas-keyboard-response","72","128650","0.0-6.0-3.9","550","","","","","rectangles with change","null","null","","","critical","t","d","c","164","240","154.6796","220.0396","240","164","spektor","0.14","h","164","240","240","164","154.6796","220.0396","39360","39360","34035.6388","tc","null","null","null","null","null","null","[1,3]","463.38156220111546","140.35119027443756","541.808790648095"
"","canvas-keyboard-response","73","128670","0.0-6.0-4.9","550","","","","","clear_screen","null","null","","","critical","t","d","c","164","240","154.6796","220.0396","240","164","spektor","0.14","h","164","240","240","164","154.6796","220.0396","39360","39360","34035.6388","tc","null","null","null","null","null","null","[1,3]","463.38156220111546","140.35119027443756","541.808790648095"
"","canvas-keyboard-response","74","129327","0.0-6.0-5.9","550","","","","","make choice","653","3","","","critical","t","d","c","164","240","154.6796","220.0396","240","164","spektor","0.14","h","164","240","240","164","154.6796","220.0396","39360","39360","34035.6388","tc","null","null","null","null","null","null","[1,3]","","",""
"","canvas-keyboard-response","75","129348","0.0-6.0-6.9","550","","","","","clear_screen","null","null","","","critical","t","d","c","164","240","154.6796","220.0396","240","164","spektor","0.14","h","164","240","240","164","154.6796","220.0396","39360","39360","34035.6388","tc","null","null","null","null","null","null","[1,3]","","",""
"","canvas-keyboard-response","76","129549","0.0-6.0-0.10","550","","","","","pre trial waiting period","null","null","","","critical","c","d","t","240","164","164","240","164","240","trueblood","0","h","164","240","240","164","164","240","39360","39360","39360","td","null","null","null","null","null","null","[3,2]","489.1156987437736","425.3374757100836","432.0418611101922"
"","canvas-keyboard-response","77","129574","0.0-6.0-1.10","550","","","","","clear_screen","null","null","","","critical","c","d","t","240","164","164","240","164","240","trueblood","0","h","164","240","240","164","164","240","39360","39360","39360","td","null","null","null","null","null","null","[3,2]","489.1156987437736","425.3374757100836","432.0418611101922"
"","canvas-keyboard-response","78","130081","0.0-6.0-2.10","550","","","","","rectangles no change","null","null","","","critical","c","d","t","240","164","164","240","164","240","trueblood","0","h","164","240","240","164","164","240","39360","39360","39360","td","null","null","null","null","null","null","[3,2]","489.1156987437736","425.3374757100836","432.0418611101922"
"","canvas-keyboard-response","79","131418","0.0-6.0-3.10","550","","","","","rectangles with change","null","null","","","critical","c","d","t","240","164","164","240","164","240","trueblood","0","h","164","240","240","164","164","240","39360","39360","39360","td","null","null","null","null","null","null","[3,2]","489.1156987437736","425.3374757100836","432.0418611101922"
"","canvas-keyboard-response","80","131440","0.0-6.0-4.10","550","","","","","clear_screen","null","null","","","critical","c","d","t","240","164","164","240","164","240","trueblood","0","h","164","240","240","164","164","240","39360","39360","39360","td","null","null","null","null","null","null","[3,2]","489.1156987437736","425.3374757100836","432.0418611101922"
"","canvas-keyboard-response","81","132080","0.0-6.0-5.10","550","","","","","make choice","634","2","","","critical","c","d","t","240","164","164","240","164","240","trueblood","0","h","164","240","240","164","164","240","39360","39360","39360","td","null","null","null","null","null","null","[3,2]","","",""
"","canvas-keyboard-response","82","132097","0.0-6.0-6.10","550","","","","","clear_screen","null","null","","","critical","c","d","t","240","164","164","240","164","240","trueblood","0","h","164","240","240","164","164","240","39360","39360","39360","td","null","null","null","null","null","null","[3,2]","","",""
"","canvas-keyboard-response","83","132298","0.0-6.0-0.11","550","","","","","pre trial waiting period","null","null","","","critical","t","c","d","240","164","164","240","220.0396","154.6796","spektor","0.14","w","240","164","164","240","220.0396","154.6796","39360","39360","34035.6388","td","null","null","null","null","null","null","[1,3]","526.7807570851022","154.94974895062612","532.6763315079687"
"","canvas-keyboard-response","84","132322","0.0-6.0-1.11","550","","","","","clear_screen","null","null","","","critical","t","c","d","240","164","164","240","220.0396","154.6796","spektor","0.14","w","240","164","164","240","220.0396","154.6796","39360","39360","34035.6388","td","null","null","null","null","null","null","[1,3]","526.7807570851022","154.94974895062612","532.6763315079687"
"","canvas-keyboard-response","85","132829","0.0-6.0-2.11","550","","","","","rectangles no change","null","null","","","critical","t","c","d","240","164","164","240","220.0396","154.6796","spektor","0.14","w","240","164","164","240","220.0396","154.6796","39360","39360","34035.6388","td","null","null","null","null","null","null","[1,3]","526.7807570851022","154.94974895062612","532.6763315079687"
"","canvas-keyboard-response","86","134169","0.0-6.0-3.11","550","","","","","rectangles with change","null","null","","","critical","t","c","d","240","164","164","240","220.0396","154.6796","spektor","0.14","w","240","164","164","240","220.0396","154.6796","39360","39360","34035.6388","td","null","null","null","null","null","null","[1,3]","526.7807570851022","154.94974895062612","532.6763315079687"
"","canvas-keyboard-response","87","134191","0.0-6.0-4.11","550","","","","","clear_screen","null","null","","","critical","t","c","d","240","164","164","240","220.0396","154.6796","spektor","0.14","w","240","164","164","240","220.0396","154.6796","39360","39360","34035.6388","td","null","null","null","null","null","null","[1,3]","526.7807570851022","154.94974895062612","532.6763315079687"
"","canvas-keyboard-response","88","134943","0.0-6.0-5.11","550","","","","","make choice","746","1","","","critical","t","c","d","240","164","164","240","220.0396","154.6796","spektor","0.14","w","240","164","164","240","220.0396","154.6796","39360","39360","34035.6388","td","null","null","null","null","null","null","[1,3]","","",""
"","canvas-keyboard-response","89","134964","0.0-6.0-6.11","550","","","","","clear_screen","null","null","","","critical","t","c","d","240","164","164","240","220.0396","154.6796","spektor","0.14","w","240","164","164","240","220.0396","154.6796","39360","39360","34035.6388","td","null","null","null","null","null","null","[1,3]","","",""
"","canvas-keyboard-response","90","135165","0.0-6.0-0.12","550","","","","","pre trial waiting period","null","null","","","critical","c","d","t","164","240","227.1683","158.0083","240","164","spektor","0.09","w","240","164","164","240","227.1683","158.0083","39360","39360","35894.4834","dc","null","null","null","null","null","null","[2,1]","481.24000381378835","201.2848593449097","518.6097987959456"
"","canvas-keyboard-response","91","135186","0.0-6.0-1.12","550","","","","","clear_screen","null","null","","","critical","c","d","t","164","240","227.1683","158.0083","240","164","spektor","0.09","w","240","164","164","240","227.1683","158.0083","39360","39360","35894.4834","dc","null","null","null","null","null","null","[2,1]","481.24000381378835","201.2848593449097","518.6097987959456"
"","canvas-keyboard-response","92","135696","0.0-6.0-2.12","550","","","","","rectangles no change","null","null","","","critical","c","d","t","164","240","227.1683","158.0083","240","164","spektor","0.09","w","240","164","164","240","227.1683","158.0083","39360","39360","35894.4834","dc","null","null","null","null","null","null","[2,1]","481.24000381378835","201.2848593449097","518.6097987959456"
"","canvas-keyboard-response","93","137031","0.0-6.0-3.12","550","","","","","rectangles with change","null","null","","","critical","c","d","t","164","240","227.1683","158.0083","240","164","spektor","0.09","w","240","164","164","240","227.1683","158.0083","39360","39360","35894.4834","dc","null","null","null","null","null","null","[2,1]","481.24000381378835","201.2848593449097","518.6097987959456"
"","canvas-keyboard-response","94","137053","0.0-6.0-4.12","550","","","","","clear_screen","null","null","","","critical","c","d","t","164","240","227.1683","158.0083","240","164","spektor","0.09","w","240","164","164","240","227.1683","158.0083","39360","39360","35894.4834","dc","null","null","null","null","null","null","[2,1]","481.24000381378835","201.2848593449097","518.6097987959456"
"","canvas-keyboard-response","95","138159","0.0-6.0-5.12","550","","","","","make choice","1101","1","","","critical","c","d","t","164","240","227.1683","158.0083","240","164","spektor","0.09","w","240","164","164","240","227.1683","158.0083","39360","39360","35894.4834","dc","null","null","null","null","null","null","[2,1]","","",""
"","canvas-keyboard-response","96","138176","0.0-6.0-6.12","550","","","","","clear_screen","null","null","","","critical","c","d","t","164","240","227.1683","158.0083","240","164","spektor","0.09","w","240","164","164","240","227.1683","158.0083","39360","39360","35894.4834","dc","null","null","null","null","null","null","[2,1]","","",""
"","canvas-keyboard-response","97","138378","0.0-6.0-0.13","550","","","","","pre trial waiting period","null","null","","","critical","c","t","d","164","240","240","164","227.1683","158.0083","spektor","0.09","w","240","164","164","240","227.1683","158.0083","39360","39360","35894.4834","td","null","null","null","null","null","null","[2,3]","482.722788062481","171.85782526090043","501.6675905770801"
"","canvas-keyboard-response","98","138401","0.0-6.0-1.13","550","","","","","clear_screen","null","null","","","critical","c","t","d","164","240","240","164","227.1683","158.0083","spektor","0.09","w","240","164","164","240","227.1683","158.0083","39360","39360","35894.4834","td","null","null","null","null","null","null","[2,3]","482.722788062481","171.85782526090043","501.6675905770801"
"","canvas-keyboard-response","99","138909","0.0-6.0-2.13","550","","","","","rectangles no change","null","null","","","critical","c","t","d","164","240","240","164","227.1683","158.0083","spektor","0.09","w","240","164","164","240","227.1683","158.0083","39360","39360","35894.4834","td","null","null","null","null","null","null","[2,3]","482.722788062481","171.85782526090043","501.6675905770801"
"","canvas-keyboard-response","100","140244","0.0-6.0-3.13","550","","","","","rectangles with change","null","null","","","critical","c","t","d","164","240","240","164","227.1683","158.0083","spektor","0.09","w","240","164","164","240","227.1683","158.0083","39360","39360","35894.4834","td","null","null","null","null","null","null","[2,3]","482.722788062481","171.85782526090043","501.6675905770801"
"","canvas-keyboard-response","101","140259","0.0-6.0-4.13","550","","","","","clear_screen","null","null","","","critical","c","t","d","164","240","240","164","227.1683","158.0083","spektor","0.09","w","240","164","164","240","227.1683","158.0083","39360","39360","35894.4834","td","null","null","null","null","null","null","[2,3]","482.722788062481","171.85782526090043","501.6675905770801"
"","canvas-keyboard-response","102","140855","0.0-6.0-5.13","550","","","","","make choice","590","2","","","critical","c","t","d","164","240","240","164","227.1683","158.0083","spektor","0.09","w","240","164","164","240","227.1683","158.0083","39360","39360","35894.4834","td","null","null","null","null","null","null","[2,3]","","",""
"","canvas-keyboard-response","103","140875","0.0-6.0-6.13","550","","","","","clear_screen","null","null","","","critical","c","t","d","164","240","240","164","227.1683","158.0083","spektor","0.09","w","240","164","164","240","227.1683","158.0083","39360","39360","35894.4834","td","null","null","null","null","null","null","[2,3]","","",""
"","canvas-keyboard-response","104","141076","0.0-6.0-0.14","550","","","","","pre trial waiting period","null","null","","","critical","t","c","d","240","164","164","240","220.0396","154.6796","trueblood","0.14","w","240","164","164","240","220.0396","154.6796","39360","39360","34035.6388","dc","null","null","null","null","null","null","[3,2]","503.85505511463526","443.83453047825","492.6788211593831"
"","canvas-keyboard-response","105","141098","0.0-6.0-1.14","550","","","","","clear_screen","null","null","","","critical","t","c","d","240","164","164","240","220.0396","154.6796","trueblood","0.14","w","240","164","164","240","220.0396","154.6796","39360","39360","34035.6388","dc","null","null","null","null","null","null","[3,2]","503.85505511463526","443.83453047825","492.6788211593831"
"","canvas-keyboard-response","106","141605","0.0-6.0-2.14","550","","","","","rectangles no change","null","null","","","critical","t","c","d","240","164","164","240","220.0396","154.6796","trueblood","0.14","w","240","164","164","240","220.0396","154.6796","39360","39360","34035.6388","dc","null","null","null","null","null","null","[3,2]","503.85505511463526","443.83453047825","492.6788211593831"
"","canvas-keyboard-response","107","142942","0.0-6.0-3.14","550","","","","","rectangles with change","null","null","","","critical","t","c","d","240","164","164","240","220.0396","154.6796","trueblood","0.14","w","240","164","164","240","220.0396","154.6796","39360","39360","34035.6388","dc","null","null","null","null","null","null","[3,2]","503.85505511463526","443.83453047825","492.6788211593831"
"","canvas-keyboard-response","108","142960","0.0-6.0-4.14","550","","","","","clear_screen","null","null","","","critical","t","c","d","240","164","164","240","220.0396","154.6796","trueblood","0.14","w","240","164","164","240","220.0396","154.6796","39360","39360","34035.6388","dc","null","null","null","null","null","null","[3,2]","503.85505511463526","443.83453047825","492.6788211593831"
"","canvas-keyboard-response","109","143535","0.0-6.0-5.14","550","","","","","make choice","568","2","","","critical","t","c","d","240","164","164","240","220.0396","154.6796","trueblood","0.14","w","240","164","164","240","220.0396","154.6796","39360","39360","34035.6388","dc","null","null","null","null","null","null","[3,2]","","",""
"","canvas-keyboard-response","110","143554","0.0-6.0-6.14","550","","","","","clear_screen","null","null","","","critical","t","c","d","240","164","164","240","220.0396","154.6796","trueblood","0.14","w","240","164","164","240","220.0396","154.6796","39360","39360","34035.6388","dc","null","null","null","null","null","null","[3,2]","","",""
"","canvas-keyboard-response","111","143756","0.0-6.0-0.15","550","","","","","pre trial waiting period","null","null","","","catch","sh","l","sw","176","178","280","186","178","190","spektor","null","null","null","null","null","null","null","null","null","null","null","","180","200","260","200","36000","52000","[2,3]","490.641428999898","158.3455993598071","512.5007239605939"
"","canvas-keyboard-response","112","143776","0.0-6.0-1.15","550","","","","","clear_screen","null","null","","","catch","sh","l","sw","176","178","280","186","178","190","spektor","null","null","null","null","null","null","null","null","null","null","null","","180","200","260","200","36000","52000","[2,3]","490.641428999898","158.3455993598071","512.5007239605939"
"","canvas-keyboard-response","113","144284","0.0-6.0-2.15","550","","","","","rectangles no change","null","null","","","catch","sh","l","sw","176","178","280","186","178","190","spektor","null","null","null","null","null","null","null","null","null","null","null","","180","200","260","200","36000","52000","[2,3]","490.641428999898","158.3455993598071","512.5007239605939"
"","canvas-keyboard-response","114","145622","0.0-6.0-3.15","550","","","","","rectangles with change","null","null","","","catch","sh","l","sw","176","178","280","186","178","190","spektor","null","null","null","null","null","null","null","null","null","null","null","","180","200","260","200","36000","52000","[2,3]","490.641428999898","158.3455993598071","512.5007239605939"
"","canvas-keyboard-response","115","145643","0.0-6.0-4.15","550","","","","","clear_screen","null","null","","","catch","sh","l","sw","176","178","280","186","178","190","spektor","null","null","null","null","null","null","null","null","null","null","null","","180","200","260","200","36000","52000","[2,3]","490.641428999898","158.3455993598071","512.5007239605939"
"","canvas-keyboard-response","116","146262","0.0-6.0-5.15","550","","","","","make choice","610","2","","","catch","sh","l","sw","176","178","280","186","178","190","spektor","null","null","null","null","null","null","null","null","null","null","null","","180","200","260","200","36000","52000","[2,3]","","",""
"","canvas-keyboard-response","117","146280","0.0-6.0-6.15","550","","","","","clear_screen","null","null","","","catch","sh","l","sw","176","178","280","186","178","190","spektor","null","null","null","null","null","null","null","null","null","null","null","","180","200","260","200","36000","52000","[2,3]","","",""
"","canvas-keyboard-response","118","146482","0.0-6.0-0.16","550","","","","","pre trial waiting period","null","null","","","critical","d","c","t","240","164","164","240","240","164","trueblood","0","w","240","164","164","240","240","164","39360","39360","39360","tc","null","null","null","null","null","null","[3,2]","484.0763803364531","426.96677623598185","510.5032697217181"
"","canvas-keyboard-response","119","146505","0.0-6.0-1.16","550","","","","","clear_screen","null","null","","","critical","d","c","t","240","164","164","240","240","164","trueblood","0","w","240","164","164","240","240","164","39360","39360","39360","tc","null","null","null","null","null","null","[3,2]","484.0763803364531","426.96677623598185","510.5032697217181"
"","canvas-keyboard-response","120","147013","0.0-6.0-2.16","550","","","","","rectangles no change","null","null","","","critical","d","c","t","240","164","164","240","240","164","trueblood","0","w","240","164","164","240","240","164","39360","39360","39360","tc","null","null","null","null","null","null","[3,2]","484.0763803364531","426.96677623598185","510.5032697217181"
"","canvas-keyboard-response","121","148348","0.0-6.0-3.16","550","","","","","rectangles with change","null","null","","","critical","d","c","t","240","164","164","240","240","164","trueblood","0","w","240","164","164","240","240","164","39360","39360","39360","tc","null","null","null","null","null","null","[3,2]","484.0763803364531","426.96677623598185","510.5032697217181"
"","canvas-keyboard-response","122","148370","0.0-6.0-4.16","550","","","","","clear_screen","null","null","","","critical","d","c","t","240","164","164","240","240","164","trueblood","0","w","240","164","164","240","240","164","39360","39360","39360","tc","null","null","null","null","null","null","[3,2]","484.0763803364531","426.96677623598185","510.5032697217181"
"","canvas-keyboard-response","123","148823","0.0-6.0-5.16","550","","","","","make choice","448","3","","","critical","d","c","t","240","164","164","240","240","164","trueblood","0","w","240","164","164","240","240","164","39360","39360","39360","tc","null","null","null","null","null","null","[3,2]","","",""
"","canvas-keyboard-response","124","148840","0.0-6.0-6.16","550","","","","","clear_screen","null","null","","","critical","d","c","t","240","164","164","240","240","164","trueblood","0","w","240","164","164","240","240","164","39360","39360","39360","tc","null","null","null","null","null","null","[3,2]","","",""
"","canvas-keyboard-response","125","149040","0.0-6.0-0.17","550","","","","","pre trial waiting period","null","null","","","catch","sw","sh","l","180","200","226","145","219","234","trueblood","null","null","null","null","null","null","null","null","null","null","null","","180","200","260","200","36000","52000","[1,3]","463.44796244144084","501.6565146168303","465.71432373473164"
"","canvas-keyboard-response","126","149063","0.0-6.0-1.17","550","","","","","clear_screen","null","null","","","catch","sw","sh","l","180","200","226","145","219","234","trueblood","null","null","null","null","null","null","null","null","null","null","null","","180","200","260","200","36000","52000","[1,3]","463.44796244144084","501.6565146168303","465.71432373473164"
"","canvas-keyboard-response","127","149569","0.0-6.0-2.17","550","","","","","rectangles no change","null","null","","","catch","sw","sh","l","180","200","226","145","219","234","trueblood","null","null","null","null","null","null","null","null","null","null","null","","180","200","260","200","36000","52000","[1,3]","463.44796244144084","501.6565146168303","465.71432373473164"
"","canvas-keyboard-response","128","150904","0.0-6.0-3.17","550","","","","","rectangles with change","null","null","","","catch","sw","sh","l","180","200","226","145","219","234","trueblood","null","null","null","null","null","null","null","null","null","null","null","","180","200","260","200","36000","52000","[1,3]","463.44796244144084","501.6565146168303","465.71432373473164"
"","canvas-keyboard-response","129","150927","0.0-6.0-4.17","550","","","","","clear_screen","null","null","","","catch","sw","sh","l","180","200","226","145","219","234","trueblood","null","null","null","null","null","null","null","null","null","null","null","","180","200","260","200","36000","52000","[1,3]","463.44796244144084","501.6565146168303","465.71432373473164"
"","canvas-keyboard-response","130","151366","0.0-6.0-5.17","550","","","","","make choice","433","3","","","catch","sw","sh","l","180","200","226","145","219","234","trueblood","null","null","null","null","null","null","null","null","null","null","null","","180","200","260","200","36000","52000","[1,3]","","",""
"","canvas-keyboard-response","131","151389","0.0-6.0-6.17","550","","","","","clear_screen","null","null","","","catch","sw","sh","l","180","200","226","145","219","234","trueblood","null","null","null","null","null","null","null","null","null","null","null","","180","200","260","200","36000","52000","[1,3]","","",""
"","canvas-keyboard-response","132","151590","0.0-6.0-0.18","550","","","","","pre trial waiting period","null","null","","","critical","t","d","c","164","240","162.6685","237.1485","240","164","spektor","0.02","h","164","240","240","164","162.6685","237.1485","39360","39360","38576.5967","tc","null","null","null","null","null","null","[1,3]","491.4589322986471","142.3353985269589","505.59445142966183"
"","canvas-keyboard-response","133","151610","0.0-6.0-1.18","550","","","","","clear_screen","null","null","","","critical","t","d","c","164","240","162.6685","237.1485","240","164","spektor","0.02","h","164","240","240","164","162.6685","237.1485","39360","39360","38576.5967","tc","null","null","null","null","null","null","[1,3]","491.4589322986471","142.3353985269589","505.59445142966183"
"","canvas-keyboard-response","134","152117","0.0-6.0-2.18","550","","","","","rectangles no change","null","null","","","critical","t","d","c","164","240","162.6685","237.1485","240","164","spektor","0.02","h","164","240","240","164","162.6685","237.1485","39360","39360","38576.5967","tc","null","null","null","null","null","null","[1,3]","491.4589322986471","142.3353985269589","505.59445142966183"
"","canvas-keyboard-response","135","153457","0.0-6.0-3.18","550","","","","","rectangles with change","null","null","","","critical","t","d","c","164","240","162.6685","237.1485","240","164","spektor","0.02","h","164","240","240","164","162.6685","237.1485","39360","39360","38576.5967","tc","null","null","null","null","null","null","[1,3]","491.4589322986471","142.3353985269589","505.59445142966183"
"","canvas-keyboard-response","136","153477","0.0-6.0-4.18","550","","","","","clear_screen","null","null","","","critical","t","d","c","164","240","162.6685","237.1485","240","164","spektor","0.02","h","164","240","240","164","162.6685","237.1485","39360","39360","38576.5967","tc","null","null","null","null","null","null","[1,3]","491.4589322986471","142.3353985269589","505.59445142966183"
"","canvas-keyboard-response","137","153879","0.0-6.0-5.18","550","","","","","make choice","395","3","","","critical","t","d","c","164","240","162.6685","237.1485","240","164","spektor","0.02","h","164","240","240","164","162.6685","237.1485","39360","39360","38576.5967","tc","null","null","null","null","null","null","[1,3]","","",""
"","canvas-keyboard-response","138","153898","0.0-6.0-6.18","550","","","","","clear_screen","null","null","","","critical","t","d","c","164","240","162.6685","237.1485","240","164","spektor","0.02","h","164","240","240","164","162.6685","237.1485","39360","39360","38576.5967","tc","null","null","null","null","null","null","[1,3]","","",""
"","canvas-keyboard-response","139","154099","0.0-6.0-0.19","550","","","","","pre trial waiting period","null","null","","","critical","c","t","d","240","164","164","240","158.0083","227.1683","spektor","0.09","h","164","240","240","164","158.0083","227.1683","39360","39360","35894.4834","dc","null","null","null","null","null","null","[3,1]","519.419167931","106.80298212192876","467.52444221791234"
"","canvas-keyboard-response","140","154122","0.0-6.0-1.19","550","","","","","clear_screen","null","null","","","critical","c","t","d","240","164","164","240","158.0083","227.1683","spektor","0.09","h","164","240","240","164","158.0083","227.1683","39360","39360","35894.4834","dc","null","null","null","null","null","null","[3,1]","519.419167931","106.80298212192876","467.52444221791234"
"","canvas-keyboard-response","141","154633","0.0-6.0-2.19","550","","","","","rectangles no change","null","null","","","critical","c","t","d","240","164","164","240","158.0083","227.1683","spektor","0.09","h","164","240","240","164","158.0083","227.1683","39360","39360","35894.4834","dc","null","null","null","null","null","null","[3,1]","519.419167931","106.80298212192876","467.52444221791234"
"","canvas-keyboard-response","142","155969","0.0-6.0-3.19","550","","","","","rectangles with change","null","null","","","critical","c","t","d","240","164","164","240","158.0083","227.1683","spektor","0.09","h","164","240","240","164","158.0083","227.1683","39360","39360","35894.4834","dc","null","null","null","null","null","null","[3,1]","519.419167931","106.80298212192876","467.52444221791234"
"","canvas-keyboard-response","143","155988","0.0-6.0-4.19","550","","","","","clear_screen","null","null","","","critical","c","t","d","240","164","164","240","158.0083","227.1683","spektor","0.09","h","164","240","240","164","158.0083","227.1683","39360","39360","35894.4834","dc","null","null","null","null","null","null","[3,1]","519.419167931","106.80298212192876","467.52444221791234"
"","canvas-keyboard-response","144","156398","0.0-6.0-5.19","550","","","","","make choice","406","1","","","critical","c","t","d","240","164","164","240","158.0083","227.1683","spektor","0.09","h","164","240","240","164","158.0083","227.1683","39360","39360","35894.4834","dc","null","null","null","null","null","null","[3,1]","","",""
"","canvas-keyboard-response","145","156415","0.0-6.0-6.19","550","","","","","clear_screen","null","null","","","critical","c","t","d","240","164","164","240","158.0083","227.1683","spektor","0.09","h","164","240","240","164","158.0083","227.1683","39360","39360","35894.4834","dc","null","null","null","null","null","null","[3,1]","","",""
"","canvas-keyboard-response","146","156616","0.0-6.0-0.20","550","","","","","pre trial waiting period","null","null","","","critical","c","d","t","164","240","240","164","240","164","trueblood","0","w","240","164","164","240","240","164","39360","39360","39360","dc","null","null","null","null","null","null","[2,1]","432.1823659423161","491.59407976355465","483.9611202804791"
"","canvas-keyboard-response","147","156637","0.0-6.0-1.20","550","","","","","clear_screen","null","null","","","critical","c","d","t","164","240","240","164","240","164","trueblood","0","w","240","164","164","240","240","164","39360","39360","39360","dc","null","null","null","null","null","null","[2,1]","432.1823659423161","491.59407976355465","483.9611202804791"
"","canvas-keyboard-response","148","157143","0.0-6.0-2.20","550","","","","","rectangles no change","null","null","","","critical","c","d","t","164","240","240","164","240","164","trueblood","0","w","240","164","164","240","240","164","39360","39360","39360","dc","null","null","null","null","null","null","[2,1]","432.1823659423161","491.59407976355465","483.9611202804791"
"","canvas-keyboard-response","149","158478","0.0-6.0-3.20","550","","","","","rectangles with change","null","null","","","critical","c","d","t","164","240","240","164","240","164","trueblood","0","w","240","164","164","240","240","164","39360","39360","39360","dc","null","null","null","null","null","null","[2,1]","432.1823659423161","491.59407976355465","483.9611202804791"
"","canvas-keyboard-response","150","158496","0.0-6.0-4.20","550","","","","","clear_screen","null","null","","","critical","c","d","t","164","240","240","164","240","164","trueblood","0","w","240","164","164","240","240","164","39360","39360","39360","dc","null","null","null","null","null","null","[2,1]","432.1823659423161","491.59407976355465","483.9611202804791"
"","canvas-keyboard-response","151","158855","0.0-6.0-5.20","550","","","","","make choice","353","2","","","critical","c","d","t","164","240","240","164","240","164","trueblood","0","w","240","164","164","240","240","164","39360","39360","39360","dc","null","null","null","null","null","null","[2,1]","","",""
"","canvas-keyboard-response","152","158877","0.0-6.0-6.20","550","","","","","clear_screen","null","null","","","critical","c","d","t","164","240","240","164","240","164","trueblood","0","w","240","164","164","240","240","164","39360","39360","39360","dc","null","null","null","null","null","null","[2,1]","","",""
"","canvas-keyboard-response","153","159078","0.0-6.0-0.21","550","","","","","pre trial waiting period","null","null","","","critical","d","t","c","164","240","164","240","240","164","spektor","0","h","164","240","240","164","164","240","39360","39360","39360","tc","null","null","null","null","null","null","[2,3]","467.73227217899597","123.42160159633967","542.829555684558"
"","canvas-keyboard-response","154","159097","0.0-6.0-1.21","550","","","","","clear_screen","null","null","","","critical","d","t","c","164","240","164","240","240","164","spektor","0","h","164","240","240","164","164","240","39360","39360","39360","tc","null","null","null","null","null","null","[2,3]","467.73227217899597","123.42160159633967","542.829555684558"
"","canvas-keyboard-response","155","159604","0.0-6.0-2.21","550","","","","","rectangles no change","null","null","","","critical","d","t","c","164","240","164","240","240","164","spektor","0","h","164","240","240","164","164","240","39360","39360","39360","tc","null","null","null","null","null","null","[2,3]","467.73227217899597","123.42160159633967","542.829555684558"
"","canvas-keyboard-response","156","160939","0.0-6.0-3.21","550","","","","","rectangles with change","null","null","","","critical","d","t","c","164","240","164","240","240","164","spektor","0","h","164","240","240","164","164","240","39360","39360","39360","tc","null","null","null","null","null","null","[2,3]","467.73227217899597","123.42160159633967","542.829555684558"
"","canvas-keyboard-response","157","160961","0.0-6.0-4.21","550","","","","","clear_screen","null","null","","","critical","d","t","c","164","240","164","240","240","164","spektor","0","h","164","240","240","164","164","240","39360","39360","39360","tc","null","null","null","null","null","null","[2,3]","467.73227217899597","123.42160159633967","542.829555684558"
"","canvas-keyboard-response","158","161278","0.0-6.0-5.21","550","","","","","make choice","312","3","","","critical","d","t","c","164","240","164","240","240","164","spektor","0","h","164","240","240","164","164","240","39360","39360","39360","tc","null","null","null","null","null","null","[2,3]","","",""
"","canvas-keyboard-response","159","161301","0.0-6.0-6.21","550","","","","","clear_screen","null","null","","","critical","d","t","c","164","240","164","240","240","164","spektor","0","h","164","240","240","164","164","240","39360","39360","39360","tc","null","null","null","null","null","null","[2,3]","","",""
"","canvas-keyboard-response","160","161501","0.0-6.0-0.22","550","","","","","pre trial waiting period","null","null","","","catch","sw","sh","l","180","200","163","197","168","253","spektor","null","null","null","null","null","null","null","null","null","null","null","","180","200","260","200","36000","52000","[2,3]","491.1032908196061","131.38572255779303","476.3887981898327"
"","canvas-keyboard-response","161","161522","0.0-6.0-1.22","550","","","","","clear_screen","null","null","","","catch","sw","sh","l","180","200","163","197","168","253","spektor","null","null","null","null","null","null","null","null","null","null","null","","180","200","260","200","36000","52000","[2,3]","491.1032908196061","131.38572255779303","476.3887981898327"
"","canvas-keyboard-response","162","162029","0.0-6.0-2.22","550","","","","","rectangles no change","null","null","","","catch","sw","sh","l","180","200","163","197","168","253","spektor","null","null","null","null","null","null","null","null","null","null","null","","180","200","260","200","36000","52000","[2,3]","491.1032908196061","131.38572255779303","476.3887981898327"
"","canvas-keyboard-response","163","163369","0.0-6.0-3.22","550","","","","","rectangles with change","null","null","","","catch","sw","sh","l","180","200","163","197","168","253","spektor","null","null","null","null","null","null","null","null","null","null","null","","180","200","260","200","36000","52000","[2,3]","491.1032908196061","131.38572255779303","476.3887981898327"
"","canvas-keyboard-response","164","163391","0.0-6.0-4.22","550","","","","","clear_screen","null","null","","","catch","sw","sh","l","180","200","163","197","168","253","spektor","null","null","null","null","null","null","null","null","null","null","null","","180","200","260","200","36000","52000","[2,3]","491.1032908196061","131.38572255779303","476.3887981898327"
"","canvas-keyboard-response","165","163727","0.0-6.0-5.22","550","","","","","make choice","327","3","","","catch","sw","sh","l","180","200","163","197","168","253","spektor","null","null","null","null","null","null","null","null","null","null","null","","180","200","260","200","36000","52000","[2,3]","","",""
"","canvas-keyboard-response","166","163746","0.0-6.0-6.22","550","","","","","clear_screen","null","null","","","catch","sw","sh","l","180","200","163","197","168","253","spektor","null","null","null","null","null","null","null","null","null","null","null","","180","200","260","200","36000","52000","[2,3]","","",""
"","canvas-keyboard-response","167","163947","0.0-6.0-0.23","550","","","","","pre trial waiting period","null","null","","","catch","sw","sh","l","180","200","186","193","200","254","trueblood","null","null","null","null","null","null","null","null","null","null","null","","180","200","260","200","36000","52000","[1,3]","488.0025918737681","460.66907370879704","431.3833683983014"
"","canvas-keyboard-response","168","163966","0.0-6.0-1.23","550","","","","","clear_screen","null","null","","","catch","sw","sh","l","180","200","186","193","200","254","trueblood","null","null","null","null","null","null","null","null","null","null","null","","180","200","260","200","36000","52000","[1,3]","488.0025918737681","460.66907370879704","431.3833683983014"
"","canvas-keyboard-response","169","164475","0.0-6.0-2.23","550","","","","","rectangles no change","null","null","","","catch","sw","sh","l","180","200","186","193","200","254","trueblood","null","null","null","null","null","null","null","null","null","null","null","","180","200","260","200","36000","52000","[1,3]","488.0025918737681","460.66907370879704","431.3833683983014"
"","canvas-keyboard-response","170","165810","0.0-6.0-3.23","550","","","","","rectangles with change","null","null","","","catch","sw","sh","l","180","200","186","193","200","254","trueblood","null","null","null","null","null","null","null","null","null","null","null","","180","200","260","200","36000","52000","[1,3]","488.0025918737681","460.66907370879704","431.3833683983014"
"","canvas-keyboard-response","171","165829","0.0-6.0-4.23","550","","","","","clear_screen","null","null","","","catch","sw","sh","l","180","200","186","193","200","254","trueblood","null","null","null","null","null","null","null","null","null","null","null","","180","200","260","200","36000","52000","[1,3]","488.0025918737681","460.66907370879704","431.3833683983014"
"","canvas-keyboard-response","172","166231","0.0-6.0-5.23","550","","","","","make choice","396","3","","","catch","sw","sh","l","180","200","186","193","200","254","trueblood","null","null","null","null","null","null","null","null","null","null","null","","180","200","260","200","36000","52000","[1,3]","","",""
"","canvas-keyboard-response","173","166250","0.0-6.0-6.23","550","","","","","clear_screen","null","null","","","catch","sw","sh","l","180","200","186","193","200","254","trueblood","null","null","null","null","null","null","null","null","null","null","null","","180","200","260","200","36000","52000","[1,3]","","",""
"","canvas-keyboard-response","174","166452","0.0-6.0-0.24","550","","","","","pre trial waiting period","null","null","","","critical","t","d","c","164","240","160.6713","232.8713","240","164","trueblood","0.05","h","164","240","240","164","160.6713","232.8713","39360","39360","37415.7294","dc","null","null","null","null","null","null","[2,3]","440.45254952460135","448.4381517049517","516.4508867131219"
"","canvas-keyboard-response","175","166477","0.0-6.0-1.24","550","","","","","clear_screen","null","null","","","critical","t","d","c","164","240","160.6713","232.8713","240","164","trueblood","0.05","h","164","240","240","164","160.6713","232.8713","39360","39360","37415.7294","dc","null","null","null","null","null","null","[2,3]","440.45254952460135","448.4381517049517","516.4508867131219"
"","canvas-keyboard-response","176","166983","0.0-6.0-2.24","550","","","","","rectangles no change","null","null","","","critical","t","d","c","164","240","160.6713","232.8713","240","164","trueblood","0.05","h","164","240","240","164","160.6713","232.8713","39360","39360","37415.7294","dc","null","null","null","null","null","null","[2,3]","440.45254952460135","448.4381517049517","516.4508867131219"
"","canvas-keyboard-response","177","168319","0.0-6.0-3.24","550","","","","","rectangles with change","null","null","","","critical","t","d","c","164","240","160.6713","232.8713","240","164","trueblood","0.05","h","164","240","240","164","160.6713","232.8713","39360","39360","37415.7294","dc","null","null","null","null","null","null","[2,3]","440.45254952460135","448.4381517049517","516.4508867131219"
"","canvas-keyboard-response","178","168342","0.0-6.0-4.24","550","","","","","clear_screen","null","null","","","critical","t","d","c","164","240","160.6713","232.8713","240","164","trueblood","0.05","h","164","240","240","164","160.6713","232.8713","39360","39360","37415.7294","dc","null","null","null","null","null","null","[2,3]","440.45254952460135","448.4381517049517","516.4508867131219"
"","canvas-keyboard-response","179","168679","0.0-6.0-5.24","550","","","","","make choice","330","3","","","critical","t","d","c","164","240","160.6713","232.8713","240","164","trueblood","0.05","h","164","240","240","164","160.6713","232.8713","39360","39360","37415.7294","dc","null","null","null","null","null","null","[2,3]","","",""
"","canvas-keyboard-response","180","168699","0.0-6.0-6.24","550","","","","","clear_screen","null","null","","","critical","t","d","c","164","240","160.6713","232.8713","240","164","trueblood","0.05","h","164","240","240","164","160.6713","232.8713","39360","39360","37415.7294","dc","null","null","null","null","null","null","[2,3]","","",""
"","canvas-keyboard-response","181","168900","0.0-6.0-0.25","550","","","","","pre trial waiting period","null","null","","","catch","sw","sh","l","180","200","196","205","266","207","trueblood","null","null","null","null","null","null","null","null","null","null","null","","180","200","260","200","36000","52000","[2,3]","492.50035565618595","466.55344903703184","456.5534022954146"
"","canvas-keyboard-response","182","168923","0.0-6.0-1.25","550","","","","","clear_screen","null","null","","","catch","sw","sh","l","180","200","196","205","266","207","trueblood","null","null","null","null","null","null","null","null","null","null","null","","180","200","260","200","36000","52000","[2,3]","492.50035565618595","466.55344903703184","456.5534022954146"
"","canvas-keyboard-response","183","169431","0.0-6.0-2.25","550","","","","","rectangles no change","null","null","","","catch","sw","sh","l","180","200","196","205","266","207","trueblood","null","null","null","null","null","null","null","null","null","null","null","","180","200","260","200","36000","52000","[2,3]","492.50035565618595","466.55344903703184","456.5534022954146"
"","canvas-keyboard-response","184","170769","0.0-6.0-3.25","550","","","","","rectangles with change","null","null","","","catch","sw","sh","l","180","200","196","205","266","207","trueblood","null","null","null","null","null","null","null","null","null","null","null","","180","200","260","200","36000","52000","[2,3]","492.50035565618595","466.55344903703184","456.5534022954146"
"","canvas-keyboard-response","185","170791","0.0-6.0-4.25","550","","","","","clear_screen","null","null","","","catch","sw","sh","l","180","200","196","205","266","207","trueblood","null","null","null","null","null","null","null","null","null","null","null","","180","200","260","200","36000","52000","[2,3]","492.50035565618595","466.55344903703184","456.5534022954146"
"","canvas-keyboard-response","186","171135","0.0-6.0-5.25","550","","","","","make choice","339","3","","","catch","sw","sh","l","180","200","196","205","266","207","trueblood","null","null","null","null","null","null","null","null","null","null","null","","180","200","260","200","36000","52000","[2,3]","","",""
"","canvas-keyboard-response","187","171155","0.0-6.0-6.25","550","","","","","clear_screen","null","null","","","catch","sw","sh","l","180","200","196","205","266","207","trueblood","null","null","null","null","null","null","null","null","null","null","null","","180","200","260","200","36000","52000","[2,3]","","",""
"","canvas-keyboard-response","188","171355","0.0-6.0-0.26","550","","","","","pre trial waiting period","null","null","","","critical","d","c","t","160.6713","232.8713","240","164","164","240","trueblood","0.05","h","164","240","240","164","160.6713","232.8713","39360","39360","37415.7294","tc","null","null","null","null","null","null","[3,2]","460.3904896979483","515.2169362038918","431.10078159187753"
"","canvas-keyboard-response","189","171375","0.0-6.0-1.26","550","","","","","clear_screen","null","null","","","critical","d","c","t","160.6713","232.8713","240","164","164","240","trueblood","0.05","h","164","240","240","164","160.6713","232.8713","39360","39360","37415.7294","tc","null","null","null","null","null","null","[3,2]","460.3904896979483","515.2169362038918","431.10078159187753"
"","canvas-keyboard-response","190","171884","0.0-6.0-2.26","550","","","","","rectangles no change","null","null","","","critical","d","c","t","160.6713","232.8713","240","164","164","240","trueblood","0.05","h","164","240","240","164","160.6713","232.8713","39360","39360","37415.7294","tc","null","null","null","null","null","null","[3,2]","460.3904896979483","515.2169362038918","431.10078159187753"
"","canvas-keyboard-response","191","173221","0.0-6.0-3.26","550","","","","","rectangles with change","null","null","","","critical","d","c","t","160.6713","232.8713","240","164","164","240","trueblood","0.05","h","164","240","240","164","160.6713","232.8713","39360","39360","37415.7294","tc","null","null","null","null","null","null","[3,2]","460.3904896979483","515.2169362038918","431.10078159187753"
"","canvas-keyboard-response","192","173244","0.0-6.0-4.26","550","","","","","clear_screen","null","null","","","critical","d","c","t","160.6713","232.8713","240","164","164","240","trueblood","0.05","h","164","240","240","164","160.6713","232.8713","39360","39360","37415.7294","tc","null","null","null","null","null","null","[3,2]","460.3904896979483","515.2169362038918","431.10078159187753"
"","canvas-keyboard-response","193","173607","0.0-6.0-5.26","550","","","","","make choice","359","2","","","critical","d","c","t","160.6713","232.8713","240","164","164","240","trueblood","0.05","h","164","240","240","164","160.6713","232.8713","39360","39360","37415.7294","tc","null","null","null","null","null","null","[3,2]","","",""
"","canvas-keyboard-response","194","173630","0.0-6.0-6.26","550","","","","","clear_screen","null","null","","","critical","d","c","t","160.6713","232.8713","240","164","164","240","trueblood","0.05","h","164","240","240","164","160.6713","232.8713","39360","39360","37415.7294","tc","null","null","null","null","null","null","[3,2]","","",""
"","canvas-keyboard-response","195","173830","0.0-6.0-0.27","550","","","","","pre trial waiting period","null","null","","","critical","c","t","d","164","240","240","164","240","164","spektor","0","w","240","164","164","240","240","164","39360","39360","39360","td","null","null","null","null","null","null","[2,3]","463.95942659425003","171.6523729366868","500.7885189330523"
"","canvas-keyboard-response","196","173853","0.0-6.0-1.27","550","","","","","clear_screen","null","null","","","critical","c","t","d","164","240","240","164","240","164","spektor","0","w","240","164","164","240","240","164","39360","39360","39360","td","null","null","null","null","null","null","[2,3]","463.95942659425003","171.6523729366868","500.7885189330523"
"","canvas-keyboard-response","197","174363","0.0-6.0-2.27","550","","","","","rectangles no change","null","null","","","critical","c","t","d","164","240","240","164","240","164","spektor","0","w","240","164","164","240","240","164","39360","39360","39360","td","null","null","null","null","null","null","[2,3]","463.95942659425003","171.6523729366868","500.7885189330523"
"","canvas-keyboard-response","198","175702","0.0-6.0-3.27","550","","","","","rectangles with change","null","null","","","critical","c","t","d","164","240","240","164","240","164","spektor","0","w","240","164","164","240","240","164","39360","39360","39360","td","null","null","null","null","null","null","[2,3]","463.95942659425003","171.6523729366868","500.7885189330523"
"","canvas-keyboard-response","199","175722","0.0-6.0-4.27","550","","","","","clear_screen","null","null","","","critical","c","t","d","164","240","240","164","240","164","spektor","0","w","240","164","164","240","240","164","39360","39360","39360","td","null","null","null","null","null","null","[2,3]","463.95942659425003","171.6523729366868","500.7885189330523"
"","canvas-keyboard-response","200","176039","0.0-6.0-5.27","550","","","","","make choice","312","3","","","critical","c","t","d","164","240","240","164","240","164","spektor","0","w","240","164","164","240","240","164","39360","39360","39360","td","null","null","null","null","null","null","[2,3]","","",""
"","canvas-keyboard-response","201","176058","0.0-6.0-6.27","550","","","","","clear_screen","null","null","","","critical","c","t","d","164","240","240","164","240","164","spektor","0","w","240","164","164","240","240","164","39360","39360","39360","td","null","null","null","null","null","null","[2,3]","","",""
"","canvas-keyboard-response","202","176259","0.0-6.0-0.28","550","","","","","pre trial waiting period","null","null","","","critical","d","c","t","158.0083","227.1683","240","164","164","240","spektor","0.09","h","164","240","240","164","158.0083","227.1683","39360","39360","35894.4834","tc","null","null","null","null","null","null","[3,2]","480.1127988273312","155.77419486878534","462.36071553472163"
"","canvas-keyboard-response","203","176282","0.0-6.0-1.28","550","","","","","clear_screen","null","null","","","critical","d","c","t","158.0083","227.1683","240","164","164","240","spektor","0.09","h","164","240","240","164","158.0083","227.1683","39360","39360","35894.4834","tc","null","null","null","null","null","null","[3,2]","480.1127988273312","155.77419486878534","462.36071553472163"
"","canvas-keyboard-response","204","176795","0.0-6.0-2.28","550","","","","","rectangles no change","null","null","","","critical","d","c","t","158.0083","227.1683","240","164","164","240","spektor","0.09","h","164","240","240","164","158.0083","227.1683","39360","39360","35894.4834","tc","null","null","null","null","null","null","[3,2]","480.1127988273312","155.77419486878534","462.36071553472163"
"","canvas-keyboard-response","205","178131","0.0-6.0-3.28","550","","","","","rectangles with change","null","null","","","critical","d","c","t","158.0083","227.1683","240","164","164","240","spektor","0.09","h","164","240","240","164","158.0083","227.1683","39360","39360","35894.4834","tc","null","null","null","null","null","null","[3,2]","480.1127988273312","155.77419486878534","462.36071553472163"
"","canvas-keyboard-response","206","178149","0.0-6.0-4.28","550","","","","","clear_screen","null","null","","","critical","d","c","t","158.0083","227.1683","240","164","164","240","spektor","0.09","h","164","240","240","164","158.0083","227.1683","39360","39360","35894.4834","tc","null","null","null","null","null","null","[3,2]","480.1127988273312","155.77419486878534","462.36071553472163"
"","canvas-keyboard-response","207","178536","0.0-6.0-5.28","550","","","","","make choice","380","2","","","critical","d","c","t","158.0083","227.1683","240","164","164","240","spektor","0.09","h","164","240","240","164","158.0083","227.1683","39360","39360","35894.4834","tc","null","null","null","null","null","null","[3,2]","","",""
"","canvas-keyboard-response","208","178555","0.0-6.0-6.28","550","","","","","clear_screen","null","null","","","critical","d","c","t","158.0083","227.1683","240","164","164","240","spektor","0.09","h","164","240","240","164","158.0083","227.1683","39360","39360","35894.4834","tc","null","null","null","null","null","null","[3,2]","","",""
"","canvas-keyboard-response","209","178756","0.0-6.0-0.29","550","","","","","pre trial waiting period","null","null","","","catch","sw","sh","l","180","200","164","145","224","231","spektor","null","null","null","null","null","null","null","null","null","null","null","","180","200","260","200","36000","52000","[2,3]","479.9002401628403","215.6715496592065","491.78362402587527"
"","canvas-keyboard-response","210","178776","0.0-6.0-1.29","550","","","","","clear_screen","null","null","","","catch","sw","sh","l","180","200","164","145","224","231","spektor","null","null","null","null","null","null","null","null","null","null","null","","180","200","260","200","36000","52000","[2,3]","479.9002401628403","215.6715496592065","491.78362402587527"
"","canvas-keyboard-response","211","179282","0.0-6.0-2.29","550","","","","","rectangles no change","null","null","","","catch","sw","sh","l","180","200","164","145","224","231","spektor","null","null","null","null","null","null","null","null","null","null","null","","180","200","260","200","36000","52000","[2,3]","479.9002401628403","215.6715496592065","491.78362402587527"
"","canvas-keyboard-response","212","180618","0.0-6.0-3.29","550","","","","","rectangles with change","null","null","","","catch","sw","sh","l","180","200","164","145","224","231","spektor","null","null","null","null","null","null","null","null","null","null","null","","180","200","260","200","36000","52000","[2,3]","479.9002401628403","215.6715496592065","491.78362402587527"
"","canvas-keyboard-response","213","180639","0.0-6.0-4.29","550","","","","","clear_screen","null","null","","","catch","sw","sh","l","180","200","164","145","224","231","spektor","null","null","null","null","null","null","null","null","null","null","null","","180","200","260","200","36000","52000","[2,3]","479.9002401628403","215.6715496592065","491.78362402587527"
"","canvas-keyboard-response","214","181014","0.0-6.0-5.29","550","","","","","make choice","368","3","","","catch","sw","sh","l","180","200","164","145","224","231","spektor","null","null","null","null","null","null","null","null","null","null","null","","180","200","260","200","36000","52000","[2,3]","","",""
"","canvas-keyboard-response","215","181032","0.0-6.0-6.29","550","","","","","clear_screen","null","null","","","catch","sw","sh","l","180","200","164","145","224","231","spektor","null","null","null","null","null","null","null","null","null","null","null","","180","200","260","200","36000","52000","[2,3]","","",""
"","canvas-keyboard-response","216","181233","0.0-6.0-0.30","550","","","","","pre trial waiting period","null","null","","","critical","t","d","c","164","240","154.6796","220.0396","240","164","trueblood","0.14","h","164","240","240","164","154.6796","220.0396","39360","39360","34035.6388","tc","null","null","null","null","null","null","[1,3]","423.26594327636","433.12406979561814","516.716760869484"
"","canvas-keyboard-response","217","181252","0.0-6.0-1.30","550","","","","","clear_screen","null","null","","","critical","t","d","c","164","240","154.6796","220.0396","240","164","trueblood","0.14","h","164","240","240","164","154.6796","220.0396","39360","39360","34035.6388","tc","null","null","null","null","null","null","[1,3]","423.26594327636","433.12406979561814","516.716760869484"
"","canvas-keyboard-response","218","181760","0.0-6.0-2.30","550","","","","","rectangles no change","null","null","","","critical","t","d","c","164","240","154.6796","220.0396","240","164","trueblood","0.14","h","164","240","240","164","154.6796","220.0396","39360","39360","34035.6388","tc","null","null","null","null","null","null","[1,3]","423.26594327636","433.12406979561814","516.716760869484"
"","canvas-keyboard-response","219","183096","0.0-6.0-3.30","550","","","","","rectangles with change","null","null","","","critical","t","d","c","164","240","154.6796","220.0396","240","164","trueblood","0.14","h","164","240","240","164","154.6796","220.0396","39360","39360","34035.6388","tc","null","null","null","null","null","null","[1,3]","423.26594327636","433.12406979561814","516.716760869484"
"","canvas-keyboard-response","220","183115","0.0-6.0-4.30","550","","","","","clear_screen","null","null","","","critical","t","d","c","164","240","154.6796","220.0396","240","164","trueblood","0.14","h","164","240","240","164","154.6796","220.0396","39360","39360","34035.6388","tc","null","null","null","null","null","null","[1,3]","423.26594327636","433.12406979561814","516.716760869484"
"","canvas-keyboard-response","221","183567","0.0-6.0-5.30","550","","","","","make choice","448","3","","","critical","t","d","c","164","240","154.6796","220.0396","240","164","trueblood","0.14","h","164","240","240","164","154.6796","220.0396","39360","39360","34035.6388","tc","null","null","null","null","null","null","[1,3]","","",""
"","canvas-keyboard-response","222","183588","0.0-6.0-6.30","550","","","","","clear_screen","null","null","","","critical","t","d","c","164","240","154.6796","220.0396","240","164","trueblood","0.14","h","164","240","240","164","154.6796","220.0396","39360","39360","34035.6388","tc","null","null","null","null","null","null","[1,3]","","",""
"","canvas-keyboard-response","223","183789","0.0-6.0-0.31","550","","","","","pre trial waiting period","null","null","","","critical","d","t","c","160.6713","232.8713","164","240","240","164","trueblood","0.05","h","164","240","240","164","160.6713","232.8713","39360","39360","37415.7294","td","null","null","null","null","null","null","[2,1]","430.50975139515083","419.9789962760637","469.1508926406996"
"","canvas-keyboard-response","224","183809","0.0-6.0-1.31","550","","","","","clear_screen","null","null","","","critical","d","t","c","160.6713","232.8713","164","240","240","164","trueblood","0.05","h","164","240","240","164","160.6713","232.8713","39360","39360","37415.7294","td","null","null","null","null","null","null","[2,1]","430.50975139515083","419.9789962760637","469.1508926406996"
"","canvas-keyboard-response","225","184315","0.0-6.0-2.31","550","","","","","rectangles no change","null","null","","","critical","d","t","c","160.6713","232.8713","164","240","240","164","trueblood","0.05","h","164","240","240","164","160.6713","232.8713","39360","39360","37415.7294","td","null","null","null","null","null","null","[2,1]","430.50975139515083","419.9789962760637","469.1508926406996"
"","canvas-keyboard-response","226","185648","0.0-6.0-3.31","550","","","","","rectangles with change","null","null","","","critical","d","t","c","160.6713","232.8713","164","240","240","164","trueblood","0.05","h","164","240","240","164","160.6713","232.8713","39360","39360","37415.7294","td","null","null","null","null","null","null","[2,1]","430.50975139515083","419.9789962760637","469.1508926406996"
"","canvas-keyboard-response","227","185672","0.0-6.0-4.31","550","","","","","clear_screen","null","null","","","critical","d","t","c","160.6713","232.8713","164","240","240","164","trueblood","0.05","h","164","240","240","164","160.6713","232.8713","39360","39360","37415.7294","td","null","null","null","null","null","null","[2,1]","430.50975139515083","419.9789962760637","469.1508926406996"
"","canvas-keyboard-response","228","186431","0.0-6.0-5.31","550","","","","","make choice","748","1","","","critical","d","t","c","160.6713","232.8713","164","240","240","164","trueblood","0.05","h","164","240","240","164","160.6713","232.8713","39360","39360","37415.7294","td","null","null","null","null","null","null","[2,1]","","",""
"","canvas-keyboard-response","229","186450","0.0-6.0-6.31","550","","","","","clear_screen","null","null","","","critical","d","t","c","160.6713","232.8713","164","240","240","164","trueblood","0.05","h","164","240","240","164","160.6713","232.8713","39360","39360","37415.7294","td","null","null","null","null","null","null","[2,1]","","",""
"","canvas-keyboard-response","230","186651","0.0-6.0-0.32","550","","","","","pre trial waiting period","null","null","","","critical","d","t","c","164","240","164","240","240","164","spektor","0","h","164","240","240","164","164","240","39360","39360","39360","td","null","null","null","null","null","null","[2,1]","501.46017834515817","108.73458963974569","507.1770176333791"
"","canvas-keyboard-response","231","186671","0.0-6.0-1.32","550","","","","","clear_screen","null","null","","","critical","d","t","c","164","240","164","240","240","164","spektor","0","h","164","240","240","164","164","240","39360","39360","39360","td","null","null","null","null","null","null","[2,1]","501.46017834515817","108.73458963974569","507.1770176333791"
"","canvas-keyboard-response","232","187178","0.0-6.0-2.32","550","","","","","rectangles no change","null","null","","","critical","d","t","c","164","240","164","240","240","164","spektor","0","h","164","240","240","164","164","240","39360","39360","39360","td","null","null","null","null","null","null","[2,1]","501.46017834515817","108.73458963974569","507.1770176333791"
"","canvas-keyboard-response","233","188517","0.0-6.0-3.32","550","","","","","rectangles with change","null","null","","","critical","d","t","c","164","240","164","240","240","164","spektor","0","h","164","240","240","164","164","240","39360","39360","39360","td","null","null","null","null","null","null","[2,1]","501.46017834515817","108.73458963974569","507.1770176333791"
"","canvas-keyboard-response","234","188539","0.0-6.0-4.32","550","","","","","clear_screen","null","null","","","critical","d","t","c","164","240","164","240","240","164","spektor","0","h","164","240","240","164","164","240","39360","39360","39360","td","null","null","null","null","null","null","[2,1]","501.46017834515817","108.73458963974569","507.1770176333791"
"","canvas-keyboard-response","235","188887","0.0-6.0-5.32","550","","","","","make choice","340","1","","","critical","d","t","c","164","240","164","240","240","164","spektor","0","h","164","240","240","164","164","240","39360","39360","39360","td","null","null","null","null","null","null","[2,1]","","",""
"","canvas-keyboard-response","236","188905","0.0-6.0-6.32","550","","","","","clear_screen","null","null","","","critical","d","t","c","164","240","164","240","240","164","spektor","0","h","164","240","240","164","164","240","39360","39360","39360","td","null","null","null","null","null","null","[2,1]","","",""
"","canvas-keyboard-response","237","189105","0.0-6.0-0.33","550","","","","","pre trial waiting period","null","null","","","critical","c","d","t","240","164","154.6796","220.0396","164","240","spektor","0.14","h","164","240","240","164","154.6796","220.0396","39360","39360","34035.6388","dc","null","null","null","null","null","null","[2,1]","524.666042074183","149.3349192484858","490.2914590330706"
"","canvas-keyboard-response","238","189124","0.0-6.0-1.33","550","","","","","clear_screen","null","null","","","critical","c","d","t","240","164","154.6796","220.0396","164","240","spektor","0.14","h","164","240","240","164","154.6796","220.0396","39360","39360","34035.6388","dc","null","null","null","null","null","null","[2,1]","524.666042074183","149.3349192484858","490.2914590330706"
"","canvas-keyboard-response","239","189633","0.0-6.0-2.33","550","","","","","rectangles no change","null","null","","","critical","c","d","t","240","164","154.6796","220.0396","164","240","spektor","0.14","h","164","240","240","164","154.6796","220.0396","39360","39360","34035.6388","dc","null","null","null","null","null","null","[2,1]","524.666042074183","149.3349192484858","490.2914590330706"
"","canvas-keyboard-response","240","190973","0.0-6.0-3.33","550","","","","","rectangles with change","null","null","","","critical","c","d","t","240","164","154.6796","220.0396","164","240","spektor","0.14","h","164","240","240","164","154.6796","220.0396","39360","39360","34035.6388","dc","null","null","null","null","null","null","[2,1]","524.666042074183","149.3349192484858","490.2914590330706"
"","canvas-keyboard-response","241","190996","0.0-6.0-4.33","550","","","","","clear_screen","null","null","","","critical","c","d","t","240","164","154.6796","220.0396","164","240","spektor","0.14","h","164","240","240","164","154.6796","220.0396","39360","39360","34035.6388","dc","null","null","null","null","null","null","[2,1]","524.666042074183","149.3349192484858","490.2914590330706"
"","canvas-keyboard-response","242","191367","0.0-6.0-5.33","550","","","","","make choice","366","1","","","critical","c","d","t","240","164","154.6796","220.0396","164","240","spektor","0.14","h","164","240","240","164","154.6796","220.0396","39360","39360","34035.6388","dc","null","null","null","null","null","null","[2,1]","","",""
"","canvas-keyboard-response","243","191386","0.0-6.0-6.33","550","","","","","clear_screen","null","null","","","critical","c","d","t","240","164","154.6796","220.0396","164","240","spektor","0.14","h","164","240","240","164","154.6796","220.0396","39360","39360","34035.6388","dc","null","null","null","null","null","null","[2,1]","","",""
"","canvas-keyboard-response","244","191587","0.0-6.0-0.34","550","","","","","pre trial waiting period","null","null","","","critical","d","c","t","158.0083","227.1683","240","164","164","240","trueblood","0.09","h","164","240","240","164","158.0083","227.1683","39360","39360","35894.4834","td","null","null","null","null","null","null","[3,1]","475.13409781833656","496.2183801613791","452.89023342866597"
"","canvas-keyboard-response","245","191608","0.0-6.0-1.34","550","","","","","clear_screen","null","null","","","critical","d","c","t","158.0083","227.1683","240","164","164","240","trueblood","0.09","h","164","240","240","164","158.0083","227.1683","39360","39360","35894.4834","td","null","null","null","null","null","null","[3,1]","475.13409781833656","496.2183801613791","452.89023342866597"
"","canvas-keyboard-response","246","192114","0.0-6.0-2.34","550","","","","","rectangles no change","null","null","","","critical","d","c","t","158.0083","227.1683","240","164","164","240","trueblood","0.09","h","164","240","240","164","158.0083","227.1683","39360","39360","35894.4834","td","null","null","null","null","null","null","[3,1]","475.13409781833656","496.2183801613791","452.89023342866597"
"","canvas-keyboard-response","247","193454","0.0-6.0-3.34","550","","","","","rectangles with change","null","null","","","critical","d","c","t","158.0083","227.1683","240","164","164","240","trueblood","0.09","h","164","240","240","164","158.0083","227.1683","39360","39360","35894.4834","td","null","null","null","null","null","null","[3,1]","475.13409781833656","496.2183801613791","452.89023342866597"
"","canvas-keyboard-response","248","193471","0.0-6.0-4.34","550","","","","","clear_screen","null","null","","","critical","d","c","t","158.0083","227.1683","240","164","164","240","trueblood","0.09","h","164","240","240","164","158.0083","227.1683","39360","39360","35894.4834","td","null","null","null","null","null","null","[3,1]","475.13409781833656","496.2183801613791","452.89023342866597"
"","canvas-keyboard-response","249","194592","0.0-6.0-5.34","550","","","","","make choice","1113","3","","","critical","d","c","t","158.0083","227.1683","240","164","164","240","trueblood","0.09","h","164","240","240","164","158.0083","227.1683","39360","39360","35894.4834","td","null","null","null","null","null","null","[3,1]","","",""
"","canvas-keyboard-response","250","194609","0.0-6.0-6.34","550","","","","","clear_screen","null","null","","","critical","d","c","t","158.0083","227.1683","240","164","164","240","trueblood","0.09","h","164","240","240","164","158.0083","227.1683","39360","39360","35894.4834","td","null","null","null","null","null","null","[3,1]","","",""
"","canvas-keyboard-response","251","194810","0.0-6.0-0.35","550","","","","","pre trial waiting period","null","null","","","critical","d","t","c","227.1683","158.0083","240","164","164","240","trueblood","0.09","w","240","164","164","240","227.1683","158.0083","39360","39360","35894.4834","dc","null","null","null","null","null","null","[1,3]","472.7457424289835","515.1448157802207","460.7783317767895"
"","canvas-keyboard-response","252","194829","0.0-6.0-1.35","550","","","","","clear_screen","null","null","","","critical","d","t","c","227.1683","158.0083","240","164","164","240","trueblood","0.09","w","240","164","164","240","227.1683","158.0083","39360","39360","35894.4834","dc","null","null","null","null","null","null","[1,3]","472.7457424289835","515.1448157802207","460.7783317767895"
"","canvas-keyboard-response","253","195341","0.0-6.0-2.35","550","","","","","rectangles no change","null","null","","","critical","d","t","c","227.1683","158.0083","240","164","164","240","trueblood","0.09","w","240","164","164","240","227.1683","158.0083","39360","39360","35894.4834","dc","null","null","null","null","null","null","[1,3]","472.7457424289835","515.1448157802207","460.7783317767895"
"","canvas-keyboard-response","254","196679","0.0-6.0-3.35","550","","","","","rectangles with change","null","null","","","critical","d","t","c","227.1683","158.0083","240","164","164","240","trueblood","0.09","w","240","164","164","240","227.1683","158.0083","39360","39360","35894.4834","dc","null","null","null","null","null","null","[1,3]","472.7457424289835","515.1448157802207","460.7783317767895"
"","canvas-keyboard-response","255","196697","0.0-6.0-4.35","550","","","","","clear_screen","null","null","","","critical","d","t","c","227.1683","158.0083","240","164","164","240","trueblood","0.09","w","240","164","164","240","227.1683","158.0083","39360","39360","35894.4834","dc","null","null","null","null","null","null","[1,3]","472.7457424289835","515.1448157802207","460.7783317767895"
"","canvas-keyboard-response","256","197087","0.0-6.0-5.35","550","","","","","make choice","385","1","","","critical","d","t","c","227.1683","158.0083","240","164","164","240","trueblood","0.09","w","240","164","164","240","227.1683","158.0083","39360","39360","35894.4834","dc","null","null","null","null","null","null","[1,3]","","",""
"","canvas-keyboard-response","257","197107","0.0-6.0-6.35","550","","","","","clear_screen","null","null","","","critical","d","t","c","227.1683","158.0083","240","164","164","240","trueblood","0.09","w","240","164","164","240","227.1683","158.0083","39360","39360","35894.4834","dc","null","null","null","null","null","null","[1,3]","","",""
"","canvas-keyboard-response","258","197307","0.0-6.0-0.36","550","","","","","pre trial waiting period","null","null","","","critical","d","t","c","240","164","240","164","164","240","spektor","0","w","240","164","164","240","240","164","39360","39360","39360","tc","null","null","null","null","null","null","[2,3]","516.3386654238882","185.85831815786923","500.9159309953897"
"","canvas-keyboard-response","259","197327","0.0-6.0-1.36","550","","","","","clear_screen","null","null","","","critical","d","t","c","240","164","240","164","164","240","spektor","0","w","240","164","164","240","240","164","39360","39360","39360","tc","null","null","null","null","null","null","[2,3]","516.3386654238882","185.85831815786923","500.9159309953897"
"","canvas-keyboard-response","260","197835","0.0-6.0-2.36","550","","","","","rectangles no change","null","null","","","critical","d","t","c","240","164","240","164","164","240","spektor","0","w","240","164","164","240","240","164","39360","39360","39360","tc","null","null","null","null","null","null","[2,3]","516.3386654238882","185.85831815786923","500.9159309953897"
"","canvas-keyboard-response","261","199173","0.0-6.0-3.36","550","","","","","rectangles with change","null","null","","","critical","d","t","c","240","164","240","164","164","240","spektor","0","w","240","164","164","240","240","164","39360","39360","39360","tc","null","null","null","null","null","null","[2,3]","516.3386654238882","185.85831815786923","500.9159309953897"
"","canvas-keyboard-response","262","199191","0.0-6.0-4.36","550","","","","","clear_screen","null","null","","","critical","d","t","c","240","164","240","164","164","240","spektor","0","w","240","164","164","240","240","164","39360","39360","39360","tc","null","null","null","null","null","null","[2,3]","516.3386654238882","185.85831815786923","500.9159309953897"
"","canvas-keyboard-response","263","199759","0.0-6.0-5.36","550","","","","","make choice","560","2","","","critical","d","t","c","240","164","240","164","164","240","spektor","0","w","240","164","164","240","240","164","39360","39360","39360","tc","null","null","null","null","null","null","[2,3]","","",""
"","canvas-keyboard-response","264","199776","0.0-6.0-6.36","550","","","","","clear_screen","null","null","","","critical","d","t","c","240","164","240","164","164","240","spektor","0","w","240","164","164","240","240","164","39360","39360","39360","tc","null","null","null","null","null","null","[2,3]","","",""
"","canvas-keyboard-response","265","199977","0.0-6.0-0.37","550","","","","","pre trial waiting period","null","null","","","critical","d","t","c","240","164","240","164","164","240","spektor","0","w","240","164","164","240","240","164","39360","39360","39360","dc","null","null","null","null","null","null","[1,3]","526.4233129080003","176.33237676591463","497.5850044175455"
"","canvas-keyboard-response","266","200000","0.0-6.0-1.37","550","","","","","clear_screen","null","null","","","critical","d","t","c","240","164","240","164","164","240","spektor","0","w","240","164","164","240","240","164","39360","39360","39360","dc","null","null","null","null","null","null","[1,3]","526.4233129080003","176.33237676591463","497.5850044175455"
"","canvas-keyboard-response","267","200505","0.0-6.0-2.37","550","","","","","rectangles no change","null","null","","","critical","d","t","c","240","164","240","164","164","240","spektor","0","w","240","164","164","240","240","164","39360","39360","39360","dc","null","null","null","null","null","null","[1,3]","526.4233129080003","176.33237676591463","497.5850044175455"
"","canvas-keyboard-response","268","201845","0.0-6.0-3.37","550","","","","","rectangles with change","null","null","","","critical","d","t","c","240","164","240","164","164","240","spektor","0","w","240","164","164","240","240","164","39360","39360","39360","dc","null","null","null","null","null","null","[1,3]","526.4233129080003","176.33237676591463","497.5850044175455"
