"success","trial_type","trial_index","time_elapsed","internal_node_id","sub_n","timeout","failed_images","failed_audio","failed_video","screen_id","rt","response","stimulus","view_history","trial","r1","r2","r3","w1","h1","w2","h2","w3","h3","display","tdd","tdo","tw","th","cw","ch","dw","dh","ta","ca","da","probe","csls","csss","clls","clss","sa","la","probe_rects","r1yloc","r2yloc","r3yloc"
"true","fullscreen","0","3930","0.0-0.0","531","","","","","","","","","","","","","","","","","","","","","","","","","","","","","","","","","","","","","","","","","",""
"true","preload","1","3954","0.0-1.0","531","false","[]","[]","[]","img preload","","","","","","","","","","","","","","","","","","","","","","","","","","","","","","","","","","","","",""
"","survey-html-form","2","7927","0.0-2.0","531","","","","","enter-sub-number","3958","{""response"":""531""}","","","","","","","","","","","","","","","","","","","","","","","","","","","","","","","","","","",""
"","image-button-response","3","17929","0.0-3.0","531","","","","","","9890","0","consent.png","","","","","","","","","","","","","","","","","","","","","","","","","","","","","","","","","",""
"","html-button-response","4","22922","0.0-4.0","531","","","","","intro mssg","4986","0","<div style= ""font-size:25px;"" <p> <strong> Welcome! </strong><br> <p style=""color:#8B0000; font-size:25px;""><strong> Please do NOT exit full screen until you are done with the experiment. </strong> </p><p style=""font-size:25px;color:#8B0000;""> <strong> Your data will be lost <br> if you try to go back or refresh the page after the experiment starts. Feel free to click ""previous"" during the instructions, however.</strong> </p><br><p> <strong> Thanks in advance for your contribution to our research! </strong></p>","","","","","","","","","","","","","","","","","","","","","","","","","","","","","","","","","",""
"","instructions","5","59778","0.0-5.0","531","","","","","instructions","36852","","","[{""page_index"":0,""viewing_time"":5059},{""page_index"":1,""viewing_time"":5632},{""page_index"":2,""viewing_time"":4560},{""page_index"":3,""viewing_time"":11072},{""page_index"":4,""viewing_time"":4600},{""page_index"":5,""viewing_time"":2432},{""page_index"":6,""viewing_time"":2039},{""page_index"":7,""viewing_time"":1458}]","","","","","","","","","","","","","","","","","","","","","","","","","","","","","","","","",""
"","canvas-keyboard-response","6","59982","0.0-6.0-0.0","531","","","","","pre trial waiting period","null","null","","","critical","c","t","d","240","164","164","240","158.0083","227.1683","spektor","0.09","h","164","240","240","164","158.0083","227.1683","39360","39360","35894.4834","td","null","null","null","null","null","null","[2,3]","529.7262807797714","119.94727922097073","465.89309254934204"
"","canvas-keyboard-response","7","60007","0.0-6.0-1.0","531","","","","","clear_screen","null","null","","","critical","c","t","d","240","164","164","240","158.0083","227.1683","spektor","0.09","h","164","240","240","164","158.0083","227.1683","39360","39360","35894.4834","td","null","null","null","null","null","null","[2,3]","529.7262807797714","119.94727922097073","465.89309254934204"
"","canvas-keyboard-response","8","60525","0.0-6.0-2.0","531","","","","","rectangles no change","null","null","","","critical","c","t","d","240","164","164","240","158.0083","227.1683","spektor","0.09","h","164","240","240","164","158.0083","227.1683","39360","39360","35894.4834","td","null","null","null","null","null","null","[2,3]","529.7262807797714","119.94727922097073","465.89309254934204"
"","canvas-keyboard-response","9","61863","0.0-6.0-3.0","531","","","","","rectangles with change","null","null","","","critical","c","t","d","240","164","164","240","158.0083","227.1683","spektor","0.09","h","164","240","240","164","158.0083","227.1683","39360","39360","35894.4834","td","null","null","null","null","null","null","[2,3]","529.7262807797714","119.94727922097073","465.89309254934204"
"","canvas-keyboard-response","10","61883","0.0-6.0-4.0","531","","","","","clear_screen","null","null","","","critical","c","t","d","240","164","164","240","158.0083","227.1683","spektor","0.09","h","164","240","240","164","158.0083","227.1683","39360","39360","35894.4834","td","null","null","null","null","null","null","[2,3]","529.7262807797714","119.94727922097073","465.89309254934204"
"","canvas-keyboard-response","11","64831","0.0-6.0-5.0","531","","","","","make choice","2936","2","","","critical","c","t","d","240","164","164","240","158.0083","227.1683","spektor","0.09","h","164","240","240","164","158.0083","227.1683","39360","39360","35894.4834","td","null","null","null","null","null","null","[2,3]","","",""
"","canvas-keyboard-response","12","64850","0.0-6.0-6.0","531","","","","","clear_screen","null","null","","","critical","c","t","d","240","164","164","240","158.0083","227.1683","spektor","0.09","h","164","240","240","164","158.0083","227.1683","39360","39360","35894.4834","td","null","null","null","null","null","null","[2,3]","","",""
"","canvas-keyboard-response","13","65051","0.0-6.0-0.1","531","","","","","pre trial waiting period","null","null","","","catch","l","sw","sh","221","222","217","179","203","214","spektor","null","null","null","null","null","null","null","null","null","null","null","","180","200","260","200","36000","52000","[1,3]","512.6260939595819","161.84987387375358","506.93181941048016"
"","canvas-keyboard-response","14","65071","0.0-6.0-1.1","531","","","","","clear_screen","null","null","","","catch","l","sw","sh","221","222","217","179","203","214","spektor","null","null","null","null","null","null","null","null","null","null","null","","180","200","260","200","36000","52000","[1,3]","512.6260939595819","161.84987387375358","506.93181941048016"
"","canvas-keyboard-response","15","65583","0.0-6.0-2.1","531","","","","","rectangles no change","null","null","","","catch","l","sw","sh","221","222","217","179","203","214","spektor","null","null","null","null","null","null","null","null","null","null","null","","180","200","260","200","36000","52000","[1,3]","512.6260939595819","161.84987387375358","506.93181941048016"
"","canvas-keyboard-response","16","66920","0.0-6.0-3.1","531","","","","","rectangles with change","null","null","","","catch","l","sw","sh","221","222","217","179","203","214","spektor","null","null","null","null","null","null","null","null","null","null","null","","180","200","260","200","36000","52000","[1,3]","512.6260939595819","161.84987387375358","506.93181941048016"
"","canvas-keyboard-response","17","66945","0.0-6.0-4.1","531","","","","","clear_screen","null","null","","","catch","l","sw","sh","221","222","217","179","203","214","spektor","null","null","null","null","null","null","null","null","null","null","null","","180","200","260","200","36000","52000","[1,3]","512.6260939595819","161.84987387375358","506.93181941048016"
"","canvas-keyboard-response","18","68839","0.0-6.0-5.1","531","","","","","make choice","1877","3","","","catch","l","sw","sh","221","222","217","179","203","214","spektor","null","null","null","null","null","null","null","null","null","null","null","","180","200","260","200","36000","52000","[1,3]","","",""
"","canvas-keyboard-response","19","68857","0.0-6.0-6.1","531","","","","","clear_screen","null","null","","","catch","l","sw","sh","221","222","217","179","203","214","spektor","null","null","null","null","null","null","null","null","null","null","null","","180","200","260","200","36000","52000","[1,3]","","",""
"","canvas-keyboard-response","20","69059","0.0-6.0-0.2","531","","","","","pre trial waiting period","null","null","","","critical","d","c","t","232.8713","160.6713","164","240","240","164","trueblood","0.05","w","240","164","164","240","232.8713","160.6713","39360","39360","37415.7294","dc","null","null","null","null","null","null","[1,2]","516.09452648851","460.0386760308924","502.4104762679551"
"","canvas-keyboard-response","21","69079","0.0-6.0-1.2","531","","","","","clear_screen","null","null","","","critical","d","c","t","232.8713","160.6713","164","240","240","164","trueblood","0.05","w","240","164","164","240","232.8713","160.6713","39360","39360","37415.7294","dc","null","null","null","null","null","null","[1,2]","516.09452648851","460.0386760308924","502.4104762679551"
"","canvas-keyboard-response","22","69590","0.0-6.0-2.2","531","","","","","rectangles no change","null","null","","","critical","d","c","t","232.8713","160.6713","164","240","240","164","trueblood","0.05","w","240","164","164","240","232.8713","160.6713","39360","39360","37415.7294","dc","null","null","null","null","null","null","[1,2]","516.09452648851","460.0386760308924","502.4104762679551"
"","canvas-keyboard-response","23","70925","0.0-6.0-3.2","531","","","","","rectangles with change","null","null","","","critical","d","c","t","232.8713","160.6713","164","240","240","164","trueblood","0.05","w","240","164","164","240","232.8713","160.6713","39360","39360","37415.7294","dc","null","null","null","null","null","null","[1,2]","516.09452648851","460.0386760308924","502.4104762679551"
"","canvas-keyboard-response","24","70944","0.0-6.0-4.2","531","","","","","clear_screen","null","null","","","critical","d","c","t","232.8713","160.6713","164","240","240","164","trueblood","0.05","w","240","164","164","240","232.8713","160.6713","39360","39360","37415.7294","dc","null","null","null","null","null","null","[1,2]","516.09452648851","460.0386760308924","502.4104762679551"
"","canvas-keyboard-response","25","71814","0.0-6.0-5.2","531","","","","","make choice","862","1","","","critical","d","c","t","232.8713","160.6713","164","240","240","164","trueblood","0.05","w","240","164","164","240","232.8713","160.6713","39360","39360","37415.7294","dc","null","null","null","null","null","null","[1,2]","","",""
"","canvas-keyboard-response","26","71833","0.0-6.0-6.2","531","","","","","clear_screen","null","null","","","critical","d","c","t","232.8713","160.6713","164","240","240","164","trueblood","0.05","w","240","164","164","240","232.8713","160.6713","39360","39360","37415.7294","dc","null","null","null","null","null","null","[1,2]","","",""
"","canvas-keyboard-response","27","72036","0.0-6.0-0.3","531","","","","","pre trial waiting period","null","null","","","catch","sw","sh","l","180","200","219","196","203","282","trueblood","null","null","null","null","null","null","null","null","null","null","null","","180","200","260","200","36000","52000","[1,3]","467.48702689114805","475.4371557732765","407.5417988728071"
"","canvas-keyboard-response","28","72059","0.0-6.0-1.3","531","","","","","clear_screen","null","null","","","catch","sw","sh","l","180","200","219","196","203","282","trueblood","null","null","null","null","null","null","null","null","null","null","null","","180","200","260","200","36000","52000","[1,3]","467.48702689114805","475.4371557732765","407.5417988728071"
"","canvas-keyboard-response","29","72571","0.0-6.0-2.3","531","","","","","rectangles no change","null","null","","","catch","sw","sh","l","180","200","219","196","203","282","trueblood","null","null","null","null","null","null","null","null","null","null","null","","180","200","260","200","36000","52000","[1,3]","467.48702689114805","475.4371557732765","407.5417988728071"
"","canvas-keyboard-response","30","73907","0.0-6.0-3.3","531","","","","","rectangles with change","null","null","","","catch","sw","sh","l","180","200","219","196","203","282","trueblood","null","null","null","null","null","null","null","null","null","null","null","","180","200","260","200","36000","52000","[1,3]","467.48702689114805","475.4371557732765","407.5417988728071"
"","canvas-keyboard-response","31","73927","0.0-6.0-4.3","531","","","","","clear_screen","null","null","","","catch","sw","sh","l","180","200","219","196","203","282","trueblood","null","null","null","null","null","null","null","null","null","null","null","","180","200","260","200","36000","52000","[1,3]","467.48702689114805","475.4371557732765","407.5417988728071"
"","canvas-keyboard-response","32","74231","0.0-6.0-5.3","531","","","","","make choice","296","3","","","catch","sw","sh","l","180","200","219","196","203","282","trueblood","null","null","null","null","null","null","null","null","null","null","null","","180","200","260","200","36000","52000","[1,3]","","",""
"","canvas-keyboard-response","33","74250","0.0-6.0-6.3","531","","","","","clear_screen","null","null","","","catch","sw","sh","l","180","200","219","196","203","282","trueblood","null","null","null","null","null","null","null","null","null","null","null","","180","200","260","200","36000","52000","[1,3]","","",""
"","canvas-keyboard-response","34","74455","0.0-6.0-0.4","531","","","","","pre trial waiting period","null","null","","","critical","d","c","t","232.8713","160.6713","164","240","240","164","trueblood","0.05","w","240","164","164","240","232.8713","160.6713","39360","39360","37415.7294","td","null","null","null","null","null","null","[3,1]","499.20092516349035","428.81431395743044","517.24979426102"
"","canvas-keyboard-response","35","74477","0.0-6.0-1.4","531","","","","","clear_screen","null","null","","","critical","d","c","t","232.8713","160.6713","164","240","240","164","trueblood","0.05","w","240","164","164","240","232.8713","160.6713","39360","39360","37415.7294","td","null","null","null","null","null","null","[3,1]","499.20092516349035","428.81431395743044","517.24979426102"
"","canvas-keyboard-response","36","74987","0.0-6.0-2.4","531","","","","","rectangles no change","null","null","","","critical","d","c","t","232.8713","160.6713","164","240","240","164","trueblood","0.05","w","240","164","164","240","232.8713","160.6713","39360","39360","37415.7294","td","null","null","null","null","null","null","[3,1]","499.20092516349035","428.81431395743044","517.24979426102"
"","canvas-keyboard-response","37","76322","0.0-6.0-3.4","531","","","","","rectangles with change","null","null","","","critical","d","c","t","232.8713","160.6713","164","240","240","164","trueblood","0.05","w","240","164","164","240","232.8713","160.6713","39360","39360","37415.7294","td","null","null","null","null","null","null","[3,1]","499.20092516349035","428.81431395743044","517.24979426102"
"","canvas-keyboard-response","38","76342","0.0-6.0-4.4","531","","","","","clear_screen","null","null","","","critical","d","c","t","232.8713","160.6713","164","240","240","164","trueblood","0.05","w","240","164","164","240","232.8713","160.6713","39360","39360","37415.7294","td","null","null","null","null","null","null","[3,1]","499.20092516349035","428.81431395743044","517.24979426102"
"","canvas-keyboard-response","39","77006","0.0-6.0-5.4","531","","","","","make choice","653","1","","","critical","d","c","t","232.8713","160.6713","164","240","240","164","trueblood","0.05","w","240","164","164","240","232.8713","160.6713","39360","39360","37415.7294","td","null","null","null","null","null","null","[3,1]","","",""
"","canvas-keyboard-response","40","77026","0.0-6.0-6.4","531","","","","","clear_screen","null","null","","","critical","d","c","t","232.8713","160.6713","164","240","240","164","trueblood","0.05","w","240","164","164","240","232.8713","160.6713","39360","39360","37415.7294","td","null","null","null","null","null","null","[3,1]","","",""
"","canvas-keyboard-response","41","77227","0.0-6.0-0.5","531","","","","","pre trial waiting period","null","null","","","catch","sh","sw","l","161","161","215","201","276","231","trueblood","null","null","null","null","null","null","null","null","null","null","null","","180","200","260","200","36000","52000","[1,3]","478.79004099061456","444.8321744169114","449.8288583681081"
"","canvas-keyboard-response","42","77247","0.0-6.0-1.5","531","","","","","clear_screen","null","null","","","catch","sh","sw","l","161","161","215","201","276","231","trueblood","null","null","null","null","null","null","null","null","null","null","null","","180","200","260","200","36000","52000","[1,3]","478.79004099061456","444.8321744169114","449.8288583681081"
"","canvas-keyboard-response","43","77761","0.0-6.0-2.5","531","","","","","rectangles no change","null","null","","","catch","sh","sw","l","161","161","215","201","276","231","trueblood","null","null","null","null","null","null","null","null","null","null","null","","180","200","260","200","36000","52000","[1,3]","478.79004099061456","444.8321744169114","449.8288583681081"
"","canvas-keyboard-response","44","79097","0.0-6.0-3.5","531","","","","","rectangles with change","null","null","","","catch","sh","sw","l","161","161","215","201","276","231","trueblood","null","null","null","null","null","null","null","null","null","null","null","","180","200","260","200","36000","52000","[1,3]","478.79004099061456","444.8321744169114","449.8288583681081"
"","canvas-keyboard-response","45","79115","0.0-6.0-4.5","531","","","","","clear_screen","null","null","","","catch","sh","sw","l","161","161","215","201","276","231","trueblood","null","null","null","null","null","null","null","null","null","null","null","","180","200","260","200","36000","52000","[1,3]","478.79004099061456","444.8321744169114","449.8288583681081"
"","canvas-keyboard-response","46","79398","0.0-6.0-5.5","531","","","","","make choice","275","3","","","catch","sh","sw","l","161","161","215","201","276","231","trueblood","null","null","null","null","null","null","null","null","null","null","null","","180","200","260","200","36000","52000","[1,3]","","",""
"","canvas-keyboard-response","47","79418","0.0-6.0-6.5","531","","","","","clear_screen","null","null","","","catch","sh","sw","l","161","161","215","201","276","231","trueblood","null","null","null","null","null","null","null","null","null","null","null","","180","200","260","200","36000","52000","[1,3]","","",""
"","canvas-keyboard-response","48","79619","0.0-6.0-0.6","531","","","","","pre trial waiting period","null","null","","","critical","t","c","d","240","164","164","240","220.0396","154.6796","spektor","0.14","w","240","164","164","240","220.0396","154.6796","39360","39360","34035.6388","td","null","null","null","null","null","null","[1,3]","519.1259569941934","149.47556107057977","540.9680533892033"
"","canvas-keyboard-response","49","79640","0.0-6.0-1.6","531","","","","","clear_screen","null","null","","","critical","t","c","d","240","164","164","240","220.0396","154.6796","spektor","0.14","w","240","164","164","240","220.0396","154.6796","39360","39360","34035.6388","td","null","null","null","null","null","null","[1,3]","519.1259569941934","149.47556107057977","540.9680533892033"
"","canvas-keyboard-response","50","80152","0.0-6.0-2.6","531","","","","","rectangles no change","null","null","","","critical","t","c","d","240","164","164","240","220.0396","154.6796","spektor","0.14","w","240","164","164","240","220.0396","154.6796","39360","39360","34035.6388","td","null","null","null","null","null","null","[1,3]","519.1259569941934","149.47556107057977","540.9680533892033"
"","canvas-keyboard-response","51","81487","0.0-6.0-3.6","531","","","","","rectangles with change","null","null","","","critical","t","c","d","240","164","164","240","220.0396","154.6796","spektor","0.14","w","240","164","164","240","220.0396","154.6796","39360","39360","34035.6388","td","null","null","null","null","null","null","[1,3]","519.1259569941934","149.47556107057977","540.9680533892033"
"","canvas-keyboard-response","52","81506","0.0-6.0-4.6","531","","","","","clear_screen","null","null","","","critical","t","c","d","240","164","164","240","220.0396","154.6796","spektor","0.14","w","240","164","164","240","220.0396","154.6796","39360","39360","34035.6388","td","null","null","null","null","null","null","[1,3]","519.1259569941934","149.47556107057977","540.9680533892033"
"","canvas-keyboard-response","53","81775","0.0-6.0-5.6","531","","","","","make choice","263","1","","","critical","t","c","d","240","164","164","240","220.0396","154.6796","spektor","0.14","w","240","164","164","240","220.0396","154.6796","39360","39360","34035.6388","td","null","null","null","null","null","null","[1,3]","","",""
"","canvas-keyboard-response","54","81794","0.0-6.0-6.6","531","","","","","clear_screen","null","null","","","critical","t","c","d","240","164","164","240","220.0396","154.6796","spektor","0.14","w","240","164","164","240","220.0396","154.6796","39360","39360","34035.6388","td","null","null","null","null","null","null","[1,3]","","",""
"","canvas-keyboard-response","55","81995","0.0-6.0-0.7","531","","","","","pre trial waiting period","null","null","","","critical","d","c","t","220.0396","154.6796","164","240","240","164","spektor","0.14","w","240","164","164","240","220.0396","154.6796","39360","39360","34035.6388","dc","null","null","null","null","null","null","[1,2]","529.5987765878633","137.1155833825193","533.6798599836158"
"","canvas-keyboard-response","56","82015","0.0-6.0-1.7","531","","","","","clear_screen","null","null","","","critical","d","c","t","220.0396","154.6796","164","240","240","164","spektor","0.14","w","240","164","164","240","220.0396","154.6796","39360","39360","34035.6388","dc","null","null","null","null","null","null","[1,2]","529.5987765878633","137.1155833825193","533.6798599836158"
"","canvas-keyboard-response","57","82529","0.0-6.0-2.7","531","","","","","rectangles no change","null","null","","","critical","d","c","t","220.0396","154.6796","164","240","240","164","spektor","0.14","w","240","164","164","240","220.0396","154.6796","39360","39360","34035.6388","dc","null","null","null","null","null","null","[1,2]","529.5987765878633","137.1155833825193","533.6798599836158"
"","canvas-keyboard-response","58","83865","0.0-6.0-3.7","531","","","","","rectangles with change","null","null","","","critical","d","c","t","220.0396","154.6796","164","240","240","164","spektor","0.14","w","240","164","164","240","220.0396","154.6796","39360","39360","34035.6388","dc","null","null","null","null","null","null","[1,2]","529.5987765878633","137.1155833825193","533.6798599836158"
"","canvas-keyboard-response","59","83887","0.0-6.0-4.7","531","","","","","clear_screen","null","null","","","critical","d","c","t","220.0396","154.6796","164","240","240","164","spektor","0.14","w","240","164","164","240","220.0396","154.6796","39360","39360","34035.6388","dc","null","null","null","null","null","null","[1,2]","529.5987765878633","137.1155833825193","533.6798599836158"
"","canvas-keyboard-response","60","84559","0.0-6.0-5.7","531","","","","","make choice","663","1","","","critical","d","c","t","220.0396","154.6796","164","240","240","164","spektor","0.14","w","240","164","164","240","220.0396","154.6796","39360","39360","34035.6388","dc","null","null","null","null","null","null","[1,2]","","",""
"","canvas-keyboard-response","61","84577","0.0-6.0-6.7","531","","","","","clear_screen","null","null","","","critical","d","c","t","220.0396","154.6796","164","240","240","164","spektor","0.14","w","240","164","164","240","220.0396","154.6796","39360","39360","34035.6388","dc","null","null","null","null","null","null","[1,2]","","",""
"","canvas-keyboard-response","62","84778","0.0-6.0-0.8","531","","","","","pre trial waiting period","null","null","","","catch","sw","l","sh","180","200","164","228","183","153","spektor","null","null","null","null","null","null","null","null","null","null","null","","180","200","260","200","36000","52000","[1,2]","507.3650253342189","142.01374498240475","500.897722385093"
"","canvas-keyboard-response","63","84799","0.0-6.0-1.8","531","","","","","clear_screen","null","null","","","catch","sw","l","sh","180","200","164","228","183","153","spektor","null","null","null","null","null","null","null","null","null","null","null","","180","200","260","200","36000","52000","[1,2]","507.3650253342189","142.01374498240475","500.897722385093"
"","canvas-keyboard-response","64","85314","0.0-6.0-2.8","531","","","","","rectangles no change","null","null","","","catch","sw","l","sh","180","200","164","228","183","153","spektor","null","null","null","null","null","null","null","null","null","null","null","","180","200","260","200","36000","52000","[1,2]","507.3650253342189","142.01374498240475","500.897722385093"
"","canvas-keyboard-response","65","86649","0.0-6.0-3.8","531","","","","","rectangles with change","null","null","","","catch","sw","l","sh","180","200","164","228","183","153","spektor","null","null","null","null","null","null","null","null","null","null","null","","180","200","260","200","36000","52000","[1,2]","507.3650253342189","142.01374498240475","500.897722385093"
"","canvas-keyboard-response","66","86668","0.0-6.0-4.8","531","","","","","clear_screen","null","null","","","catch","sw","l","sh","180","200","164","228","183","153","spektor","null","null","null","null","null","null","null","null","null","null","null","","180","200","260","200","36000","52000","[1,2]","507.3650253342189","142.01374498240475","500.897722385093"
"","canvas-keyboard-response","67","87142","0.0-6.0-5.8","531","","","","","make choice","466","1","","","catch","sw","l","sh","180","200","164","228","183","153","spektor","null","null","null","null","null","null","null","null","null","null","null","","180","200","260","200","36000","52000","[1,2]","","",""
"","canvas-keyboard-response","68","87160","0.0-6.0-6.8","531","","","","","clear_screen","null","null","","","catch","sw","l","sh","180","200","164","228","183","153","spektor","null","null","null","null","null","null","null","null","null","null","null","","180","200","260","200","36000","52000","[1,2]","","",""
"","canvas-keyboard-response","69","87362","0.0-6.0-0.9","531","","","","","pre trial waiting period","null","null","","","catch","sw","l","sh","180","200","237","263","178","185","spektor","null","null","null","null","null","null","null","null","null","null","null","","180","200","260","200","36000","52000","[1,2]","506.16714841560815","111.61988828709266","499.8668641078087"
"","canvas-keyboard-response","70","87381","0.0-6.0-1.9","531","","","","","clear_screen","null","null","","","catch","sw","l","sh","180","200","237","263","178","185","spektor","null","null","null","null","null","null","null","null","null","null","null","","180","200","260","200","36000","52000","[1,2]","506.16714841560815","111.61988828709266","499.8668641078087"
"","canvas-keyboard-response","71","87895","0.0-6.0-2.9","531","","","","","rectangles no change","null","null","","","catch","sw","l","sh","180","200","237","263","178","185","spektor","null","null","null","null","null","null","null","null","null","null","null","","180","200","260","200","36000","52000","[1,2]","506.16714841560815","111.61988828709266","499.8668641078087"
"","canvas-keyboard-response","72","89233","0.0-6.0-3.9","531","","","","","rectangles with change","null","null","","","catch","sw","l","sh","180","200","237","263","178","185","spektor","null","null","null","null","null","null","null","null","null","null","null","","180","200","260","200","36000","52000","[1,2]","506.16714841560815","111.61988828709266","499.8668641078087"
"","canvas-keyboard-response","73","89252","0.0-6.0-4.9","531","","","","","clear_screen","null","null","","","catch","sw","l","sh","180","200","237","263","178","185","spektor","null","null","null","null","null","null","null","null","null","null","null","","180","200","260","200","36000","52000","[1,2]","506.16714841560815","111.61988828709266","499.8668641078087"
"","canvas-keyboard-response","74","89519","0.0-6.0-5.9","531","","","","","make choice","259","2","","","catch","sw","l","sh","180","200","237","263","178","185","spektor","null","null","null","null","null","null","null","null","null","null","null","","180","200","260","200","36000","52000","[1,2]","","",""
"","canvas-keyboard-response","75","89537","0.0-6.0-6.9","531","","","","","clear_screen","null","null","","","catch","sw","l","sh","180","200","237","263","178","185","spektor","null","null","null","null","null","null","null","null","null","null","null","","180","200","260","200","36000","52000","[1,2]","","",""
"","canvas-keyboard-response","76","89739","0.0-6.0-0.10","531","","","","","pre trial waiting period","null","null","","","catch","sw","l","sh","180","200","298","187","208","181","trueblood","null","null","null","null","null","null","null","null","null","null","null","","180","200","260","200","36000","52000","[1,2]","448.55942602421123","482.30255220102845","501.4304951194283"
"","canvas-keyboard-response","77","89759","0.0-6.0-1.10","531","","","","","clear_screen","null","null","","","catch","sw","l","sh","180","200","298","187","208","181","trueblood","null","null","null","null","null","null","null","null","null","null","null","","180","200","260","200","36000","52000","[1,2]","448.55942602421123","482.30255220102845","501.4304951194283"
"","canvas-keyboard-response","78","90269","0.0-6.0-2.10","531","","","","","rectangles no change","null","null","","","catch","sw","l","sh","180","200","298","187","208","181","trueblood","null","null","null","null","null","null","null","null","null","null","null","","180","200","260","200","36000","52000","[1,2]","448.55942602421123","482.30255220102845","501.4304951194283"
"","canvas-keyboard-response","79","91605","0.0-6.0-3.10","531","","","","","rectangles with change","null","null","","","catch","sw","l","sh","180","200","298","187","208","181","trueblood","null","null","null","null","null","null","null","null","null","null","null","","180","200","260","200","36000","52000","[1,2]","448.55942602421123","482.30255220102845","501.4304951194283"
"","canvas-keyboard-response","80","91624","0.0-6.0-4.10","531","","","","","clear_screen","null","null","","","catch","sw","l","sh","180","200","298","187","208","181","trueblood","null","null","null","null","null","null","null","null","null","null","null","","180","200","260","200","36000","52000","[1,2]","448.55942602421123","482.30255220102845","501.4304951194283"
"","canvas-keyboard-response","81","92071","0.0-6.0-5.10","531","","","","","make choice","438","2","","","catch","sw","l","sh","180","200","298","187","208","181","trueblood","null","null","null","null","null","null","null","null","null","null","null","","180","200","260","200","36000","52000","[1,2]","","",""
"","canvas-keyboard-response","82","92089","0.0-6.0-6.10","531","","","","","clear_screen","null","null","","","catch","sw","l","sh","180","200","298","187","208","181","trueblood","null","null","null","null","null","null","null","null","null","null","null","","180","200","260","200","36000","52000","[1,2]","","",""
"","canvas-keyboard-response","83","92290","0.0-6.0-0.11","531","","","","","pre trial waiting period","null","null","","","critical","d","t","c","232.8713","160.6713","240","164","164","240","spektor","0.05","w","240","164","164","240","232.8713","160.6713","39360","39360","37415.7294","dc","null","null","null","null","null","null","[1,3]","504.3797375352723","177.12346200263738","472.7679014543142"
"","canvas-keyboard-response","84","92309","0.0-6.0-1.11","531","","","","","clear_screen","null","null","","","critical","d","t","c","232.8713","160.6713","240","164","164","240","spektor","0.05","w","240","164","164","240","232.8713","160.6713","39360","39360","37415.7294","dc","null","null","null","null","null","null","[1,3]","504.3797375352723","177.12346200263738","472.7679014543142"
"","canvas-keyboard-response","85","92823","0.0-6.0-2.11","531","","","","","rectangles no change","null","null","","","critical","d","t","c","232.8713","160.6713","240","164","164","240","spektor","0.05","w","240","164","164","240","232.8713","160.6713","39360","39360","37415.7294","dc","null","null","null","null","null","null","[1,3]","504.3797375352723","177.12346200263738","472.7679014543142"
"","canvas-keyboard-response","86","94159","0.0-6.0-3.11","531","","","","","rectangles with change","null","null","","","critical","d","t","c","232.8713","160.6713","240","164","164","240","spektor","0.05","w","240","164","164","240","232.8713","160.6713","39360","39360","37415.7294","dc","null","null","null","null","null","null","[1,3]","504.3797375352723","177.12346200263738","472.7679014543142"
"","canvas-keyboard-response","87","94176","0.0-6.0-4.11","531","","","","","clear_screen","null","null","","","critical","d","t","c","232.8713","160.6713","240","164","164","240","spektor","0.05","w","240","164","164","240","232.8713","160.6713","39360","39360","37415.7294","dc","null","null","null","null","null","null","[1,3]","504.3797375352723","177.12346200263738","472.7679014543142"
"","canvas-keyboard-response","88","94918","0.0-6.0-5.11","531","","","","","make choice","730","3","","","critical","d","t","c","232.8713","160.6713","240","164","164","240","spektor","0.05","w","240","164","164","240","232.8713","160.6713","39360","39360","37415.7294","dc","null","null","null","null","null","null","[1,3]","","",""
"","canvas-keyboard-response","89","94937","0.0-6.0-6.11","531","","","","","clear_screen","null","null","","","critical","d","t","c","232.8713","160.6713","240","164","164","240","spektor","0.05","w","240","164","164","240","232.8713","160.6713","39360","39360","37415.7294","dc","null","null","null","null","null","null","[1,3]","","",""
"","canvas-keyboard-response","90","95139","0.0-6.0-0.12","531","","","","","pre trial waiting period","null","null","","","catch","l","sh","sw","223","249","160","210","153","216","trueblood","null","null","null","null","null","null","null","null","null","null","null","","180","200","260","200","36000","52000","[1,2]","462.0742333246047","467.39600398441604","466.6441015239509"
"","canvas-keyboard-response","91","95157","0.0-6.0-1.12","531","","","","","clear_screen","null","null","","","catch","l","sh","sw","223","249","160","210","153","216","trueblood","null","null","null","null","null","null","null","null","null","null","null","","180","200","260","200","36000","52000","[1,2]","462.0742333246047","467.39600398441604","466.6441015239509"
"","canvas-keyboard-response","92","95669","0.0-6.0-2.12","531","","","","","rectangles no change","null","null","","","catch","l","sh","sw","223","249","160","210","153","216","trueblood","null","null","null","null","null","null","null","null","null","null","null","","180","200","260","200","36000","52000","[1,2]","462.0742333246047","467.39600398441604","466.6441015239509"
"","canvas-keyboard-response","93","97003","0.0-6.0-3.12","531","","","","","rectangles with change","null","null","","","catch","l","sh","sw","223","249","160","210","153","216","trueblood","null","null","null","null","null","null","null","null","null","null","null","","180","200","260","200","36000","52000","[1,2]","462.0742333246047","467.39600398441604","466.6441015239509"
"","canvas-keyboard-response","94","97023","0.0-6.0-4.12","531","","","","","clear_screen","null","null","","","catch","l","sh","sw","223","249","160","210","153","216","trueblood","null","null","null","null","null","null","null","null","null","null","null","","180","200","260","200","36000","52000","[1,2]","462.0742333246047","467.39600398441604","466.6441015239509"
"","canvas-keyboard-response","95","97374","0.0-6.0-5.12","531","","","","","make choice","344","1","","","catch","l","sh","sw","223","249","160","210","153","216","trueblood","null","null","null","null","null","null","null","null","null","null","null","","180","200","260","200","36000","52000","[1,2]","","",""
"","canvas-keyboard-response","96","97392","0.0-6.0-6.12","531","","","","","clear_screen","null","null","","","catch","l","sh","sw","223","249","160","210","153","216","trueblood","null","null","null","null","null","null","null","null","null","null","null","","180","200","260","200","36000","52000","[1,2]","","",""
"","canvas-keyboard-response","97","97593","0.0-6.0-0.13","531","","","","","pre trial waiting period","null","null","","","catch","l","sh","sw","230","220","168","215","147","214","trueblood","null","null","null","null","null","null","null","null","null","null","null","","180","200","260","200","36000","52000","[1,3]","437.75830424219464","454.81710597870835","479.8655729972904"
"","canvas-keyboard-response","98","97611","0.0-6.0-1.13","531","","","","","clear_screen","null","null","","","catch","l","sh","sw","230","220","168","215","147","214","trueblood","null","null","null","null","null","null","null","null","null","null","null","","180","200","260","200","36000","52000","[1,3]","437.75830424219464","454.81710597870835","479.8655729972904"
"","canvas-keyboard-response","99","98121","0.0-6.0-2.13","531","","","","","rectangles no change","null","null","","","catch","l","sh","sw","230","220","168","215","147","214","trueblood","null","null","null","null","null","null","null","null","null","null","null","","180","200","260","200","36000","52000","[1,3]","437.75830424219464","454.81710597870835","479.8655729972904"
"","canvas-keyboard-response","100","99456","0.0-6.0-3.13","531","","","","","rectangles with change","null","null","","","catch","l","sh","sw","230","220","168","215","147","214","trueblood","null","null","null","null","null","null","null","null","null","null","null","","180","200","260","200","36000","52000","[1,3]","437.75830424219464","454.81710597870835","479.8655729972904"
"","canvas-keyboard-response","101","99474","0.0-6.0-4.13","531","","","","","clear_screen","null","null","","","catch","l","sh","sw","230","220","168","215","147","214","trueblood","null","null","null","null","null","null","null","null","null","null","null","","180","200","260","200","36000","52000","[1,3]","437.75830424219464","454.81710597870835","479.8655729972904"
"","canvas-keyboard-response","102","99781","0.0-6.0-5.13","531","","","","","make choice","301","1","","","catch","l","sh","sw","230","220","168","215","147","214","trueblood","null","null","null","null","null","null","null","null","null","null","null","","180","200","260","200","36000","52000","[1,3]","","",""
"","canvas-keyboard-response","103","99801","0.0-6.0-6.13","531","","","","","clear_screen","null","null","","","catch","l","sh","sw","230","220","168","215","147","214","trueblood","null","null","null","null","null","null","null","null","null","null","null","","180","200","260","200","36000","52000","[1,3]","","",""
"","canvas-keyboard-response","104","100002","0.0-6.0-0.14","531","","","","","pre trial waiting period","null","null","","","critical","c","d","t","240","164","164","240","164","240","trueblood","0","h","164","240","240","164","164","240","39360","39360","39360","tc","null","null","null","null","null","null","[3,1]","496.18576304033365","436.74722180007984","429.1133131353902"
"","canvas-keyboard-response","105","100020","0.0-6.0-1.14","531","","","","","clear_screen","null","null","","","critical","c","d","t","240","164","164","240","164","240","trueblood","0","h","164","240","240","164","164","240","39360","39360","39360","tc","null","null","null","null","null","null","[3,1]","496.18576304033365","436.74722180007984","429.1133131353902"
"","canvas-keyboard-response","106","100530","0.0-6.0-2.14","531","","","","","rectangles no change","null","null","","","critical","c","d","t","240","164","164","240","164","240","trueblood","0","h","164","240","240","164","164","240","39360","39360","39360","tc","null","null","null","null","null","null","[3,1]","496.18576304033365","436.74722180007984","429.1133131353902"
"","canvas-keyboard-response","107","101865","0.0-6.0-3.14","531","","","","","rectangles with change","null","null","","","critical","c","d","t","240","164","164","240","164","240","trueblood","0","h","164","240","240","164","164","240","39360","39360","39360","tc","null","null","null","null","null","null","[3,1]","496.18576304033365","436.74722180007984","429.1133131353902"
"","canvas-keyboard-response","108","101884","0.0-6.0-4.14","531","","","","","clear_screen","null","null","","","critical","c","d","t","240","164","164","240","164","240","trueblood","0","h","164","240","240","164","164","240","39360","39360","39360","tc","null","null","null","null","null","null","[3,1]","496.18576304033365","436.74722180007984","429.1133131353902"
"","canvas-keyboard-response","109","102229","0.0-6.0-5.14","531","","","","","make choice","337","1","","","critical","c","d","t","240","164","164","240","164","240","trueblood","0","h","164","240","240","164","164","240","39360","39360","39360","tc","null","null","null","null","null","null","[3,1]","","",""
"","canvas-keyboard-response","110","102249","0.0-6.0-6.14","531","","","","","clear_screen","null","null","","","critical","c","d","t","240","164","164","240","164","240","trueblood","0","h","164","240","240","164","164","240","39360","39360","39360","tc","null","null","null","null","null","null","[3,1]","","",""
"","canvas-keyboard-response","111","102449","0.0-6.0-0.15","531","","","","","pre trial waiting period","null","null","","","critical","t","d","c","240","164","237.1485","162.6685","164","240","spektor","0.02","w","240","164","164","240","237.1485","162.6685","39360","39360","38576.5967","tc","null","null","null","null","null","null","[1,3]","500.4589299319949","207.8340273052384","491.115564275551"
"","canvas-keyboard-response","112","102469","0.0-6.0-1.15","531","","","","","clear_screen","null","null","","","critical","t","d","c","240","164","237.1485","162.6685","164","240","spektor","0.02","w","240","164","164","240","237.1485","162.6685","39360","39360","38576.5967","tc","null","null","null","null","null","null","[1,3]","500.4589299319949","207.8340273052384","491.115564275551"
"","canvas-keyboard-response","113","102985","0.0-6.0-2.15","531","","","","","rectangles no change","null","null","","","critical","t","d","c","240","164","237.1485","162.6685","164","240","spektor","0.02","w","240","164","164","240","237.1485","162.6685","39360","39360","38576.5967","tc","null","null","null","null","null","null","[1,3]","500.4589299319949","207.8340273052384","491.115564275551"
"","canvas-keyboard-response","114","104321","0.0-6.0-3.15","531","","","","","rectangles with change","null","null","","","critical","t","d","c","240","164","237.1485","162.6685","164","240","spektor","0.02","w","240","164","164","240","237.1485","162.6685","39360","39360","38576.5967","tc","null","null","null","null","null","null","[1,3]","500.4589299319949","207.8340273052384","491.115564275551"
"","canvas-keyboard-response","115","104340","0.0-6.0-4.15","531","","","","","clear_screen","null","null","","","critical","t","d","c","240","164","237.1485","162.6685","164","240","spektor","0.02","w","240","164","164","240","237.1485","162.6685","39360","39360","38576.5967","tc","null","null","null","null","null","null","[1,3]","500.4589299319949","207.8340273052384","491.115564275551"
"","canvas-keyboard-response","116","104654","0.0-6.0-5.15","531","","","","","make choice","308","3","","","critical","t","d","c","240","164","237.1485","162.6685","164","240","spektor","0.02","w","240","164","164","240","237.1485","162.6685","39360","39360","38576.5967","tc","null","null","null","null","null","null","[1,3]","","",""
"","canvas-keyboard-response","117","104672","0.0-6.0-6.15","531","","","","","clear_screen","null","null","","","critical","t","d","c","240","164","237.1485","162.6685","164","240","spektor","0.02","w","240","164","164","240","237.1485","162.6685","39360","39360","38576.5967","tc","null","null","null","null","null","null","[1,3]","","",""
"","canvas-keyboard-response","118","104873","0.0-6.0-0.16","531","","","","","pre trial waiting period","null","null","","","critical","t","d","c","164","240","162.6685","237.1485","240","164","spektor","0.02","h","164","240","240","164","162.6685","237.1485","39360","39360","38576.5967","tc","null","null","null","null","null","null","[1,3]","466.9625657115652","94.66039753259699","519.3860492694675"
"","canvas-keyboard-response","119","104892","0.0-6.0-1.16","531","","","","","clear_screen","null","null","","","critical","t","d","c","164","240","162.6685","237.1485","240","164","spektor","0.02","h","164","240","240","164","162.6685","237.1485","39360","39360","38576.5967","tc","null","null","null","null","null","null","[1,3]","466.9625657115652","94.66039753259699","519.3860492694675"
"","canvas-keyboard-response","120","105404","0.0-6.0-2.16","531","","","","","rectangles no change","null","null","","","critical","t","d","c","164","240","162.6685","237.1485","240","164","spektor","0.02","h","164","240","240","164","162.6685","237.1485","39360","39360","38576.5967","tc","null","null","null","null","null","null","[1,3]","466.9625657115652","94.66039753259699","519.3860492694675"
"","canvas-keyboard-response","121","106740","0.0-6.0-3.16","531","","","","","rectangles with change","null","null","","","critical","t","d","c","164","240","162.6685","237.1485","240","164","spektor","0.02","h","164","240","240","164","162.6685","237.1485","39360","39360","38576.5967","tc","null","null","null","null","null","null","[1,3]","466.9625657115652","94.66039753259699","519.3860492694675"
"","canvas-keyboard-response","122","106758","0.0-6.0-4.16","531","","","","","clear_screen","null","null","","","critical","t","d","c","164","240","162.6685","237.1485","240","164","spektor","0.02","h","164","240","240","164","162.6685","237.1485","39360","39360","38576.5967","tc","null","null","null","null","null","null","[1,3]","466.9625657115652","94.66039753259699","519.3860492694675"
"","canvas-keyboard-response","123","107142","0.0-6.0-5.16","531","","","","","make choice","378","3","","","critical","t","d","c","164","240","162.6685","237.1485","240","164","spektor","0.02","h","164","240","240","164","162.6685","237.1485","39360","39360","38576.5967","tc","null","null","null","null","null","null","[1,3]","","",""
"","canvas-keyboard-response","124","107160","0.0-6.0-6.16","531","","","","","clear_screen","null","null","","","critical","t","d","c","164","240","162.6685","237.1485","240","164","spektor","0.02","h","164","240","240","164","162.6685","237.1485","39360","39360","38576.5967","tc","null","null","null","null","null","null","[1,3]","","",""
"","canvas-keyboard-response","125","107361","0.0-6.0-0.17","531","","","","","pre trial waiting period","null","null","","","critical","t","c","d","240","164","164","240","240","164","trueblood","0","w","240","164","164","240","240","164","39360","39360","39360","td","null","null","null","null","null","null","[1,3]","474.40221183530315","444.3272138430772","496.57698029572646"
"","canvas-keyboard-response","126","107381","0.0-6.0-1.17","531","","","","","clear_screen","null","null","","","critical","t","c","d","240","164","164","240","240","164","trueblood","0","w","240","164","164","240","240","164","39360","39360","39360","td","null","null","null","null","null","null","[1,3]","474.40221183530315","444.3272138430772","496.57698029572646"
"","canvas-keyboard-response","127","107894","0.0-6.0-2.17","531","","","","","rectangles no change","null","null","","","critical","t","c","d","240","164","164","240","240","164","trueblood","0","w","240","164","164","240","240","164","39360","39360","39360","td","null","null","null","null","null","null","[1,3]","474.40221183530315","444.3272138430772","496.57698029572646"
"","canvas-keyboard-response","128","109229","0.0-6.0-3.17","531","","","","","rectangles with change","null","null","","","critical","t","c","d","240","164","164","240","240","164","trueblood","0","w","240","164","164","240","240","164","39360","39360","39360","td","null","null","null","null","null","null","[1,3]","474.40221183530315","444.3272138430772","496.57698029572646"
"","canvas-keyboard-response","129","109248","0.0-6.0-4.17","531","","","","","clear_screen","null","null","","","critical","t","c","d","240","164","164","240","240","164","trueblood","0","w","240","164","164","240","240","164","39360","39360","39360","td","null","null","null","null","null","null","[1,3]","474.40221183530315","444.3272138430772","496.57698029572646"
"","canvas-keyboard-response","130","109662","0.0-6.0-5.17","531","","","","","make choice","408","3","","","critical","t","c","d","240","164","164","240","240","164","trueblood","0","w","240","164","164","240","240","164","39360","39360","39360","td","null","null","null","null","null","null","[1,3]","","",""
"","canvas-keyboard-response","131","109680","0.0-6.0-6.17","531","","","","","clear_screen","null","null","","","critical","t","c","d","240","164","164","240","240","164","trueblood","0","w","240","164","164","240","240","164","39360","39360","39360","td","null","null","null","null","null","null","[1,3]","","",""
"","canvas-keyboard-response","132","109882","0.0-6.0-0.18","531","","","","","pre trial waiting period","null","null","","","critical","t","c","d","164","240","240","164","158.0083","227.1683","spektor","0.09","h","164","240","240","164","158.0083","227.1683","39360","39360","35894.4834","dc","null","null","null","null","null","null","[3,2]","456.7820700646349","160.78026227067505","481.54617017970844"
"","canvas-keyboard-response","133","109902","0.0-6.0-1.18","531","","","","","clear_screen","null","null","","","critical","t","c","d","164","240","240","164","158.0083","227.1683","spektor","0.09","h","164","240","240","164","158.0083","227.1683","39360","39360","35894.4834","dc","null","null","null","null","null","null","[3,2]","456.7820700646349","160.78026227067505","481.54617017970844"
"","canvas-keyboard-response","134","110413","0.0-6.0-2.18","531","","","","","rectangles no change","null","null","","","critical","t","c","d","164","240","240","164","158.0083","227.1683","spektor","0.09","h","164","240","240","164","158.0083","227.1683","39360","39360","35894.4834","dc","null","null","null","null","null","null","[3,2]","456.7820700646349","160.78026227067505","481.54617017970844"
"","canvas-keyboard-response","135","111748","0.0-6.0-3.18","531","","","","","rectangles with change","null","null","","","critical","t","c","d","164","240","240","164","158.0083","227.1683","spektor","0.09","h","164","240","240","164","158.0083","227.1683","39360","39360","35894.4834","dc","null","null","null","null","null","null","[3,2]","456.7820700646349","160.78026227067505","481.54617017970844"
"","canvas-keyboard-response","136","111767","0.0-6.0-4.18","531","","","","","clear_screen","null","null","","","critical","t","c","d","164","240","240","164","158.0083","227.1683","spektor","0.09","h","164","240","240","164","158.0083","227.1683","39360","39360","35894.4834","dc","null","null","null","null","null","null","[3,2]","456.7820700646349","160.78026227067505","481.54617017970844"
"","canvas-keyboard-response","137","112094","0.0-6.0-5.18","531","","","","","make choice","316","2","","","critical","t","c","d","164","240","240","164","158.0083","227.1683","spektor","0.09","h","164","240","240","164","158.0083","227.1683","39360","39360","35894.4834","dc","null","null","null","null","null","null","[3,2]","","",""
"","canvas-keyboard-response","138","112112","0.0-6.0-6.18","531","","","","","clear_screen","null","null","","","critical","t","c","d","164","240","240","164","158.0083","227.1683","spektor","0.09","h","164","240","240","164","158.0083","227.1683","39360","39360","35894.4834","dc","null","null","null","null","null","null","[3,2]","","",""
"","canvas-keyboard-response","139","112313","0.0-6.0-0.19","531","","","","","pre trial waiting period","null","null","","","catch","sw","sh","l","180","200","166","172","182","231","trueblood","null","null","null","null","null","null","null","null","null","null","null","","180","200","260","200","36000","52000","[1,3]","461.6948440787793","465.51863267323756","439.93148654089345"
"","canvas-keyboard-response","140","112333","0.0-6.0-1.19","531","","","","","clear_screen","null","null","","","catch","sw","sh","l","180","200","166","172","182","231","trueblood","null","null","null","null","null","null","null","null","null","null","null","","180","200","260","200","36000","52000","[1,3]","461.6948440787793","465.51863267323756","439.93148654089345"
"","canvas-keyboard-response","141","112846","0.0-6.0-2.19","531","","","","","rectangles no change","null","null","","","catch","sw","sh","l","180","200","166","172","182","231","trueblood","null","null","null","null","null","null","null","null","null","null","null","","180","200","260","200","36000","52000","[1,3]","461.6948440787793","465.51863267323756","439.93148654089345"
"","canvas-keyboard-response","142","114181","0.0-6.0-3.19","531","","","","","rectangles with change","null","null","","","catch","sw","sh","l","180","200","166","172","182","231","trueblood","null","null","null","null","null","null","null","null","null","null","null","","180","200","260","200","36000","52000","[1,3]","461.6948440787793","465.51863267323756","439.93148654089345"
"","canvas-keyboard-response","143","114200","0.0-6.0-4.19","531","","","","","clear_screen","null","null","","","catch","sw","sh","l","180","200","166","172","182","231","trueblood","null","null","null","null","null","null","null","null","null","null","null","","180","200","260","200","36000","52000","[1,3]","461.6948440787793","465.51863267323756","439.93148654089345"
"","canvas-keyboard-response","144","114534","0.0-6.0-5.19","531","","","","","make choice","326","3","","","catch","sw","sh","l","180","200","166","172","182","231","trueblood","null","null","null","null","null","null","null","null","null","null","null","","180","200","260","200","36000","52000","[1,3]","","",""
"","canvas-keyboard-response","145","114552","0.0-6.0-6.19","531","","","","","clear_screen","null","null","","","catch","sw","sh","l","180","200","166","172","182","231","trueblood","null","null","null","null","null","null","null","null","null","null","null","","180","200","260","200","36000","52000","[1,3]","","",""
"","canvas-keyboard-response","146","114754","0.0-6.0-0.20","531","","","","","pre trial waiting period","null","null","","","critical","c","d","t","164","240","227.1683","158.0083","240","164","spektor","0.09","w","240","164","164","240","227.1683","158.0083","39360","39360","35894.4834","tc","null","null","null","null","null","null","[3,1]","475.2735571413212","178.3054225260511","496.23775401940895"
"","canvas-keyboard-response","147","114773","0.0-6.0-1.20","531","","","","","clear_screen","null","null","","","critical","c","d","t","164","240","227.1683","158.0083","240","164","spektor","0.09","w","240","164","164","240","227.1683","158.0083","39360","39360","35894.4834","tc","null","null","null","null","null","null","[3,1]","475.2735571413212","178.3054225260511","496.23775401940895"
"","canvas-keyboard-response","148","115286","0.0-6.0-2.20","531","","","","","rectangles no change","null","null","","","critical","c","d","t","164","240","227.1683","158.0083","240","164","spektor","0.09","w","240","164","164","240","227.1683","158.0083","39360","39360","35894.4834","tc","null","null","null","null","null","null","[3,1]","475.2735571413212","178.3054225260511","496.23775401940895"
"","canvas-keyboard-response","149","116622","0.0-6.0-3.20","531","","","","","rectangles with change","null","null","","","critical","c","d","t","164","240","227.1683","158.0083","240","164","spektor","0.09","w","240","164","164","240","227.1683","158.0083","39360","39360","35894.4834","tc","null","null","null","null","null","null","[3,1]","475.2735571413212","178.3054225260511","496.23775401940895"
"","canvas-keyboard-response","150","116639","0.0-6.0-4.20","531","","","","","clear_screen","null","null","","","critical","c","d","t","164","240","227.1683","158.0083","240","164","spektor","0.09","w","240","164","164","240","227.1683","158.0083","39360","39360","35894.4834","tc","null","null","null","null","null","null","[3,1]","475.2735571413212","178.3054225260511","496.23775401940895"
"","canvas-keyboard-response","151","117030","0.0-6.0-5.20","531","","","","","make choice","383","3","","","critical","c","d","t","164","240","227.1683","158.0083","240","164","spektor","0.09","w","240","164","164","240","227.1683","158.0083","39360","39360","35894.4834","tc","null","null","null","null","null","null","[3,1]","","",""
"","canvas-keyboard-response","152","117048","0.0-6.0-6.20","531","","","","","clear_screen","null","null","","","critical","c","d","t","164","240","227.1683","158.0083","240","164","spektor","0.09","w","240","164","164","240","227.1683","158.0083","39360","39360","35894.4834","tc","null","null","null","null","null","null","[3,1]","","",""
"","canvas-keyboard-response","153","117249","0.0-6.0-0.21","531","","","","","pre trial waiting period","null","null","","","critical","t","c","d","240","164","164","240","220.0396","154.6796","trueblood","0.14","w","240","164","164","240","220.0396","154.6796","39360","39360","34035.6388","dc","null","null","null","null","null","null","[3,2]","475.33080353374527","459.9330507789273","484.984325070064"
"","canvas-keyboard-response","154","117269","0.0-6.0-1.21","531","","","","","clear_screen","null","null","","","critical","t","c","d","240","164","164","240","220.0396","154.6796","trueblood","0.14","w","240","164","164","240","220.0396","154.6796","39360","39360","34035.6388","dc","null","null","null","null","null","null","[3,2]","475.33080353374527","459.9330507789273","484.984325070064"
"","canvas-keyboard-response","155","117780","0.0-6.0-2.21","531","","","","","rectangles no change","null","null","","","critical","t","c","d","240","164","164","240","220.0396","154.6796","trueblood","0.14","w","240","164","164","240","220.0396","154.6796","39360","39360","34035.6388","dc","null","null","null","null","null","null","[3,2]","475.33080353374527","459.9330507789273","484.984325070064"
"","canvas-keyboard-response","156","119115","0.0-6.0-3.21","531","","","","","rectangles with change","null","null","","","critical","t","c","d","240","164","164","240","220.0396","154.6796","trueblood","0.14","w","240","164","164","240","220.0396","154.6796","39360","39360","34035.6388","dc","null","null","null","null","null","null","[3,2]","475.33080353374527","459.9330507789273","484.984325070064"
"","canvas-keyboard-response","157","119133","0.0-6.0-4.21","531","","","","","clear_screen","null","null","","","critical","t","c","d","240","164","164","240","220.0396","154.6796","trueblood","0.14","w","240","164","164","240","220.0396","154.6796","39360","39360","34035.6388","dc","null","null","null","null","null","null","[3,2]","475.33080353374527","459.9330507789273","484.984325070064"
"","canvas-keyboard-response","158","120582","0.0-6.0-5.21","531","","","","","make choice","1441","2","","","critical","t","c","d","240","164","164","240","220.0396","154.6796","trueblood","0.14","w","240","164","164","240","220.0396","154.6796","39360","39360","34035.6388","dc","null","null","null","null","null","null","[3,2]","","",""
"","canvas-keyboard-response","159","120600","0.0-6.0-6.21","531","","","","","clear_screen","null","null","","","critical","t","c","d","240","164","164","240","220.0396","154.6796","trueblood","0.14","w","240","164","164","240","220.0396","154.6796","39360","39360","34035.6388","dc","null","null","null","null","null","null","[3,2]","","",""
"","canvas-keyboard-response","160","120802","0.0-6.0-0.22","531","","","","","pre trial waiting period","null","null","","","catch","l","sh","sw","172","236","213","183","164","207","spektor","null","null","null","null","null","null","null","null","null","null","null","","180","200","260","200","36000","52000","[1,2]","497.9531309631956","183.45767404344002","505.6258962899125"
"","canvas-keyboard-response","161","120820","0.0-6.0-1.22","531","","","","","clear_screen","null","null","","","catch","l","sh","sw","172","236","213","183","164","207","spektor","null","null","null","null","null","null","null","null","null","null","null","","180","200","260","200","36000","52000","[1,2]","497.9531309631956","183.45767404344002","505.6258962899125"
"","canvas-keyboard-response","162","121334","0.0-6.0-2.22","531","","","","","rectangles no change","null","null","","","catch","l","sh","sw","172","236","213","183","164","207","spektor","null","null","null","null","null","null","null","null","null","null","null","","180","200","260","200","36000","52000","[1,2]","497.9531309631956","183.45767404344002","505.6258962899125"
"","canvas-keyboard-response","163","122670","0.0-6.0-3.22","531","","","","","rectangles with change","null","null","","","catch","l","sh","sw","172","236","213","183","164","207","spektor","null","null","null","null","null","null","null","null","null","null","null","","180","200","260","200","36000","52000","[1,2]","497.9531309631956","183.45767404344002","505.6258962899125"
"","canvas-keyboard-response","164","122688","0.0-6.0-4.22","531","","","","","clear_screen","null","null","","","catch","l","sh","sw","172","236","213","183","164","207","spektor","null","null","null","null","null","null","null","null","null","null","null","","180","200","260","200","36000","52000","[1,2]","497.9531309631956","183.45767404344002","505.6258962899125"
"","canvas-keyboard-response","165","123765","0.0-6.0-5.22","531","","","","","make choice","1072","2","","","catch","l","sh","sw","172","236","213","183","164","207","spektor","null","null","null","null","null","null","null","null","null","null","null","","180","200","260","200","36000","52000","[1,2]","","",""
"","canvas-keyboard-response","166","123786","0.0-6.0-6.22","531","","","","","clear_screen","null","null","","","catch","l","sh","sw","172","236","213","183","164","207","spektor","null","null","null","null","null","null","null","null","null","null","null","","180","200","260","200","36000","52000","[1,2]","","",""
"","canvas-keyboard-response","167","123987","0.0-6.0-0.23","531","","","","","pre trial waiting period","null","null","","","critical","t","c","d","164","240","240","164","158.0083","227.1683","spektor","0.09","h","164","240","240","164","158.0083","227.1683","39360","39360","35894.4834","tc","null","null","null","null","null","null","[1,2]","473.44891447659273","180.75226703733722","485.54991945061005"
"","canvas-keyboard-response","168","124006","0.0-6.0-1.23","531","","","","","clear_screen","null","null","","","critical","t","c","d","164","240","240","164","158.0083","227.1683","spektor","0.09","h","164","240","240","164","158.0083","227.1683","39360","39360","35894.4834","tc","null","null","null","null","null","null","[1,2]","473.44891447659273","180.75226703733722","485.54991945061005"
"","canvas-keyboard-response","169","124517","0.0-6.0-2.23","531","","","","","rectangles no change","null","null","","","critical","t","c","d","164","240","240","164","158.0083","227.1683","spektor","0.09","h","164","240","240","164","158.0083","227.1683","39360","39360","35894.4834","tc","null","null","null","null","null","null","[1,2]","473.44891447659273","180.75226703733722","485.54991945061005"
"","canvas-keyboard-response","170","125853","0.0-6.0-3.23","531","","","","","rectangles with change","null","null","","","critical","t","c","d","164","240","240","164","158.0083","227.1683","spektor","0.09","h","164","240","240","164","158.0083","227.1683","39360","39360","35894.4834","tc","null","null","null","null","null","null","[1,2]","473.44891447659273","180.75226703733722","485.54991945061005"
"","canvas-keyboard-response","171","125871","0.0-6.0-4.23","531","","","","","clear_screen","null","null","","","critical","t","c","d","164","240","240","164","158.0083","227.1683","spektor","0.09","h","164","240","240","164","158.0083","227.1683","39360","39360","35894.4834","tc","null","null","null","null","null","null","[1,2]","473.44891447659273","180.75226703733722","485.54991945061005"
"","canvas-keyboard-response","172","126766","0.0-6.0-5.23","531","","","","","make choice","887","2","","","critical","t","c","d","164","240","240","164","158.0083","227.1683","spektor","0.09","h","164","240","240","164","158.0083","227.1683","39360","39360","35894.4834","tc","null","null","null","null","null","null","[1,2]","","",""
"","canvas-keyboard-response","173","126785","0.0-6.0-6.23","531","","","","","clear_screen","null","null","","","critical","t","c","d","164","240","240","164","158.0083","227.1683","spektor","0.09","h","164","240","240","164","158.0083","227.1683","39360","39360","35894.4834","tc","null","null","null","null","null","null","[1,2]","","",""
"","canvas-keyboard-response","174","126986","0.0-6.0-0.24","531","","","","","pre trial waiting period","null","null","","","critical","d","t","c","240","164","240","164","164","240","spektor","0","w","240","164","164","240","240","164","39360","39360","39360","td","null","null","null","null","null","null","[2,1]","520.162531042057","192.89666184792304","479.18729126603404"
"","canvas-keyboard-response","175","127005","0.0-6.0-1.24","531","","","","","clear_screen","null","null","","","critical","d","t","c","240","164","240","164","164","240","spektor","0","w","240","164","164","240","240","164","39360","39360","39360","td","null","null","null","null","null","null","[2,1]","520.162531042057","192.89666184792304","479.18729126603404"
"","canvas-keyboard-response","176","127515","0.0-6.0-2.24","531","","","","","rectangles no change","null","null","","","critical","d","t","c","240","164","240","164","164","240","spektor","0","w","240","164","164","240","240","164","39360","39360","39360","td","null","null","null","null","null","null","[2,1]","520.162531042057","192.89666184792304","479.18729126603404"
"","canvas-keyboard-response","177","128851","0.0-6.0-3.24","531","","","","","rectangles with change","null","null","","","critical","d","t","c","240","164","240","164","164","240","spektor","0","w","240","164","164","240","240","164","39360","39360","39360","td","null","null","null","null","null","null","[2,1]","520.162531042057","192.89666184792304","479.18729126603404"
"","canvas-keyboard-response","178","128869","0.0-6.0-4.24","531","","","","","clear_screen","null","null","","","critical","d","t","c","240","164","240","164","164","240","spektor","0","w","240","164","164","240","240","164","39360","39360","39360","td","null","null","null","null","null","null","[2,1]","520.162531042057","192.89666184792304","479.18729126603404"
"","canvas-keyboard-response","179","129406","0.0-6.0-5.24","531","","","","","make choice","529","2","","","critical","d","t","c","240","164","240","164","164","240","spektor","0","w","240","164","164","240","240","164","39360","39360","39360","td","null","null","null","null","null","null","[2,1]","","",""
"","canvas-keyboard-response","180","129424","0.0-6.0-6.24","531","","","","","clear_screen","null","null","","","critical","d","t","c","240","164","240","164","164","240","spektor","0","w","240","164","164","240","240","164","39360","39360","39360","td","null","null","null","null","null","null","[2,1]","","",""
"","canvas-keyboard-response","181","129624","0.0-6.0-0.25","531","","","","","pre trial waiting period","null","null","","","critical","t","d","c","240","164","227.1683","158.0083","164","240","spektor","0.09","w","240","164","164","240","227.1683","158.0083","39360","39360","35894.4834","td","null","null","null","null","null","null","[1,2]","524.8864877909531","206.03825607135335","479.3142766415341"
"","canvas-keyboard-response","182","129643","0.0-6.0-1.25","531","","","","","clear_screen","null","null","","","critical","t","d","c","240","164","227.1683","158.0083","164","240","spektor","0.09","w","240","164","164","240","227.1683","158.0083","39360","39360","35894.4834","td","null","null","null","null","null","null","[1,2]","524.8864877909531","206.03825607135335","479.3142766415341"
"","canvas-keyboard-response","183","130154","0.0-6.0-2.25","531","","","","","rectangles no change","null","null","","","critical","t","d","c","240","164","227.1683","158.0083","164","240","spektor","0.09","w","240","164","164","240","227.1683","158.0083","39360","39360","35894.4834","td","null","null","null","null","null","null","[1,2]","524.8864877909531","206.03825607135335","479.3142766415341"
"","canvas-keyboard-response","184","131490","0.0-6.0-3.25","531","","","","","rectangles with change","null","null","","","critical","t","d","c","240","164","227.1683","158.0083","164","240","spektor","0.09","w","240","164","164","240","227.1683","158.0083","39360","39360","35894.4834","td","null","null","null","null","null","null","[1,2]","524.8864877909531","206.03825607135335","479.3142766415341"
"","canvas-keyboard-response","185","131509","0.0-6.0-4.25","531","","","","","clear_screen","null","null","","","critical","t","d","c","240","164","227.1683","158.0083","164","240","spektor","0.09","w","240","164","164","240","227.1683","158.0083","39360","39360","35894.4834","td","null","null","null","null","null","null","[1,2]","524.8864877909531","206.03825607135335","479.3142766415341"
"","canvas-keyboard-response","186","132566","0.0-6.0-5.25","531","","","","","make choice","1046","1","","","critical","t","d","c","240","164","227.1683","158.0083","164","240","spektor","0.09","w","240","164","164","240","227.1683","158.0083","39360","39360","35894.4834","td","null","null","null","null","null","null","[1,2]","","",""
"","canvas-keyboard-response","187","132585","0.0-6.0-6.25","531","","","","","clear_screen","null","null","","","critical","t","d","c","240","164","227.1683","158.0083","164","240","spektor","0.09","w","240","164","164","240","227.1683","158.0083","39360","39360","35894.4834","td","null","null","null","null","null","null","[1,2]","","",""
"","canvas-keyboard-response","188","132786","0.0-6.0-0.26","531","","","","","pre trial waiting period","null","null","","","catch","l","sw","sh","175","257","174","211","160","186","spektor","null","null","null","null","null","null","null","null","null","null","null","","180","200","260","200","36000","52000","[1,3]","481.93400231531547","153.23131323938762","515.1472438488033"
"","canvas-keyboard-response","189","132805","0.0-6.0-1.26","531","","","","","clear_screen","null","null","","","catch","l","sw","sh","175","257","174","211","160","186","spektor","null","null","null","null","null","null","null","null","null","null","null","","180","200","260","200","36000","52000","[1,3]","481.93400231531547","153.23131323938762","515.1472438488033"
"","canvas-keyboard-response","190","133316","0.0-6.0-2.26","531","","","","","rectangles no change","null","null","","","catch","l","sw","sh","175","257","174","211","160","186","spektor","null","null","null","null","null","null","null","null","null","null","null","","180","200","260","200","36000","52000","[1,3]","481.93400231531547","153.23131323938762","515.1472438488033"
"","canvas-keyboard-response","191","134652","0.0-6.0-3.26","531","","","","","rectangles with change","null","null","","","catch","l","sw","sh","175","257","174","211","160","186","spektor","null","null","null","null","null","null","null","null","null","null","null","","180","200","260","200","36000","52000","[1,3]","481.93400231531547","153.23131323938762","515.1472438488033"
"","canvas-keyboard-response","192","134671","0.0-6.0-4.26","531","","","","","clear_screen","null","null","","","catch","l","sw","sh","175","257","174","211","160","186","spektor","null","null","null","null","null","null","null","null","null","null","null","","180","200","260","200","36000","52000","[1,3]","481.93400231531547","153.23131323938762","515.1472438488033"
"","canvas-keyboard-response","193","135166","0.0-6.0-5.26","531","","","","","make choice","487","1","","","catch","l","sw","sh","175","257","174","211","160","186","spektor","null","null","null","null","null","null","null","null","null","null","null","","180","200","260","200","36000","52000","[1,3]","","",""
"","canvas-keyboard-response","194","135184","0.0-6.0-6.26","531","","","","","clear_screen","null","null","","","catch","l","sw","sh","175","257","174","211","160","186","spektor","null","null","null","null","null","null","null","null","null","null","null","","180","200","260","200","36000","52000","[1,3]","","",""
"","canvas-keyboard-response","195","135387","0.0-6.0-0.27","531","","","","","pre trial waiting period","null","null","","","critical","c","t","d","164","240","240","164","220.0396","154.6796","trueblood","0.14","w","240","164","164","240","220.0396","154.6796","39360","39360","34035.6388","td","null","null","null","null","null","null","[2,3]","464.7591003830778","503.5442237195043","520.0640485432156"
"","canvas-keyboard-response","196","135407","0.0-6.0-1.27","531","","","","","clear_screen","null","null","","","critical","c","t","d","164","240","240","164","220.0396","154.6796","trueblood","0.14","w","240","164","164","240","220.0396","154.6796","39360","39360","34035.6388","td","null","null","null","null","null","null","[2,3]","464.7591003830778","503.5442237195043","520.0640485432156"
"","canvas-keyboard-response","197","135916","0.0-6.0-2.27","531","","","","","rectangles no change","null","null","","","critical","c","t","d","164","240","240","164","220.0396","154.6796","trueblood","0.14","w","240","164","164","240","220.0396","154.6796","39360","39360","34035.6388","td","null","null","null","null","null","null","[2,3]","464.7591003830778","503.5442237195043","520.0640485432156"
"","canvas-keyboard-response","198","137252","0.0-6.0-3.27","531","","","","","rectangles with change","null","null","","","critical","c","t","d","164","240","240","164","220.0396","154.6796","trueblood","0.14","w","240","164","164","240","220.0396","154.6796","39360","39360","34035.6388","td","null","null","null","null","null","null","[2,3]","464.7591003830778","503.5442237195043","520.0640485432156"
"","canvas-keyboard-response","199","137273","0.0-6.0-4.27","531","","","","","clear_screen","null","null","","","critical","c","t","d","164","240","240","164","220.0396","154.6796","trueblood","0.14","w","240","164","164","240","220.0396","154.6796","39360","39360","34035.6388","td","null","null","null","null","null","null","[2,3]","464.7591003830778","503.5442237195043","520.0640485432156"
"","canvas-keyboard-response","200","138541","0.0-6.0-5.27","531","","","","","make choice","1262","2","","","critical","c","t","d","164","240","240","164","220.0396","154.6796","trueblood","0.14","w","240","164","164","240","220.0396","154.6796","39360","39360","34035.6388","td","null","null","null","null","null","null","[2,3]","","",""
"","canvas-keyboard-response","201","138562","0.0-6.0-6.27","531","","","","","clear_screen","null","null","","","critical","c","t","d","164","240","240","164","220.0396","154.6796","trueblood","0.14","w","240","164","164","240","220.0396","154.6796","39360","39360","34035.6388","td","null","null","null","null","null","null","[2,3]","","",""
"","canvas-keyboard-response","202","138764","0.0-6.0-0.28","531","","","","","pre trial waiting period","null","null","","","critical","c","t","d","240","164","164","240","160.6713","232.8713","trueblood","0.05","h","164","240","240","164","160.6713","232.8713","39360","39360","37415.7294","tc","null","null","null","null","null","null","[2,1]","502.8707240945449","461.8161470690609","433.23371316859215"
"","canvas-keyboard-response","203","138786","0.0-6.0-1.28","531","","","","","clear_screen","null","null","","","critical","c","t","d","240","164","164","240","160.6713","232.8713","trueblood","0.05","h","164","240","240","164","160.6713","232.8713","39360","39360","37415.7294","tc","null","null","null","null","null","null","[2,1]","502.8707240945449","461.8161470690609","433.23371316859215"
"","canvas-keyboard-response","204","139297","0.0-6.0-2.28","531","","","","","rectangles no change","null","null","","","critical","c","t","d","240","164","164","240","160.6713","232.8713","trueblood","0.05","h","164","240","240","164","160.6713","232.8713","39360","39360","37415.7294","tc","null","null","null","null","null","null","[2,1]","502.8707240945449","461.8161470690609","433.23371316859215"
"","canvas-keyboard-response","205","140632","0.0-6.0-3.28","531","","","","","rectangles with change","null","null","","","critical","c","t","d","240","164","164","240","160.6713","232.8713","trueblood","0.05","h","164","240","240","164","160.6713","232.8713","39360","39360","37415.7294","tc","null","null","null","null","null","null","[2,1]","502.8707240945449","461.8161470690609","433.23371316859215"
"","canvas-keyboard-response","206","140653","0.0-6.0-4.28","531","","","","","clear_screen","null","null","","","critical","c","t","d","240","164","164","240","160.6713","232.8713","trueblood","0.05","h","164","240","240","164","160.6713","232.8713","39360","39360","37415.7294","tc","null","null","null","null","null","null","[2,1]","502.8707240945449","461.8161470690609","433.23371316859215"
"","canvas-keyboard-response","207","141333","0.0-6.0-5.28","531","","","","","make choice","673","2","","","critical","c","t","d","240","164","164","240","160.6713","232.8713","trueblood","0.05","h","164","240","240","164","160.6713","232.8713","39360","39360","37415.7294","tc","null","null","null","null","null","null","[2,1]","","",""
"","canvas-keyboard-response","208","141353","0.0-6.0-6.28","531","","","","","clear_screen","null","null","","","critical","c","t","d","240","164","164","240","160.6713","232.8713","trueblood","0.05","h","164","240","240","164","160.6713","232.8713","39360","39360","37415.7294","tc","null","null","null","null","null","null","[2,1]","","",""
"","canvas-keyboard-response","209","141555","0.0-6.0-0.29","531","","","","","pre trial waiting period","null","null","","","catch","l","sh","sw","284","210","212","194","171","229","trueblood","null","null","null","null","null","null","null","null","null","null","null","","180","200","260","200","36000","52000","[1,3]","484.3997200118537","496.84522627996495","471.49329916028785"
"","canvas-keyboard-response","210","141575","0.0-6.0-1.29","531","","","","","clear_screen","null","null","","","catch","l","sh","sw","284","210","212","194","171","229","trueblood","null","null","null","null","null","null","null","null","null","null","null","","180","200","260","200","36000","52000","[1,3]","484.3997200118537","496.84522627996495","471.49329916028785"
"","canvas-keyboard-response","211","142090","0.0-6.0-2.29","531","","","","","rectangles no change","null","null","","","catch","l","sh","sw","284","210","212","194","171","229","trueblood","null","null","null","null","null","null","null","null","null","null","null","","180","200","260","200","36000","52000","[1,3]","484.3997200118537","496.84522627996495","471.49329916028785"
"","canvas-keyboard-response","212","143428","0.0-6.0-3.29","531","","","","","rectangles with change","null","null","","","catch","l","sh","sw","284","210","212","194","171","229","trueblood","null","null","null","null","null","null","null","null","null","null","null","","180","200","260","200","36000","52000","[1,3]","484.3997200118537","496.84522627996495","471.49329916028785"
"","canvas-keyboard-response","213","143446","0.0-6.0-4.29","531","","","","","clear_screen","null","null","","","catch","l","sh","sw","284","210","212","194","171","229","trueblood","null","null","null","null","null","null","null","null","null","null","null","","180","200","260","200","36000","52000","[1,3]","484.3997200118537","496.84522627996495","471.49329916028785"
"","canvas-keyboard-response","214","143693","0.0-6.0-5.29","531","","","","","make choice","239","1","","","catch","l","sh","sw","284","210","212","194","171","229","trueblood","null","null","null","null","null","null","null","null","null","null","null","","180","200","260","200","36000","52000","[1,3]","","",""
"","canvas-keyboard-response","215","143712","0.0-6.0-6.29","531","","","","","clear_screen","null","null","","","catch","l","sh","sw","284","210","212","194","171","229","trueblood","null","null","null","null","null","null","null","null","null","null","null","","180","200","260","200","36000","52000","[1,3]","","",""
"","canvas-keyboard-response","216","143914","0.0-6.0-0.30","531","","","","","pre trial waiting period","null","null","","","critical","c","d","t","164","240","232.8713","160.6713","240","164","spektor","0.05","w","240","164","164","240","232.8713","160.6713","39360","39360","37415.7294","td","null","null","null","null","null","null","[3,2]","504.1119471663472","211.47035446751607","542.42049001395"
"","canvas-keyboard-response","217","143933","0.0-6.0-1.30","531","","","","","clear_screen","null","null","","","critical","c","d","t","164","240","232.8713","160.6713","240","164","spektor","0.05","w","240","164","164","240","232.8713","160.6713","39360","39360","37415.7294","td","null","null","null","null","null","null","[3,2]","504.1119471663472","211.47035446751607","542.42049001395"
"","canvas-keyboard-response","218","144447","0.0-6.0-2.30","531","","","","","rectangles no change","null","null","","","critical","c","d","t","164","240","232.8713","160.6713","240","164","spektor","0.05","w","240","164","164","240","232.8713","160.6713","39360","39360","37415.7294","td","null","null","null","null","null","null","[3,2]","504.1119471663472","211.47035446751607","542.42049001395"
"","canvas-keyboard-response","219","145783","0.0-6.0-3.30","531","","","","","rectangles with change","null","null","","","critical","c","d","t","164","240","232.8713","160.6713","240","164","spektor","0.05","w","240","164","164","240","232.8713","160.6713","39360","39360","37415.7294","td","null","null","null","null","null","null","[3,2]","504.1119471663472","211.47035446751607","542.42049001395"
"","canvas-keyboard-response","220","145802","0.0-6.0-4.30","531","","","","","clear_screen","null","null","","","critical","c","d","t","164","240","232.8713","160.6713","240","164","spektor","0.05","w","240","164","164","240","232.8713","160.6713","39360","39360","37415.7294","td","null","null","null","null","null","null","[3,2]","504.1119471663472","211.47035446751607","542.42049001395"
"","canvas-keyboard-response","221","146078","0.0-6.0-5.30","531","","","","","make choice","268","3","","","critical","c","d","t","164","240","232.8713","160.6713","240","164","spektor","0.05","w","240","164","164","240","232.8713","160.6713","39360","39360","37415.7294","td","null","null","null","null","null","null","[3,2]","","",""
"","canvas-keyboard-response","222","146097","0.0-6.0-6.30","531","","","","","clear_screen","null","null","","","critical","c","d","t","164","240","232.8713","160.6713","240","164","spektor","0.05","w","240","164","164","240","232.8713","160.6713","39360","39360","37415.7294","td","null","null","null","null","null","null","[3,2]","","",""
"","canvas-keyboard-response","223","146299","0.0-6.0-0.31","531","","","","","pre trial waiting period","null","null","","","catch","l","sw","sh","161","237","198","230","189","213","trueblood","null","null","null","null","null","null","null","null","null","null","null","","180","200","260","200","36000","52000","[1,2]","462.48178785141397","467.7867944894697","450.0087848708149"
"","canvas-keyboard-response","224","146319","0.0-6.0-1.31","531","","","","","clear_screen","null","null","","","catch","l","sw","sh","161","237","198","230","189","213","trueblood","null","null","null","null","null","null","null","null","null","null","null","","180","200","260","200","36000","52000","[1,2]","462.48178785141397","467.7867944894697","450.0087848708149"
"","canvas-keyboard-response","225","146831","0.0-6.0-2.31","531","","","","","rectangles no change","null","null","","","catch","l","sw","sh","161","237","198","230","189","213","trueblood","null","null","null","null","null","null","null","null","null","null","null","","180","200","260","200","36000","52000","[1,2]","462.48178785141397","467.7867944894697","450.0087848708149"
"","canvas-keyboard-response","226","148167","0.0-6.0-3.31","531","","","","","rectangles with change","null","null","","","catch","l","sw","sh","161","237","198","230","189","213","trueblood","null","null","null","null","null","null","null","null","null","null","null","","180","200","260","200","36000","52000","[1,2]","462.48178785141397","467.7867944894697","450.0087848708149"
"","canvas-keyboard-response","227","148185","0.0-6.0-4.31","531","","","","","clear_screen","null","null","","","catch","l","sw","sh","161","237","198","230","189","213","trueblood","null","null","null","null","null","null","null","null","null","null","null","","180","200","260","200","36000","52000","[1,2]","462.48178785141397","467.7867944894697","450.0087848708149"
"","canvas-keyboard-response","228","148423","0.0-6.0-5.31","531","","","","","make choice","229","2","","","catch","l","sw","sh","161","237","198","230","189","213","trueblood","null","null","null","null","null","null","null","null","null","null","null","","180","200","260","200","36000","52000","[1,2]","","",""
"","canvas-keyboard-response","229","148441","0.0-6.0-6.31","531","","","","","clear_screen","null","null","","","catch","l","sw","sh","161","237","198","230","189","213","trueblood","null","null","null","null","null","null","null","null","null","null","null","","180","200","260","200","36000","52000","[1,2]","","",""
"","canvas-keyboard-response","230","148642","0.0-6.0-0.32","531","","","","","pre trial waiting period","null","null","","","critical","t","c","d","164","240","240","164","158.0083","227.1683","trueblood","0.09","h","164","240","240","164","158.0083","227.1683","39360","39360","35894.4834","tc","null","null","null","null","null","null","[1,2]","454.11846791182205","478.53718485010864","462.6840060245395"
"","canvas-keyboard-response","231","148661","0.0-6.0-1.32","531","","","","","clear_screen","null","null","","","critical","t","c","d","164","240","240","164","158.0083","227.1683","trueblood","0.09","h","164","240","240","164","158.0083","227.1683","39360","39360","35894.4834","tc","null","null","null","null","null","null","[1,2]","454.11846791182205","478.53718485010864","462.6840060245395"
"","canvas-keyboard-response","232","149172","0.0-6.0-2.32","531","","","","","rectangles no change","null","null","","","critical","t","c","d","164","240","240","164","158.0083","227.1683","trueblood","0.09","h","164","240","240","164","158.0083","227.1683","39360","39360","35894.4834","tc","null","null","null","null","null","null","[1,2]","454.11846791182205","478.53718485010864","462.6840060245395"
"","canvas-keyboard-response","233","150508","0.0-6.0-3.32","531","","","","","rectangles with change","null","null","","","critical","t","c","d","164","240","240","164","158.0083","227.1683","trueblood","0.09","h","164","240","240","164","158.0083","227.1683","39360","39360","35894.4834","tc","null","null","null","null","null","null","[1,2]","454.11846791182205","478.53718485010864","462.6840060245395"
"","canvas-keyboard-response","234","150527","0.0-6.0-4.32","531","","","","","clear_screen","null","null","","","critical","t","c","d","164","240","240","164","158.0083","227.1683","trueblood","0.09","h","164","240","240","164","158.0083","227.1683","39360","39360","35894.4834","tc","null","null","null","null","null","null","[1,2]","454.11846791182205","478.53718485010864","462.6840060245395"
"","canvas-keyboard-response","235","150862","0.0-6.0-5.32","531","","","","","make choice","321","2","","","critical","t","c","d","164","240","240","164","158.0083","227.1683","trueblood","0.09","h","164","240","240","164","158.0083","227.1683","39360","39360","35894.4834","tc","null","null","null","null","null","null","[1,2]","","",""
"","canvas-keyboard-response","236","150880","0.0-6.0-6.32","531","","","","","clear_screen","null","null","","","critical","t","c","d","164","240","240","164","158.0083","227.1683","trueblood","0.09","h","164","240","240","164","158.0083","227.1683","39360","39360","35894.4834","tc","null","null","null","null","null","null","[1,2]","","",""
"","canvas-keyboard-response","237","151080","0.0-6.0-0.33","531","","","","","pre trial waiting period","null","null","","","critical","d","c","t","162.6685","237.1485","240","164","164","240","spektor","0.02","h","164","240","240","164","162.6685","237.1485","39360","39360","38576.5967","dc","null","null","null","null","null","null","[1,2]","460.6019863723024","159.7672141665079","486.23818420874414"
"","canvas-keyboard-response","238","151100","0.0-6.0-1.33","531","","","","","clear_screen","null","null","","","critical","d","c","t","162.6685","237.1485","240","164","164","240","spektor","0.02","h","164","240","240","164","162.6685","237.1485","39360","39360","38576.5967","dc","null","null","null","null","null","null","[1,2]","460.6019863723024","159.7672141665079","486.23818420874414"
"","canvas-keyboard-response","239","151613","0.0-6.0-2.33","531","","","","","rectangles no change","null","null","","","critical","d","c","t","162.6685","237.1485","240","164","164","240","spektor","0.02","h","164","240","240","164","162.6685","237.1485","39360","39360","38576.5967","dc","null","null","null","null","null","null","[1,2]","460.6019863723024","159.7672141665079","486.23818420874414"
"","canvas-keyboard-response","240","152948","0.0-6.0-3.33","531","","","","","rectangles with change","null","null","","","critical","d","c","t","162.6685","237.1485","240","164","164","240","spektor","0.02","h","164","240","240","164","162.6685","237.1485","39360","39360","38576.5967","dc","null","null","null","null","null","null","[1,2]","460.6019863723024","159.7672141665079","486.23818420874414"
"","canvas-keyboard-response","241","152967","0.0-6.0-4.33","531","","","","","clear_screen","null","null","","","critical","d","c","t","162.6685","237.1485","240","164","164","240","spektor","0.02","h","164","240","240","164","162.6685","237.1485","39360","39360","38576.5967","dc","null","null","null","null","null","null","[1,2]","460.6019863723024","159.7672141665079","486.23818420874414"
"","canvas-keyboard-response","242","153206","0.0-6.0-5.33","531","","","","","make choice","231","2","","","critical","d","c","t","162.6685","237.1485","240","164","164","240","spektor","0.02","h","164","240","240","164","162.6685","237.1485","39360","39360","38576.5967","dc","null","null","null","null","null","null","[1,2]","","",""
"","canvas-keyboard-response","243","153224","0.0-6.0-6.33","531","","","","","clear_screen","null","null","","","critical","d","c","t","162.6685","237.1485","240","164","164","240","spektor","0.02","h","164","240","240","164","162.6685","237.1485","39360","39360","38576.5967","dc","null","null","null","null","null","null","[1,2]","","",""
"","canvas-keyboard-response","244","153426","0.0-6.0-0.34","531","","","","","pre trial waiting period","null","null","","","critical","t","d","c","164","240","154.6796","220.0396","240","164","trueblood","0.14","h","164","240","240","164","154.6796","220.0396","39360","39360","34035.6388","td","null","null","null","null","null","null","[1,2]","460.0837595704649","474.7882463736225","475.16294225013706"
"","canvas-keyboard-response","245","153445","0.0-6.0-1.34","531","","","","","clear_screen","null","null","","","critical","t","d","c","164","240","154.6796","220.0396","240","164","trueblood","0.14","h","164","240","240","164","154.6796","220.0396","39360","39360","34035.6388","td","null","null","null","null","null","null","[1,2]","460.0837595704649","474.7882463736225","475.16294225013706"
"","canvas-keyboard-response","246","153955","0.0-6.0-2.34","531","","","","","rectangles no change","null","null","","","critical","t","d","c","164","240","154.6796","220.0396","240","164","trueblood","0.14","h","164","240","240","164","154.6796","220.0396","39360","39360","34035.6388","td","null","null","null","null","null","null","[1,2]","460.0837595704649","474.7882463736225","475.16294225013706"
"","canvas-keyboard-response","247","155290","0.0-6.0-3.34","531","","","","","rectangles with change","null","null","","","critical","t","d","c","164","240","154.6796","220.0396","240","164","trueblood","0.14","h","164","240","240","164","154.6796","220.0396","39360","39360","34035.6388","td","null","null","null","null","null","null","[1,2]","460.0837595704649","474.7882463736225","475.16294225013706"
"","canvas-keyboard-response","248","155309","0.0-6.0-4.34","531","","","","","clear_screen","null","null","","","critical","t","d","c","164","240","154.6796","220.0396","240","164","trueblood","0.14","h","164","240","240","164","154.6796","220.0396","39360","39360","34035.6388","td","null","null","null","null","null","null","[1,2]","460.0837595704649","474.7882463736225","475.16294225013706"
"","canvas-keyboard-response","249","155630","0.0-6.0-5.34","531","","","","","make choice","314","1","","","critical","t","d","c","164","240","154.6796","220.0396","240","164","trueblood","0.14","h","164","240","240","164","154.6796","220.0396","39360","39360","34035.6388","td","null","null","null","null","null","null","[1,2]","","",""
"","canvas-keyboard-response","250","155648","0.0-6.0-6.34","531","","","","","clear_screen","null","null","","","critical","t","d","c","164","240","154.6796","220.0396","240","164","trueblood","0.14","h","164","240","240","164","154.6796","220.0396","39360","39360","34035.6388","td","null","null","null","null","null","null","[1,2]","","",""
"","canvas-keyboard-response","251","155850","0.0-6.0-0.35","531","","","","","pre trial waiting period","null","null","","","critical","d","c","t","164","240","240","164","164","240","spektor","0","h","164","240","240","164","164","240","39360","39360","39360","td","null","null","null","null","null","null","[3,1]","478.27846435536514","153.7329560784574","479.6443404027751"
"","canvas-keyboard-response","252","155869","0.0-6.0-1.35","531","","","","","clear_screen","null","null","","","critical","d","c","t","164","240","240","164","164","240","spektor","0","h","164","240","240","164","164","240","39360","39360","39360","td","null","null","null","null","null","null","[3,1]","478.27846435536514","153.7329560784574","479.6443404027751"
"","canvas-keyboard-response","253","156380","0.0-6.0-2.35","531","","","","","rectangles no change","null","null","","","critical","d","c","t","164","240","240","164","164","240","spektor","0","h","164","240","240","164","164","240","39360","39360","39360","td","null","null","null","null","null","null","[3,1]","478.27846435536514","153.7329560784574","479.6443404027751"
"","canvas-keyboard-response","254","157716","0.0-6.0-3.35","531","","","","","rectangles with change","null","null","","","critical","d","c","t","164","240","240","164","164","240","spektor","0","h","164","240","240","164","164","240","39360","39360","39360","td","null","null","null","null","null","null","[3,1]","478.27846435536514","153.7329560784574","479.6443404027751"
"","canvas-keyboard-response","255","157735","0.0-6.0-4.35","531","","","","","clear_screen","null","null","","","critical","d","c","t","164","240","240","164","164","240","spektor","0","h","164","240","240","164","164","240","39360","39360","39360","td","null","null","null","null","null","null","[3,1]","478.27846435536514","153.7329560784574","479.6443404027751"
"","canvas-keyboard-response","256","158342","0.0-6.0-5.35","531","","","","","make choice","601","3","","","critical","d","c","t","164","240","240","164","164","240","spektor","0","h","164","240","240","164","164","240","39360","39360","39360","td","null","null","null","null","null","null","[3,1]","","",""
"","canvas-keyboard-response","257","158360","0.0-6.0-6.35","531","","","","","clear_screen","null","null","","","critical","d","c","t","164","240","240","164","164","240","spektor","0","h","164","240","240","164","164","240","39360","39360","39360","td","null","null","null","null","null","null","[3,1]","","",""
"","canvas-keyboard-response","258","158561","0.0-6.0-0.36","531","","","","","pre trial waiting period","null","null","","","catch","sw","l","sh","180","200","247","228","223","209","spektor","null","null","null","null","null","null","null","null","null","null","null","","180","200","260","200","36000","52000","[2,3]","509.59410521888293","109.74260188936678","511.12757413319395"
"","canvas-keyboard-response","259","158580","0.0-6.0-1.36","531","","","","","clear_screen","null","null","","","catch","sw","l","sh","180","200","247","228","223","209","spektor","null","null","null","null","null","null","null","null","null","null","null","","180","200","260","200","36000","52000","[2,3]","509.59410521888293","109.74260188936678","511.12757413319395"
"","canvas-keyboard-response","260","159096","0.0-6.0-2.36","531","","","","","rectangles no change","null","null","","","catch","sw","l","sh","180","200","247","228","223","209","spektor","null","null","null","null","null","null","null","null","null","null","null","","180","200","260","200","36000","52000","[2,3]","509.59410521888293","109.74260188936678","511.12757413319395"
"","canvas-keyboard-response","261","160431","0.0-6.0-3.36","531","","","","","rectangles with change","null","null","","","catch","sw","l","sh","180","200","247","228","223","209","spektor","null","null","null","null","null","null","null","null","null","null","null","","180","200","260","200","36000","52000","[2,3]","509.59410521888293","109.74260188936678","511.12757413319395"
"","canvas-keyboard-response","262","160452","0.0-6.0-4.36","531","","","","","clear_screen","null","null","","","catch","sw","l","sh","180","200","247","228","223","209","spektor","null","null","null","null","null","null","null","null","null","null","null","","180","200","260","200","36000","52000","[2,3]","509.59410521888293","109.74260188936678","511.12757413319395"
"","canvas-keyboard-response","263","160990","0.0-6.0-5.36","531","","","","","make choice","530","2","","","catch","sw","l","sh","180","200","247","228","223","209","spektor","null","null","null","null","null","null","null","null","null","null","null","","180","200","260","200","36000","52000","[2,3]","","",""
"","canvas-keyboard-response","264","161008","0.0-6.0-6.36","531","","","","","clear_screen","null","null","","","catch","sw","l","sh","180","200","247","228","223","209","spektor","null","null","null","null","null","null","null","null","null","null","null","","180","200","260","200","36000","52000","[2,3]","","",""
"","canvas-keyboard-response","265","161210","0.0-6.0-0.37","531","","","","","pre trial waiting period","null","null","","","critical","d","c","t","237.1485","162.6685","164","240","240","164","trueblood","0.02","w","240","164","164","240","237.1485","162.6685","39360","39360","38576.5967","dc","null","null","null","null","null","null","[1,2]","479.8000542461196","468.06519373139923","506.23598067365265"
"","canvas-keyboard-response","266","161229","0.0-6.0-1.37","531","","","","","clear_screen","null","null","","","critical","d","c","t","237.1485","162.6685","164","240","240","164","trueblood","0.02","w","240","164","164","240","237.1485","162.6685","39360","39360","38576.5967","dc","null","null","null","null","null","null","[1,2]","479.8000542461196","468.06519373139923","506.23598067365265"
"","canvas-keyboard-response","267","161740","0.0-6.0-2.37","531","","","","","rectangles no change","null","null","","","critical","d","c","t","237.1485","162.6685","164","240","240","164","trueblood","0.02","w","240","164","164","240","237.1485","162.6685","39360","39360","38576.5967","dc","null","null","null","null","null","null","[1,2]","479.8000542461196","468.06519373139923","506.23598067365265"
