"success","trial_type","trial_index","time_elapsed","internal_node_id","sub_n","timeout","failed_images","failed_audio","failed_video","screen_id","rt","response","stimulus","view_history","trial","r1","r2","r3","w1","h1","w2","h2","w3","h3","display","tdd","tdo","tw","th","cw","ch","dw","dh","ta","ca","da","probe","csls","csss","clls","clss","sa","la","probe_rects","r1yloc","r2yloc","r3yloc"
"true","fullscreen","0","3966","0.0-0.0","554","","","","","","","","","","","","","","","","","","","","","","","","","","","","","","","","","","","","","","","","","",""
"true","preload","1","3984","0.0-1.0","554","false","[]","[]","[]","img preload","","","","","","","","","","","","","","","","","","","","","","","","","","","","","","","","","","","","",""
"","survey-html-form","2","8325","0.0-2.0","554","","","","","enter-sub-number","4336","{""response"":""554""}","","","","","","","","","","","","","","","","","","","","","","","","","","","","","","","","","","",""
"","image-button-response","3","42086","0.0-3.0","554","","","","","","33691","0","consent.png","","","","","","","","","","","","","","","","","","","","","","","","","","","","","","","","","",""
"","html-button-response","4","45293","0.0-4.0","554","","","","","intro mssg","3200","0","<div style= ""font-size:25px;"" <p> <strong> Welcome! </strong><br> <p style=""color:#8B0000; font-size:25px;""><strong> Please do NOT exit full screen until you are done with the experiment. </strong> </p><p style=""font-size:25px;color:#8B0000;""> <strong> Your data will be lost <br> if you try to go back or refresh the page after the experiment starts. Feel free to click ""previous"" during the instructions, however.</strong> </p><br><p> <strong> Thanks in advance for your contribution to our research! </strong></p>","","","","","","","","","","","","","","","","","","","","","","","","","","","","","","","","","",""
"","instructions","5","86183","0.0-5.0","554","","","","","instructions","40885","","","[{""page_index"":0,""viewing_time"":8612},{""page_index"":1,""viewing_time"":5230},{""page_index"":2,""viewing_time"":2562},{""page_index"":3,""viewing_time"":10839},{""page_index"":4,""viewing_time"":9118},{""page_index"":5,""viewing_time"":1811},{""page_index"":6,""viewing_time"":1791},{""page_index"":7,""viewing_time"":921}]","","","","","","","","","","","","","","","","","","","","","","","","","","","","","","","","",""
"","canvas-keyboard-response","6","86391","0.0-6.0-0.0","554","","","","","pre trial waiting period","null","null","","","catch","l","sh","sw","190","285","171","201","170","179","spektor","null","null","null","null","null","null","null","null","null","null","null","","180","200","260","200","36000","52000","[1,2]","442.2178547340657","153.25824747231707","530.7734720521304"
"","canvas-keyboard-response","7","86417","0.0-6.0-1.0","554","","","","","clear_screen","null","null","","","catch","l","sh","sw","190","285","171","201","170","179","spektor","null","null","null","null","null","null","null","null","null","null","null","","180","200","260","200","36000","52000","[1,2]","442.2178547340657","153.25824747231707","530.7734720521304"
"","canvas-keyboard-response","8","86928","0.0-6.0-2.0","554","","","","","rectangles no change","null","null","","","catch","l","sh","sw","190","285","171","201","170","179","spektor","null","null","null","null","null","null","null","null","null","null","null","","180","200","260","200","36000","52000","[1,2]","442.2178547340657","153.25824747231707","530.7734720521304"
"","canvas-keyboard-response","9","88267","0.0-6.0-3.0","554","","","","","rectangles with change","null","null","","","catch","l","sh","sw","190","285","171","201","170","179","spektor","null","null","null","null","null","null","null","null","null","null","null","","180","200","260","200","36000","52000","[1,2]","442.2178547340657","153.25824747231707","530.7734720521304"
"","canvas-keyboard-response","10","88287","0.0-6.0-4.0","554","","","","","clear_screen","null","null","","","catch","l","sh","sw","190","285","171","201","170","179","spektor","null","null","null","null","null","null","null","null","null","null","null","","180","200","260","200","36000","52000","[1,2]","442.2178547340657","153.25824747231707","530.7734720521304"
"","canvas-keyboard-response","11","91370","0.0-6.0-5.0","554","","","","","make choice","3072","1","","","catch","l","sh","sw","190","285","171","201","170","179","spektor","null","null","null","null","null","null","null","null","null","null","null","","180","200","260","200","36000","52000","[1,2]","","",""
"","canvas-keyboard-response","12","91389","0.0-6.0-6.0","554","","","","","clear_screen","null","null","","","catch","l","sh","sw","190","285","171","201","170","179","spektor","null","null","null","null","null","null","null","null","null","null","null","","180","200","260","200","36000","52000","[1,2]","","",""
"","canvas-keyboard-response","13","91592","0.0-6.0-0.1","554","","","","","pre trial waiting period","null","null","","","critical","d","c","t","227.1683","158.0083","164","240","240","164","trueblood","0.09","w","240","164","164","240","227.1683","158.0083","39360","39360","35894.4834","tc","null","null","null","null","null","null","[3,2]","490.3195393898267","451.69148746561564","485.93246887449357"
"","canvas-keyboard-response","14","91614","0.0-6.0-1.1","554","","","","","clear_screen","null","null","","","critical","d","c","t","227.1683","158.0083","164","240","240","164","trueblood","0.09","w","240","164","164","240","227.1683","158.0083","39360","39360","35894.4834","tc","null","null","null","null","null","null","[3,2]","490.3195393898267","451.69148746561564","485.93246887449357"
"","canvas-keyboard-response","15","92122","0.0-6.0-2.1","554","","","","","rectangles no change","null","null","","","critical","d","c","t","227.1683","158.0083","164","240","240","164","trueblood","0.09","w","240","164","164","240","227.1683","158.0083","39360","39360","35894.4834","tc","null","null","null","null","null","null","[3,2]","490.3195393898267","451.69148746561564","485.93246887449357"
"","canvas-keyboard-response","16","93459","0.0-6.0-3.1","554","","","","","rectangles with change","null","null","","","critical","d","c","t","227.1683","158.0083","164","240","240","164","trueblood","0.09","w","240","164","164","240","227.1683","158.0083","39360","39360","35894.4834","tc","null","null","null","null","null","null","[3,2]","490.3195393898267","451.69148746561564","485.93246887449357"
"","canvas-keyboard-response","17","93479","0.0-6.0-4.1","554","","","","","clear_screen","null","null","","","critical","d","c","t","227.1683","158.0083","164","240","240","164","trueblood","0.09","w","240","164","164","240","227.1683","158.0083","39360","39360","35894.4834","tc","null","null","null","null","null","null","[3,2]","490.3195393898267","451.69148746561564","485.93246887449357"
"","canvas-keyboard-response","18","95176","0.0-6.0-5.1","554","","","","","make choice","1688","2","","","critical","d","c","t","227.1683","158.0083","164","240","240","164","trueblood","0.09","w","240","164","164","240","227.1683","158.0083","39360","39360","35894.4834","tc","null","null","null","null","null","null","[3,2]","","",""
"","canvas-keyboard-response","19","95196","0.0-6.0-6.1","554","","","","","clear_screen","null","null","","","critical","d","c","t","227.1683","158.0083","164","240","240","164","trueblood","0.09","w","240","164","164","240","227.1683","158.0083","39360","39360","35894.4834","tc","null","null","null","null","null","null","[3,2]","","",""
"","canvas-keyboard-response","20","95397","0.0-6.0-0.2","554","","","","","pre trial waiting period","null","null","","","critical","d","t","c","160.6713","232.8713","164","240","240","164","spektor","0.05","h","164","240","240","164","160.6713","232.8713","39360","39360","37415.7294","td","null","null","null","null","null","null","[2,1]","472.2308829726365","136.38176871770395","504.9988482066319"
"","canvas-keyboard-response","21","95422","0.0-6.0-1.2","554","","","","","clear_screen","null","null","","","critical","d","t","c","160.6713","232.8713","164","240","240","164","spektor","0.05","h","164","240","240","164","160.6713","232.8713","39360","39360","37415.7294","td","null","null","null","null","null","null","[2,1]","472.2308829726365","136.38176871770395","504.9988482066319"
"","canvas-keyboard-response","22","95929","0.0-6.0-2.2","554","","","","","rectangles no change","null","null","","","critical","d","t","c","160.6713","232.8713","164","240","240","164","spektor","0.05","h","164","240","240","164","160.6713","232.8713","39360","39360","37415.7294","td","null","null","null","null","null","null","[2,1]","472.2308829726365","136.38176871770395","504.9988482066319"
"","canvas-keyboard-response","23","97269","0.0-6.0-3.2","554","","","","","rectangles with change","null","null","","","critical","d","t","c","160.6713","232.8713","164","240","240","164","spektor","0.05","h","164","240","240","164","160.6713","232.8713","39360","39360","37415.7294","td","null","null","null","null","null","null","[2,1]","472.2308829726365","136.38176871770395","504.9988482066319"
"","canvas-keyboard-response","24","97291","0.0-6.0-4.2","554","","","","","clear_screen","null","null","","","critical","d","t","c","160.6713","232.8713","164","240","240","164","spektor","0.05","h","164","240","240","164","160.6713","232.8713","39360","39360","37415.7294","td","null","null","null","null","null","null","[2,1]","472.2308829726365","136.38176871770395","504.9988482066319"
"","canvas-keyboard-response","25","98345","0.0-6.0-5.2","554","","","","","make choice","1048","1","","","critical","d","t","c","160.6713","232.8713","164","240","240","164","spektor","0.05","h","164","240","240","164","160.6713","232.8713","39360","39360","37415.7294","td","null","null","null","null","null","null","[2,1]","","",""
"","canvas-keyboard-response","26","98363","0.0-6.0-6.2","554","","","","","clear_screen","null","null","","","critical","d","t","c","160.6713","232.8713","164","240","240","164","spektor","0.05","h","164","240","240","164","160.6713","232.8713","39360","39360","37415.7294","td","null","null","null","null","null","null","[2,1]","","",""
"","canvas-keyboard-response","27","98564","0.0-6.0-0.3","554","","","","","pre trial waiting period","null","null","","","critical","c","t","d","164","240","240","164","220.0396","154.6796","spektor","0.14","w","240","164","164","240","220.0396","154.6796","39360","39360","34035.6388","td","null","null","null","null","null","null","[2,3]","459.9690295850853","185.552377767676","527.7402368758832"
"","canvas-keyboard-response","28","98589","0.0-6.0-1.3","554","","","","","clear_screen","null","null","","","critical","c","t","d","164","240","240","164","220.0396","154.6796","spektor","0.14","w","240","164","164","240","220.0396","154.6796","39360","39360","34035.6388","td","null","null","null","null","null","null","[2,3]","459.9690295850853","185.552377767676","527.7402368758832"
"","canvas-keyboard-response","29","99096","0.0-6.0-2.3","554","","","","","rectangles no change","null","null","","","critical","c","t","d","164","240","240","164","220.0396","154.6796","spektor","0.14","w","240","164","164","240","220.0396","154.6796","39360","39360","34035.6388","td","null","null","null","null","null","null","[2,3]","459.9690295850853","185.552377767676","527.7402368758832"
"","canvas-keyboard-response","30","100431","0.0-6.0-3.3","554","","","","","rectangles with change","null","null","","","critical","c","t","d","164","240","240","164","220.0396","154.6796","spektor","0.14","w","240","164","164","240","220.0396","154.6796","39360","39360","34035.6388","td","null","null","null","null","null","null","[2,3]","459.9690295850853","185.552377767676","527.7402368758832"
"","canvas-keyboard-response","31","100450","0.0-6.0-4.3","554","","","","","clear_screen","null","null","","","critical","c","t","d","164","240","240","164","220.0396","154.6796","spektor","0.14","w","240","164","164","240","220.0396","154.6796","39360","39360","34035.6388","td","null","null","null","null","null","null","[2,3]","459.9690295850853","185.552377767676","527.7402368758832"
"","canvas-keyboard-response","32","102953","0.0-6.0-5.3","554","","","","","make choice","2493","2","","","critical","c","t","d","164","240","240","164","220.0396","154.6796","spektor","0.14","w","240","164","164","240","220.0396","154.6796","39360","39360","34035.6388","td","null","null","null","null","null","null","[2,3]","","",""
"","canvas-keyboard-response","33","102974","0.0-6.0-6.3","554","","","","","clear_screen","null","null","","","critical","c","t","d","164","240","240","164","220.0396","154.6796","spektor","0.14","w","240","164","164","240","220.0396","154.6796","39360","39360","34035.6388","td","null","null","null","null","null","null","[2,3]","","",""
"","canvas-keyboard-response","34","103175","0.0-6.0-0.4","554","","","","","pre trial waiting period","null","null","","","critical","c","t","d","240","164","164","240","158.0083","227.1683","spektor","0.09","h","164","240","240","164","158.0083","227.1683","39360","39360","35894.4834","td","null","null","null","null","null","null","[2,3]","501.9664422743883","95.09919920128726","472.21780089246505"
"","canvas-keyboard-response","35","103195","0.0-6.0-1.4","554","","","","","clear_screen","null","null","","","critical","c","t","d","240","164","164","240","158.0083","227.1683","spektor","0.09","h","164","240","240","164","158.0083","227.1683","39360","39360","35894.4834","td","null","null","null","null","null","null","[2,3]","501.9664422743883","95.09919920128726","472.21780089246505"
"","canvas-keyboard-response","36","103702","0.0-6.0-2.4","554","","","","","rectangles no change","null","null","","","critical","c","t","d","240","164","164","240","158.0083","227.1683","spektor","0.09","h","164","240","240","164","158.0083","227.1683","39360","39360","35894.4834","td","null","null","null","null","null","null","[2,3]","501.9664422743883","95.09919920128726","472.21780089246505"
"","canvas-keyboard-response","37","105041","0.0-6.0-3.4","554","","","","","rectangles with change","null","null","","","critical","c","t","d","240","164","164","240","158.0083","227.1683","spektor","0.09","h","164","240","240","164","158.0083","227.1683","39360","39360","35894.4834","td","null","null","null","null","null","null","[2,3]","501.9664422743883","95.09919920128726","472.21780089246505"
"","canvas-keyboard-response","38","105062","0.0-6.0-4.4","554","","","","","clear_screen","null","null","","","critical","c","t","d","240","164","164","240","158.0083","227.1683","spektor","0.09","h","164","240","240","164","158.0083","227.1683","39360","39360","35894.4834","td","null","null","null","null","null","null","[2,3]","501.9664422743883","95.09919920128726","472.21780089246505"
"","canvas-keyboard-response","39","105673","0.0-6.0-5.4","554","","","","","make choice","606","2","","","critical","c","t","d","240","164","164","240","158.0083","227.1683","spektor","0.09","h","164","240","240","164","158.0083","227.1683","39360","39360","35894.4834","td","null","null","null","null","null","null","[2,3]","","",""
"","canvas-keyboard-response","40","105693","0.0-6.0-6.4","554","","","","","clear_screen","null","null","","","critical","c","t","d","240","164","164","240","158.0083","227.1683","spektor","0.09","h","164","240","240","164","158.0083","227.1683","39360","39360","35894.4834","td","null","null","null","null","null","null","[2,3]","","",""
"","canvas-keyboard-response","41","105895","0.0-6.0-0.5","554","","","","","pre trial waiting period","null","null","","","critical","t","d","c","240","164","240","164","164","240","trueblood","0","w","240","164","164","240","240","164","39360","39360","39360","dc","null","null","null","null","null","null","[2,3]","506.50278278864266","471.15757178615155","457.390780862397"
"","canvas-keyboard-response","42","105916","0.0-6.0-1.5","554","","","","","clear_screen","null","null","","","critical","t","d","c","240","164","240","164","164","240","trueblood","0","w","240","164","164","240","240","164","39360","39360","39360","dc","null","null","null","null","null","null","[2,3]","506.50278278864266","471.15757178615155","457.390780862397"
"","canvas-keyboard-response","43","106424","0.0-6.0-2.5","554","","","","","rectangles no change","null","null","","","critical","t","d","c","240","164","240","164","164","240","trueblood","0","w","240","164","164","240","240","164","39360","39360","39360","dc","null","null","null","null","null","null","[2,3]","506.50278278864266","471.15757178615155","457.390780862397"
"","canvas-keyboard-response","44","107759","0.0-6.0-3.5","554","","","","","rectangles with change","null","null","","","critical","t","d","c","240","164","240","164","164","240","trueblood","0","w","240","164","164","240","240","164","39360","39360","39360","dc","null","null","null","null","null","null","[2,3]","506.50278278864266","471.15757178615155","457.390780862397"
"","canvas-keyboard-response","45","107779","0.0-6.0-4.5","554","","","","","clear_screen","null","null","","","critical","t","d","c","240","164","240","164","164","240","trueblood","0","w","240","164","164","240","240","164","39360","39360","39360","dc","null","null","null","null","null","null","[2,3]","506.50278278864266","471.15757178615155","457.390780862397"
"","canvas-keyboard-response","46","110001","0.0-6.0-5.5","554","","","","","make choice","2215","2","","","critical","t","d","c","240","164","240","164","164","240","trueblood","0","w","240","164","164","240","240","164","39360","39360","39360","dc","null","null","null","null","null","null","[2,3]","","",""
"","canvas-keyboard-response","47","110021","0.0-6.0-6.5","554","","","","","clear_screen","null","null","","","critical","t","d","c","240","164","240","164","164","240","trueblood","0","w","240","164","164","240","240","164","39360","39360","39360","dc","null","null","null","null","null","null","[2,3]","","",""
"","canvas-keyboard-response","48","110222","0.0-6.0-0.6","554","","","","","pre trial waiting period","null","null","","","critical","d","t","c","162.6685","237.1485","164","240","240","164","trueblood","0.02","h","164","240","240","164","162.6685","237.1485","39360","39360","38576.5967","tc","null","null","null","null","null","null","[2,3]","441.0454764192684","437.0959273922533","482.26096586596134"
"","canvas-keyboard-response","49","110242","0.0-6.0-1.6","554","","","","","clear_screen","null","null","","","critical","d","t","c","162.6685","237.1485","164","240","240","164","trueblood","0.02","h","164","240","240","164","162.6685","237.1485","39360","39360","38576.5967","tc","null","null","null","null","null","null","[2,3]","441.0454764192684","437.0959273922533","482.26096586596134"
"","canvas-keyboard-response","50","110749","0.0-6.0-2.6","554","","","","","rectangles no change","null","null","","","critical","d","t","c","162.6685","237.1485","164","240","240","164","trueblood","0.02","h","164","240","240","164","162.6685","237.1485","39360","39360","38576.5967","tc","null","null","null","null","null","null","[2,3]","441.0454764192684","437.0959273922533","482.26096586596134"
"","canvas-keyboard-response","51","112086","0.0-6.0-3.6","554","","","","","rectangles with change","null","null","","","critical","d","t","c","162.6685","237.1485","164","240","240","164","trueblood","0.02","h","164","240","240","164","162.6685","237.1485","39360","39360","38576.5967","tc","null","null","null","null","null","null","[2,3]","441.0454764192684","437.0959273922533","482.26096586596134"
"","canvas-keyboard-response","52","112109","0.0-6.0-4.6","554","","","","","clear_screen","null","null","","","critical","d","t","c","162.6685","237.1485","164","240","240","164","trueblood","0.02","h","164","240","240","164","162.6685","237.1485","39360","39360","38576.5967","tc","null","null","null","null","null","null","[2,3]","441.0454764192684","437.0959273922533","482.26096586596134"
"","canvas-keyboard-response","53","112961","0.0-6.0-5.6","554","","","","","make choice","846","2","","","critical","d","t","c","162.6685","237.1485","164","240","240","164","trueblood","0.02","h","164","240","240","164","162.6685","237.1485","39360","39360","38576.5967","tc","null","null","null","null","null","null","[2,3]","","",""
"","canvas-keyboard-response","54","112983","0.0-6.0-6.6","554","","","","","clear_screen","null","null","","","critical","d","t","c","162.6685","237.1485","164","240","240","164","trueblood","0.02","h","164","240","240","164","162.6685","237.1485","39360","39360","38576.5967","tc","null","null","null","null","null","null","[2,3]","","",""
"","canvas-keyboard-response","55","113183","0.0-6.0-0.7","554","","","","","pre trial waiting period","null","null","","","catch","sw","l","sh","180","200","275","182","219","195","spektor","null","null","null","null","null","null","null","null","null","null","null","","180","200","260","200","36000","52000","[1,2]","487.4258787973204","188.5073755800199","508.24858261161336"
"","canvas-keyboard-response","56","113209","0.0-6.0-1.7","554","","","","","clear_screen","null","null","","","catch","sw","l","sh","180","200","275","182","219","195","spektor","null","null","null","null","null","null","null","null","null","null","null","","180","200","260","200","36000","52000","[1,2]","487.4258787973204","188.5073755800199","508.24858261161336"
"","canvas-keyboard-response","57","113720","0.0-6.0-2.7","554","","","","","rectangles no change","null","null","","","catch","sw","l","sh","180","200","275","182","219","195","spektor","null","null","null","null","null","null","null","null","null","null","null","","180","200","260","200","36000","52000","[1,2]","487.4258787973204","188.5073755800199","508.24858261161336"
"","canvas-keyboard-response","58","115060","0.0-6.0-3.7","554","","","","","rectangles with change","null","null","","","catch","sw","l","sh","180","200","275","182","219","195","spektor","null","null","null","null","null","null","null","null","null","null","null","","180","200","260","200","36000","52000","[1,2]","487.4258787973204","188.5073755800199","508.24858261161336"
"","canvas-keyboard-response","59","115082","0.0-6.0-4.7","554","","","","","clear_screen","null","null","","","catch","sw","l","sh","180","200","275","182","219","195","spektor","null","null","null","null","null","null","null","null","null","null","null","","180","200","260","200","36000","52000","[1,2]","487.4258787973204","188.5073755800199","508.24858261161336"
"","canvas-keyboard-response","60","117049","0.0-6.0-5.7","554","","","","","make choice","1961","1","","","catch","sw","l","sh","180","200","275","182","219","195","spektor","null","null","null","null","null","null","null","null","null","null","null","","180","200","260","200","36000","52000","[1,2]","","",""
"","canvas-keyboard-response","61","117067","0.0-6.0-6.7","554","","","","","clear_screen","null","null","","","catch","sw","l","sh","180","200","275","182","219","195","spektor","null","null","null","null","null","null","null","null","null","null","null","","180","200","260","200","36000","52000","[1,2]","","",""
"","canvas-keyboard-response","62","117268","0.0-6.0-0.8","554","","","","","pre trial waiting period","null","null","","","catch","sh","sw","l","194","146","164","193","227","284","trueblood","null","null","null","null","null","null","null","null","null","null","null","","180","200","260","200","36000","52000","[1,3]","505.69696377728263","461.77510738345734","402.64340483231615"
"","canvas-keyboard-response","63","117288","0.0-6.0-1.8","554","","","","","clear_screen","null","null","","","catch","sh","sw","l","194","146","164","193","227","284","trueblood","null","null","null","null","null","null","null","null","null","null","null","","180","200","260","200","36000","52000","[1,3]","505.69696377728263","461.77510738345734","402.64340483231615"
"","canvas-keyboard-response","64","117796","0.0-6.0-2.8","554","","","","","rectangles no change","null","null","","","catch","sh","sw","l","194","146","164","193","227","284","trueblood","null","null","null","null","null","null","null","null","null","null","null","","180","200","260","200","36000","52000","[1,3]","505.69696377728263","461.77510738345734","402.64340483231615"
"","canvas-keyboard-response","65","119131","0.0-6.0-3.8","554","","","","","rectangles with change","null","null","","","catch","sh","sw","l","194","146","164","193","227","284","trueblood","null","null","null","null","null","null","null","null","null","null","null","","180","200","260","200","36000","52000","[1,3]","505.69696377728263","461.77510738345734","402.64340483231615"
"","canvas-keyboard-response","66","119154","0.0-6.0-4.8","554","","","","","clear_screen","null","null","","","catch","sh","sw","l","194","146","164","193","227","284","trueblood","null","null","null","null","null","null","null","null","null","null","null","","180","200","260","200","36000","52000","[1,3]","505.69696377728263","461.77510738345734","402.64340483231615"
"","canvas-keyboard-response","67","119649","0.0-6.0-5.8","554","","","","","make choice","488","3","","","catch","sh","sw","l","194","146","164","193","227","284","trueblood","null","null","null","null","null","null","null","null","null","null","null","","180","200","260","200","36000","52000","[1,3]","","",""
"","canvas-keyboard-response","68","119669","0.0-6.0-6.8","554","","","","","clear_screen","null","null","","","catch","sh","sw","l","194","146","164","193","227","284","trueblood","null","null","null","null","null","null","null","null","null","null","null","","180","200","260","200","36000","52000","[1,3]","","",""
"","canvas-keyboard-response","69","119870","0.0-6.0-0.9","554","","","","","pre trial waiting period","null","null","","","critical","c","t","d","164","240","240","164","227.1683","158.0083","spektor","0.09","w","240","164","164","240","227.1683","158.0083","39360","39360","35894.4834","td","null","null","null","null","null","null","[2,3]","463.9826390750211","212.85316342672687","540.0619216865937"
"","canvas-keyboard-response","70","119890","0.0-6.0-1.9","554","","","","","clear_screen","null","null","","","critical","c","t","d","164","240","240","164","227.1683","158.0083","spektor","0.09","w","240","164","164","240","227.1683","158.0083","39360","39360","35894.4834","td","null","null","null","null","null","null","[2,3]","463.9826390750211","212.85316342672687","540.0619216865937"
"","canvas-keyboard-response","71","120400","0.0-6.0-2.9","554","","","","","rectangles no change","null","null","","","critical","c","t","d","164","240","240","164","227.1683","158.0083","spektor","0.09","w","240","164","164","240","227.1683","158.0083","39360","39360","35894.4834","td","null","null","null","null","null","null","[2,3]","463.9826390750211","212.85316342672687","540.0619216865937"
"","canvas-keyboard-response","72","121735","0.0-6.0-3.9","554","","","","","rectangles with change","null","null","","","critical","c","t","d","164","240","240","164","227.1683","158.0083","spektor","0.09","w","240","164","164","240","227.1683","158.0083","39360","39360","35894.4834","td","null","null","null","null","null","null","[2,3]","463.9826390750211","212.85316342672687","540.0619216865937"
"","canvas-keyboard-response","73","121757","0.0-6.0-4.9","554","","","","","clear_screen","null","null","","","critical","c","t","d","164","240","240","164","227.1683","158.0083","spektor","0.09","w","240","164","164","240","227.1683","158.0083","39360","39360","35894.4834","td","null","null","null","null","null","null","[2,3]","463.9826390750211","212.85316342672687","540.0619216865937"
"","canvas-keyboard-response","74","122049","0.0-6.0-5.9","554","","","","","make choice","285","2","","","critical","c","t","d","164","240","240","164","227.1683","158.0083","spektor","0.09","w","240","164","164","240","227.1683","158.0083","39360","39360","35894.4834","td","null","null","null","null","null","null","[2,3]","","",""
"","canvas-keyboard-response","75","122067","0.0-6.0-6.9","554","","","","","clear_screen","null","null","","","critical","c","t","d","164","240","240","164","227.1683","158.0083","spektor","0.09","w","240","164","164","240","227.1683","158.0083","39360","39360","35894.4834","td","null","null","null","null","null","null","[2,3]","","",""
"","canvas-keyboard-response","76","122268","0.0-6.0-0.10","554","","","","","pre trial waiting period","null","null","","","critical","d","t","c","160.6713","232.8713","164","240","240","164","spektor","0.05","h","164","240","240","164","160.6713","232.8713","39360","39360","37415.7294","tc","null","null","null","null","null","null","[2,3]","494.5345846748668","126.35503681303257","509.2262315428237"
"","canvas-keyboard-response","77","122289","0.0-6.0-1.10","554","","","","","clear_screen","null","null","","","critical","d","t","c","160.6713","232.8713","164","240","240","164","spektor","0.05","h","164","240","240","164","160.6713","232.8713","39360","39360","37415.7294","tc","null","null","null","null","null","null","[2,3]","494.5345846748668","126.35503681303257","509.2262315428237"
"","canvas-keyboard-response","78","122799","0.0-6.0-2.10","554","","","","","rectangles no change","null","null","","","critical","d","t","c","160.6713","232.8713","164","240","240","164","spektor","0.05","h","164","240","240","164","160.6713","232.8713","39360","39360","37415.7294","tc","null","null","null","null","null","null","[2,3]","494.5345846748668","126.35503681303257","509.2262315428237"
"","canvas-keyboard-response","79","124137","0.0-6.0-3.10","554","","","","","rectangles with change","null","null","","","critical","d","t","c","160.6713","232.8713","164","240","240","164","spektor","0.05","h","164","240","240","164","160.6713","232.8713","39360","39360","37415.7294","tc","null","null","null","null","null","null","[2,3]","494.5345846748668","126.35503681303257","509.2262315428237"
"","canvas-keyboard-response","80","124158","0.0-6.0-4.10","554","","","","","clear_screen","null","null","","","critical","d","t","c","160.6713","232.8713","164","240","240","164","spektor","0.05","h","164","240","240","164","160.6713","232.8713","39360","39360","37415.7294","tc","null","null","null","null","null","null","[2,3]","494.5345846748668","126.35503681303257","509.2262315428237"
"","canvas-keyboard-response","81","124650","0.0-6.0-5.10","554","","","","","make choice","483","3","","","critical","d","t","c","160.6713","232.8713","164","240","240","164","spektor","0.05","h","164","240","240","164","160.6713","232.8713","39360","39360","37415.7294","tc","null","null","null","null","null","null","[2,3]","","",""
"","canvas-keyboard-response","82","124669","0.0-6.0-6.10","554","","","","","clear_screen","null","null","","","critical","d","t","c","160.6713","232.8713","164","240","240","164","spektor","0.05","h","164","240","240","164","160.6713","232.8713","39360","39360","37415.7294","tc","null","null","null","null","null","null","[2,3]","","",""
"","canvas-keyboard-response","83","124870","0.0-6.0-0.11","554","","","","","pre trial waiting period","null","null","","","catch","l","sw","sh","233","255","163","235","234","186","trueblood","null","null","null","null","null","null","null","null","null","null","null","","180","200","260","200","36000","52000","[1,2]","425.6483413697132","463.4159516200527","501.60714720644904"
"","canvas-keyboard-response","84","124889","0.0-6.0-1.11","554","","","","","clear_screen","null","null","","","catch","l","sw","sh","233","255","163","235","234","186","trueblood","null","null","null","null","null","null","null","null","null","null","null","","180","200","260","200","36000","52000","[1,2]","425.6483413697132","463.4159516200527","501.60714720644904"
"","canvas-keyboard-response","85","125398","0.0-6.0-2.11","554","","","","","rectangles no change","null","null","","","catch","l","sw","sh","233","255","163","235","234","186","trueblood","null","null","null","null","null","null","null","null","null","null","null","","180","200","260","200","36000","52000","[1,2]","425.6483413697132","463.4159516200527","501.60714720644904"
"","canvas-keyboard-response","86","126733","0.0-6.0-3.11","554","","","","","rectangles with change","null","null","","","catch","l","sw","sh","233","255","163","235","234","186","trueblood","null","null","null","null","null","null","null","null","null","null","null","","180","200","260","200","36000","52000","[1,2]","425.6483413697132","463.4159516200527","501.60714720644904"
"","canvas-keyboard-response","87","126753","0.0-6.0-4.11","554","","","","","clear_screen","null","null","","","catch","l","sw","sh","233","255","163","235","234","186","trueblood","null","null","null","null","null","null","null","null","null","null","null","","180","200","260","200","36000","52000","[1,2]","425.6483413697132","463.4159516200527","501.60714720644904"
"","canvas-keyboard-response","88","127105","0.0-6.0-5.11","554","","","","","make choice","345","1","","","catch","l","sw","sh","233","255","163","235","234","186","trueblood","null","null","null","null","null","null","null","null","null","null","null","","180","200","260","200","36000","52000","[1,2]","","",""
"","canvas-keyboard-response","89","127125","0.0-6.0-6.11","554","","","","","clear_screen","null","null","","","catch","l","sw","sh","233","255","163","235","234","186","trueblood","null","null","null","null","null","null","null","null","null","null","null","","180","200","260","200","36000","52000","[1,2]","","",""
"","canvas-keyboard-response","90","127326","0.0-6.0-0.12","554","","","","","pre trial waiting period","null","null","","","critical","c","d","t","164","240","220.0396","154.6796","240","164","trueblood","0.14","w","240","164","164","240","220.0396","154.6796","39360","39360","34035.6388","dc","null","null","null","null","null","null","[2,1]","447.8033477943399","475.74000263313445","500.94884976608137"
"","canvas-keyboard-response","91","127345","0.0-6.0-1.12","554","","","","","clear_screen","null","null","","","critical","c","d","t","164","240","220.0396","154.6796","240","164","trueblood","0.14","w","240","164","164","240","220.0396","154.6796","39360","39360","34035.6388","dc","null","null","null","null","null","null","[2,1]","447.8033477943399","475.74000263313445","500.94884976608137"
"","canvas-keyboard-response","92","127855","0.0-6.0-2.12","554","","","","","rectangles no change","null","null","","","critical","c","d","t","164","240","220.0396","154.6796","240","164","trueblood","0.14","w","240","164","164","240","220.0396","154.6796","39360","39360","34035.6388","dc","null","null","null","null","null","null","[2,1]","447.8033477943399","475.74000263313445","500.94884976608137"
"","canvas-keyboard-response","93","129190","0.0-6.0-3.12","554","","","","","rectangles with change","null","null","","","critical","c","d","t","164","240","220.0396","154.6796","240","164","trueblood","0.14","w","240","164","164","240","220.0396","154.6796","39360","39360","34035.6388","dc","null","null","null","null","null","null","[2,1]","447.8033477943399","475.74000263313445","500.94884976608137"
"","canvas-keyboard-response","94","129210","0.0-6.0-4.12","554","","","","","clear_screen","null","null","","","critical","c","d","t","164","240","220.0396","154.6796","240","164","trueblood","0.14","w","240","164","164","240","220.0396","154.6796","39360","39360","34035.6388","dc","null","null","null","null","null","null","[2,1]","447.8033477943399","475.74000263313445","500.94884976608137"
"","canvas-keyboard-response","95","129616","0.0-6.0-5.12","554","","","","","make choice","397","1","","","critical","c","d","t","164","240","220.0396","154.6796","240","164","trueblood","0.14","w","240","164","164","240","220.0396","154.6796","39360","39360","34035.6388","dc","null","null","null","null","null","null","[2,1]","","",""
"","canvas-keyboard-response","96","129638","0.0-6.0-6.12","554","","","","","clear_screen","null","null","","","critical","c","d","t","164","240","220.0396","154.6796","240","164","trueblood","0.14","w","240","164","164","240","220.0396","154.6796","39360","39360","34035.6388","dc","null","null","null","null","null","null","[2,1]","","",""
"","canvas-keyboard-response","97","129838","0.0-6.0-0.13","554","","","","","pre trial waiting period","null","null","","","catch","l","sh","sw","199","220","168","156","150","188","spektor","null","null","null","null","null","null","null","null","null","null","null","","180","200","260","200","36000","52000","[1,2]","501.2998798191786","175.72573571787765","495.9811516738244"
"","canvas-keyboard-response","98","129862","0.0-6.0-1.13","554","","","","","clear_screen","null","null","","","catch","l","sh","sw","199","220","168","156","150","188","spektor","null","null","null","null","null","null","null","null","null","null","null","","180","200","260","200","36000","52000","[1,2]","501.2998798191786","175.72573571787765","495.9811516738244"
"","canvas-keyboard-response","99","130370","0.0-6.0-2.13","554","","","","","rectangles no change","null","null","","","catch","l","sh","sw","199","220","168","156","150","188","spektor","null","null","null","null","null","null","null","null","null","null","null","","180","200","260","200","36000","52000","[1,2]","501.2998798191786","175.72573571787765","495.9811516738244"
"","canvas-keyboard-response","100","131710","0.0-6.0-3.13","554","","","","","rectangles with change","null","null","","","catch","l","sh","sw","199","220","168","156","150","188","spektor","null","null","null","null","null","null","null","null","null","null","null","","180","200","260","200","36000","52000","[1,2]","501.2998798191786","175.72573571787765","495.9811516738244"
"","canvas-keyboard-response","101","131730","0.0-6.0-4.13","554","","","","","clear_screen","null","null","","","catch","l","sh","sw","199","220","168","156","150","188","spektor","null","null","null","null","null","null","null","null","null","null","null","","180","200","260","200","36000","52000","[1,2]","501.2998798191786","175.72573571787765","495.9811516738244"
"","canvas-keyboard-response","102","132025","0.0-6.0-5.13","554","","","","","make choice","288","1","","","catch","l","sh","sw","199","220","168","156","150","188","spektor","null","null","null","null","null","null","null","null","null","null","null","","180","200","260","200","36000","52000","[1,2]","","",""
"","canvas-keyboard-response","103","132044","0.0-6.0-6.13","554","","","","","clear_screen","null","null","","","catch","l","sh","sw","199","220","168","156","150","188","spektor","null","null","null","null","null","null","null","null","null","null","null","","180","200","260","200","36000","52000","[1,2]","","",""
"","canvas-keyboard-response","104","132245","0.0-6.0-0.14","554","","","","","pre trial waiting period","null","null","","","critical","c","d","t","240","164","154.6796","220.0396","164","240","spektor","0.14","h","164","240","240","164","154.6796","220.0396","39360","39360","34035.6388","dc","null","null","null","null","null","null","[2,1]","506.24504605280447","118.82203451191215","470.2919358279581"
"","canvas-keyboard-response","105","132267","0.0-6.0-1.14","554","","","","","clear_screen","null","null","","","critical","c","d","t","240","164","154.6796","220.0396","164","240","spektor","0.14","h","164","240","240","164","154.6796","220.0396","39360","39360","34035.6388","dc","null","null","null","null","null","null","[2,1]","506.24504605280447","118.82203451191215","470.2919358279581"
"","canvas-keyboard-response","106","132776","0.0-6.0-2.14","554","","","","","rectangles no change","null","null","","","critical","c","d","t","240","164","154.6796","220.0396","164","240","spektor","0.14","h","164","240","240","164","154.6796","220.0396","39360","39360","34035.6388","dc","null","null","null","null","null","null","[2,1]","506.24504605280447","118.82203451191215","470.2919358279581"
"","canvas-keyboard-response","107","134111","0.0-6.0-3.14","554","","","","","rectangles with change","null","null","","","critical","c","d","t","240","164","154.6796","220.0396","164","240","spektor","0.14","h","164","240","240","164","154.6796","220.0396","39360","39360","34035.6388","dc","null","null","null","null","null","null","[2,1]","506.24504605280447","118.82203451191215","470.2919358279581"
"","canvas-keyboard-response","108","134131","0.0-6.0-4.14","554","","","","","clear_screen","null","null","","","critical","c","d","t","240","164","154.6796","220.0396","164","240","spektor","0.14","h","164","240","240","164","154.6796","220.0396","39360","39360","34035.6388","dc","null","null","null","null","null","null","[2,1]","506.24504605280447","118.82203451191215","470.2919358279581"
"","canvas-keyboard-response","109","134432","0.0-6.0-5.14","554","","","","","make choice","294","1","","","critical","c","d","t","240","164","154.6796","220.0396","164","240","spektor","0.14","h","164","240","240","164","154.6796","220.0396","39360","39360","34035.6388","dc","null","null","null","null","null","null","[2,1]","","",""
"","canvas-keyboard-response","110","134450","0.0-6.0-6.14","554","","","","","clear_screen","null","null","","","critical","c","d","t","240","164","154.6796","220.0396","164","240","spektor","0.14","h","164","240","240","164","154.6796","220.0396","39360","39360","34035.6388","dc","null","null","null","null","null","null","[2,1]","","",""
"","canvas-keyboard-response","111","134651","0.0-6.0-0.15","554","","","","","pre trial waiting period","null","null","","","critical","d","c","t","232.8713","160.6713","164","240","240","164","spektor","0.05","w","240","164","164","240","232.8713","160.6713","39360","39360","37415.7294","td","null","null","null","null","null","null","[3,1]","519.7713058091896","148.9938096900744","533.9234712085619"
"","canvas-keyboard-response","112","134671","0.0-6.0-1.15","554","","","","","clear_screen","null","null","","","critical","d","c","t","232.8713","160.6713","164","240","240","164","spektor","0.05","w","240","164","164","240","232.8713","160.6713","39360","39360","37415.7294","td","null","null","null","null","null","null","[3,1]","519.7713058091896","148.9938096900744","533.9234712085619"
"","canvas-keyboard-response","113","135179","0.0-6.0-2.15","554","","","","","rectangles no change","null","null","","","critical","d","c","t","232.8713","160.6713","164","240","240","164","spektor","0.05","w","240","164","164","240","232.8713","160.6713","39360","39360","37415.7294","td","null","null","null","null","null","null","[3,1]","519.7713058091896","148.9938096900744","533.9234712085619"
"","canvas-keyboard-response","114","136517","0.0-6.0-3.15","554","","","","","rectangles with change","null","null","","","critical","d","c","t","232.8713","160.6713","164","240","240","164","spektor","0.05","w","240","164","164","240","232.8713","160.6713","39360","39360","37415.7294","td","null","null","null","null","null","null","[3,1]","519.7713058091896","148.9938096900744","533.9234712085619"
"","canvas-keyboard-response","115","136538","0.0-6.0-4.15","554","","","","","clear_screen","null","null","","","critical","d","c","t","232.8713","160.6713","164","240","240","164","spektor","0.05","w","240","164","164","240","232.8713","160.6713","39360","39360","37415.7294","td","null","null","null","null","null","null","[3,1]","519.7713058091896","148.9938096900744","533.9234712085619"
"","canvas-keyboard-response","116","136833","0.0-6.0-5.15","554","","","","","make choice","287","3","","","critical","d","c","t","232.8713","160.6713","164","240","240","164","spektor","0.05","w","240","164","164","240","232.8713","160.6713","39360","39360","37415.7294","td","null","null","null","null","null","null","[3,1]","","",""
"","canvas-keyboard-response","117","136851","0.0-6.0-6.15","554","","","","","clear_screen","null","null","","","critical","d","c","t","232.8713","160.6713","164","240","240","164","spektor","0.05","w","240","164","164","240","232.8713","160.6713","39360","39360","37415.7294","td","null","null","null","null","null","null","[3,1]","","",""
"","canvas-keyboard-response","118","137052","0.0-6.0-0.16","554","","","","","pre trial waiting period","null","null","","","catch","l","sh","sw","210","288","174","215","170","239","spektor","null","null","null","null","null","null","null","null","null","null","null","","180","200","260","200","36000","52000","[1,2]","450.43063693295437","128.04834440670004","465.21769323366027"
"","canvas-keyboard-response","119","137072","0.0-6.0-1.16","554","","","","","clear_screen","null","null","","","catch","l","sh","sw","210","288","174","215","170","239","spektor","null","null","null","null","null","null","null","null","null","null","null","","180","200","260","200","36000","52000","[1,2]","450.43063693295437","128.04834440670004","465.21769323366027"
"","canvas-keyboard-response","120","137580","0.0-6.0-2.16","554","","","","","rectangles no change","null","null","","","catch","l","sh","sw","210","288","174","215","170","239","spektor","null","null","null","null","null","null","null","null","null","null","null","","180","200","260","200","36000","52000","[1,2]","450.43063693295437","128.04834440670004","465.21769323366027"
"","canvas-keyboard-response","121","138920","0.0-6.0-3.16","554","","","","","rectangles with change","null","null","","","catch","l","sh","sw","210","288","174","215","170","239","spektor","null","null","null","null","null","null","null","null","null","null","null","","180","200","260","200","36000","52000","[1,2]","450.43063693295437","128.04834440670004","465.21769323366027"
"","canvas-keyboard-response","122","138940","0.0-6.0-4.16","554","","","","","clear_screen","null","null","","","catch","l","sh","sw","210","288","174","215","170","239","spektor","null","null","null","null","null","null","null","null","null","null","null","","180","200","260","200","36000","52000","[1,2]","450.43063693295437","128.04834440670004","465.21769323366027"
"","canvas-keyboard-response","123","139192","0.0-6.0-5.16","554","","","","","make choice","246","1","","","catch","l","sh","sw","210","288","174","215","170","239","spektor","null","null","null","null","null","null","null","null","null","null","null","","180","200","260","200","36000","52000","[1,2]","","",""
"","canvas-keyboard-response","124","139213","0.0-6.0-6.16","554","","","","","clear_screen","null","null","","","catch","l","sh","sw","210","288","174","215","170","239","spektor","null","null","null","null","null","null","null","null","null","null","null","","180","200","260","200","36000","52000","[1,2]","","",""
"","canvas-keyboard-response","125","139415","0.0-6.0-0.17","554","","","","","pre trial waiting period","null","null","","","critical","t","c","d","164","240","240","164","164","240","trueblood","0","h","164","240","240","164","164","240","39360","39360","39360","dc","null","null","null","null","null","null","[3,2]","419.85482975655","473.274601388352","434.86518604406683"
"","canvas-keyboard-response","126","139437","0.0-6.0-1.17","554","","","","","clear_screen","null","null","","","critical","t","c","d","164","240","240","164","164","240","trueblood","0","h","164","240","240","164","164","240","39360","39360","39360","dc","null","null","null","null","null","null","[3,2]","419.85482975655","473.274601388352","434.86518604406683"
"","canvas-keyboard-response","127","139944","0.0-6.0-2.17","554","","","","","rectangles no change","null","null","","","critical","t","c","d","164","240","240","164","164","240","trueblood","0","h","164","240","240","164","164","240","39360","39360","39360","dc","null","null","null","null","null","null","[3,2]","419.85482975655","473.274601388352","434.86518604406683"
"","canvas-keyboard-response","128","141278","0.0-6.0-3.17","554","","","","","rectangles with change","null","null","","","critical","t","c","d","164","240","240","164","164","240","trueblood","0","h","164","240","240","164","164","240","39360","39360","39360","dc","null","null","null","null","null","null","[3,2]","419.85482975655","473.274601388352","434.86518604406683"
"","canvas-keyboard-response","129","141301","0.0-6.0-4.17","554","","","","","clear_screen","null","null","","","critical","t","c","d","164","240","240","164","164","240","trueblood","0","h","164","240","240","164","164","240","39360","39360","39360","dc","null","null","null","null","null","null","[3,2]","419.85482975655","473.274601388352","434.86518604406683"
"","canvas-keyboard-response","130","141577","0.0-6.0-5.17","554","","","","","make choice","269","2","","","critical","t","c","d","164","240","240","164","164","240","trueblood","0","h","164","240","240","164","164","240","39360","39360","39360","dc","null","null","null","null","null","null","[3,2]","","",""
"","canvas-keyboard-response","131","141598","0.0-6.0-6.17","554","","","","","clear_screen","null","null","","","critical","t","c","d","164","240","240","164","164","240","trueblood","0","h","164","240","240","164","164","240","39360","39360","39360","dc","null","null","null","null","null","null","[3,2]","","",""
"","canvas-keyboard-response","132","141798","0.0-6.0-0.18","554","","","","","pre trial waiting period","null","null","","","critical","c","d","t","240","164","162.6685","237.1485","164","240","spektor","0.02","h","164","240","240","164","162.6685","237.1485","39360","39360","38576.5967","td","null","null","null","null","null","null","[3,2]","522.9973393025953","121.11204341846665","469.7246736156061"
"","canvas-keyboard-response","133","141818","0.0-6.0-1.18","554","","","","","clear_screen","null","null","","","critical","c","d","t","240","164","162.6685","237.1485","164","240","spektor","0.02","h","164","240","240","164","162.6685","237.1485","39360","39360","38576.5967","td","null","null","null","null","null","null","[3,2]","522.9973393025953","121.11204341846665","469.7246736156061"
"","canvas-keyboard-response","134","142330","0.0-6.0-2.18","554","","","","","rectangles no change","null","null","","","critical","c","d","t","240","164","162.6685","237.1485","164","240","spektor","0.02","h","164","240","240","164","162.6685","237.1485","39360","39360","38576.5967","td","null","null","null","null","null","null","[3,2]","522.9973393025953","121.11204341846665","469.7246736156061"
"","canvas-keyboard-response","135","143668","0.0-6.0-3.18","554","","","","","rectangles with change","null","null","","","critical","c","d","t","240","164","162.6685","237.1485","164","240","spektor","0.02","h","164","240","240","164","162.6685","237.1485","39360","39360","38576.5967","td","null","null","null","null","null","null","[3,2]","522.9973393025953","121.11204341846665","469.7246736156061"
"","canvas-keyboard-response","136","143689","0.0-6.0-4.18","554","","","","","clear_screen","null","null","","","critical","c","d","t","240","164","162.6685","237.1485","164","240","spektor","0.02","h","164","240","240","164","162.6685","237.1485","39360","39360","38576.5967","td","null","null","null","null","null","null","[3,2]","522.9973393025953","121.11204341846665","469.7246736156061"
"","canvas-keyboard-response","137","144072","0.0-6.0-5.18","554","","","","","make choice","376","3","","","critical","c","d","t","240","164","162.6685","237.1485","164","240","spektor","0.02","h","164","240","240","164","162.6685","237.1485","39360","39360","38576.5967","td","null","null","null","null","null","null","[3,2]","","",""
"","canvas-keyboard-response","138","144091","0.0-6.0-6.18","554","","","","","clear_screen","null","null","","","critical","c","d","t","240","164","162.6685","237.1485","164","240","spektor","0.02","h","164","240","240","164","162.6685","237.1485","39360","39360","38576.5967","td","null","null","null","null","null","null","[3,2]","","",""
"","canvas-keyboard-response","139","144293","0.0-6.0-0.19","554","","","","","pre trial waiting period","null","null","","","critical","t","c","d","164","240","240","164","164","240","spektor","0","h","164","240","240","164","164","240","39360","39360","39360","td","null","null","null","null","null","null","[1,3]","474.12405041064045","184.97793068799066","494.1056566200131"
"","canvas-keyboard-response","140","144314","0.0-6.0-1.19","554","","","","","clear_screen","null","null","","","critical","t","c","d","164","240","240","164","164","240","spektor","0","h","164","240","240","164","164","240","39360","39360","39360","td","null","null","null","null","null","null","[1,3]","474.12405041064045","184.97793068799066","494.1056566200131"
"","canvas-keyboard-response","141","144820","0.0-6.0-2.19","554","","","","","rectangles no change","null","null","","","critical","t","c","d","164","240","240","164","164","240","spektor","0","h","164","240","240","164","164","240","39360","39360","39360","td","null","null","null","null","null","null","[1,3]","474.12405041064045","184.97793068799066","494.1056566200131"
"","canvas-keyboard-response","142","146156","0.0-6.0-3.19","554","","","","","rectangles with change","null","null","","","critical","t","c","d","164","240","240","164","164","240","spektor","0","h","164","240","240","164","164","240","39360","39360","39360","td","null","null","null","null","null","null","[1,3]","474.12405041064045","184.97793068799066","494.1056566200131"
"","canvas-keyboard-response","143","146177","0.0-6.0-4.19","554","","","","","clear_screen","null","null","","","critical","t","c","d","164","240","240","164","164","240","spektor","0","h","164","240","240","164","164","240","39360","39360","39360","td","null","null","null","null","null","null","[1,3]","474.12405041064045","184.97793068799066","494.1056566200131"
"","canvas-keyboard-response","144","147033","0.0-6.0-5.19","554","","","","","make choice","850","1","","","critical","t","c","d","164","240","240","164","164","240","spektor","0","h","164","240","240","164","164","240","39360","39360","39360","td","null","null","null","null","null","null","[1,3]","","",""
"","canvas-keyboard-response","145","147052","0.0-6.0-6.19","554","","","","","clear_screen","null","null","","","critical","t","c","d","164","240","240","164","164","240","spektor","0","h","164","240","240","164","164","240","39360","39360","39360","td","null","null","null","null","null","null","[1,3]","","",""
"","canvas-keyboard-response","146","147253","0.0-6.0-0.20","554","","","","","pre trial waiting period","null","null","","","catch","sh","l","sw","169","154","222","188","146","222","spektor","null","null","null","null","null","null","null","null","null","null","null","","180","200","260","200","36000","52000","[1,2]","502.9288008706409","181.93122676202583","479.2467185104788"
"","canvas-keyboard-response","147","147279","0.0-6.0-1.20","554","","","","","clear_screen","null","null","","","catch","sh","l","sw","169","154","222","188","146","222","spektor","null","null","null","null","null","null","null","null","null","null","null","","180","200","260","200","36000","52000","[1,2]","502.9288008706409","181.93122676202583","479.2467185104788"
"","canvas-keyboard-response","148","147786","0.0-6.0-2.20","554","","","","","rectangles no change","null","null","","","catch","sh","l","sw","169","154","222","188","146","222","spektor","null","null","null","null","null","null","null","null","null","null","null","","180","200","260","200","36000","52000","[1,2]","502.9288008706409","181.93122676202583","479.2467185104788"
"","canvas-keyboard-response","149","149121","0.0-6.0-3.20","554","","","","","rectangles with change","null","null","","","catch","sh","l","sw","169","154","222","188","146","222","spektor","null","null","null","null","null","null","null","null","null","null","null","","180","200","260","200","36000","52000","[1,2]","502.9288008706409","181.93122676202583","479.2467185104788"
"","canvas-keyboard-response","150","149144","0.0-6.0-4.20","554","","","","","clear_screen","null","null","","","catch","sh","l","sw","169","154","222","188","146","222","spektor","null","null","null","null","null","null","null","null","null","null","null","","180","200","260","200","36000","52000","[1,2]","502.9288008706409","181.93122676202583","479.2467185104788"
"","canvas-keyboard-response","151","149401","0.0-6.0-5.20","554","","","","","make choice","252","2","","","catch","sh","l","sw","169","154","222","188","146","222","spektor","null","null","null","null","null","null","null","null","null","null","null","","180","200","260","200","36000","52000","[1,2]","","",""
"","canvas-keyboard-response","152","149420","0.0-6.0-6.20","554","","","","","clear_screen","null","null","","","catch","sh","l","sw","169","154","222","188","146","222","spektor","null","null","null","null","null","null","null","null","null","null","null","","180","200","260","200","36000","52000","[1,2]","","",""
"","canvas-keyboard-response","153","149621","0.0-6.0-0.21","554","","","","","pre trial waiting period","null","null","","","catch","sw","sh","l","180","200","206","170","225","188","trueblood","null","null","null","null","null","null","null","null","null","null","null","","180","200","260","200","36000","52000","[2,3]","478.28800951778965","481.15127668480784","497.00658949902277"
"","canvas-keyboard-response","154","149641","0.0-6.0-1.21","554","","","","","clear_screen","null","null","","","catch","sw","sh","l","180","200","206","170","225","188","trueblood","null","null","null","null","null","null","null","null","null","null","null","","180","200","260","200","36000","52000","[2,3]","478.28800951778965","481.15127668480784","497.00658949902277"
"","canvas-keyboard-response","155","150150","0.0-6.0-2.21","554","","","","","rectangles no change","null","null","","","catch","sw","sh","l","180","200","206","170","225","188","trueblood","null","null","null","null","null","null","null","null","null","null","null","","180","200","260","200","36000","52000","[2,3]","478.28800951778965","481.15127668480784","497.00658949902277"
"","canvas-keyboard-response","156","151485","0.0-6.0-3.21","554","","","","","rectangles with change","null","null","","","catch","sw","sh","l","180","200","206","170","225","188","trueblood","null","null","null","null","null","null","null","null","null","null","null","","180","200","260","200","36000","52000","[2,3]","478.28800951778965","481.15127668480784","497.00658949902277"
"","canvas-keyboard-response","157","151503","0.0-6.0-4.21","554","","","","","clear_screen","null","null","","","catch","sw","sh","l","180","200","206","170","225","188","trueblood","null","null","null","null","null","null","null","null","null","null","null","","180","200","260","200","36000","52000","[2,3]","478.28800951778965","481.15127668480784","497.00658949902277"
"","canvas-keyboard-response","158","151847","0.0-6.0-5.21","554","","","","","make choice","338","3","","","catch","sw","sh","l","180","200","206","170","225","188","trueblood","null","null","null","null","null","null","null","null","null","null","null","","180","200","260","200","36000","52000","[2,3]","","",""
"","canvas-keyboard-response","159","151865","0.0-6.0-6.21","554","","","","","clear_screen","null","null","","","catch","sw","sh","l","180","200","206","170","225","188","trueblood","null","null","null","null","null","null","null","null","null","null","null","","180","200","260","200","36000","52000","[2,3]","","",""
"","canvas-keyboard-response","160","152066","0.0-6.0-0.22","554","","","","","pre trial waiting period","null","null","","","critical","d","t","c","227.1683","158.0083","240","164","164","240","spektor","0.09","w","240","164","164","240","227.1683","158.0083","39360","39360","35894.4834","tc","null","null","null","null","null","null","[2,3]","537.5881809427141","204.08594245339816","464.3694597176616"
"","canvas-keyboard-response","161","152089","0.0-6.0-1.22","554","","","","","clear_screen","null","null","","","critical","d","t","c","227.1683","158.0083","240","164","164","240","spektor","0.09","w","240","164","164","240","227.1683","158.0083","39360","39360","35894.4834","tc","null","null","null","null","null","null","[2,3]","537.5881809427141","204.08594245339816","464.3694597176616"
"","canvas-keyboard-response","162","152597","0.0-6.0-2.22","554","","","","","rectangles no change","null","null","","","critical","d","t","c","227.1683","158.0083","240","164","164","240","spektor","0.09","w","240","164","164","240","227.1683","158.0083","39360","39360","35894.4834","tc","null","null","null","null","null","null","[2,3]","537.5881809427141","204.08594245339816","464.3694597176616"
"","canvas-keyboard-response","163","153937","0.0-6.0-3.22","554","","","","","rectangles with change","null","null","","","critical","d","t","c","227.1683","158.0083","240","164","164","240","spektor","0.09","w","240","164","164","240","227.1683","158.0083","39360","39360","35894.4834","tc","null","null","null","null","null","null","[2,3]","537.5881809427141","204.08594245339816","464.3694597176616"
"","canvas-keyboard-response","164","153961","0.0-6.0-4.22","554","","","","","clear_screen","null","null","","","critical","d","t","c","227.1683","158.0083","240","164","164","240","spektor","0.09","w","240","164","164","240","227.1683","158.0083","39360","39360","35894.4834","tc","null","null","null","null","null","null","[2,3]","537.5881809427141","204.08594245339816","464.3694597176616"
"","canvas-keyboard-response","165","154257","0.0-6.0-5.22","554","","","","","make choice","290","2","","","critical","d","t","c","227.1683","158.0083","240","164","164","240","spektor","0.09","w","240","164","164","240","227.1683","158.0083","39360","39360","35894.4834","tc","null","null","null","null","null","null","[2,3]","","",""
"","canvas-keyboard-response","166","154275","0.0-6.0-6.22","554","","","","","clear_screen","null","null","","","critical","d","t","c","227.1683","158.0083","240","164","164","240","spektor","0.09","w","240","164","164","240","227.1683","158.0083","39360","39360","35894.4834","tc","null","null","null","null","null","null","[2,3]","","",""
"","canvas-keyboard-response","167","154476","0.0-6.0-0.23","554","","","","","pre trial waiting period","null","null","","","critical","d","t","c","160.6713","232.8713","164","240","240","164","trueblood","0.05","h","164","240","240","164","160.6713","232.8713","39360","39360","37415.7294","dc","null","null","null","null","null","null","[1,3]","450.6114914947463","444.1461296916229","484.0570488875459"
"","canvas-keyboard-response","168","154497","0.0-6.0-1.23","554","","","","","clear_screen","null","null","","","critical","d","t","c","160.6713","232.8713","164","240","240","164","trueblood","0.05","h","164","240","240","164","160.6713","232.8713","39360","39360","37415.7294","dc","null","null","null","null","null","null","[1,3]","450.6114914947463","444.1461296916229","484.0570488875459"
"","canvas-keyboard-response","169","155002","0.0-6.0-2.23","554","","","","","rectangles no change","null","null","","","critical","d","t","c","160.6713","232.8713","164","240","240","164","trueblood","0.05","h","164","240","240","164","160.6713","232.8713","39360","39360","37415.7294","dc","null","null","null","null","null","null","[1,3]","450.6114914947463","444.1461296916229","484.0570488875459"
"","canvas-keyboard-response","170","156338","0.0-6.0-3.23","554","","","","","rectangles with change","null","null","","","critical","d","t","c","160.6713","232.8713","164","240","240","164","trueblood","0.05","h","164","240","240","164","160.6713","232.8713","39360","39360","37415.7294","dc","null","null","null","null","null","null","[1,3]","450.6114914947463","444.1461296916229","484.0570488875459"
"","canvas-keyboard-response","171","156358","0.0-6.0-4.23","554","","","","","clear_screen","null","null","","","critical","d","t","c","160.6713","232.8713","164","240","240","164","trueblood","0.05","h","164","240","240","164","160.6713","232.8713","39360","39360","37415.7294","dc","null","null","null","null","null","null","[1,3]","450.6114914947463","444.1461296916229","484.0570488875459"
"","canvas-keyboard-response","172","156825","0.0-6.0-5.23","554","","","","","make choice","461","3","","","critical","d","t","c","160.6713","232.8713","164","240","240","164","trueblood","0.05","h","164","240","240","164","160.6713","232.8713","39360","39360","37415.7294","dc","null","null","null","null","null","null","[1,3]","","",""
"","canvas-keyboard-response","173","156845","0.0-6.0-6.23","554","","","","","clear_screen","null","null","","","critical","d","t","c","160.6713","232.8713","164","240","240","164","trueblood","0.05","h","164","240","240","164","160.6713","232.8713","39360","39360","37415.7294","dc","null","null","null","null","null","null","[1,3]","","",""
"","canvas-keyboard-response","174","157046","0.0-6.0-0.24","554","","","","","pre trial waiting period","null","null","","","catch","sw","sh","l","180","200","220","219","235","217","spektor","null","null","null","null","null","null","null","null","null","null","null","","180","200","260","200","36000","52000","[2,3]","521.1448397688902","138.69717840028198","493.25541404235247"
"","canvas-keyboard-response","175","157066","0.0-6.0-1.24","554","","","","","clear_screen","null","null","","","catch","sw","sh","l","180","200","220","219","235","217","spektor","null","null","null","null","null","null","null","null","null","null","null","","180","200","260","200","36000","52000","[2,3]","521.1448397688902","138.69717840028198","493.25541404235247"
"","canvas-keyboard-response","176","157573","0.0-6.0-2.24","554","","","","","rectangles no change","null","null","","","catch","sw","sh","l","180","200","220","219","235","217","spektor","null","null","null","null","null","null","null","null","null","null","null","","180","200","260","200","36000","52000","[2,3]","521.1448397688902","138.69717840028198","493.25541404235247"
"","canvas-keyboard-response","177","158913","0.0-6.0-3.24","554","","","","","rectangles with change","null","null","","","catch","sw","sh","l","180","200","220","219","235","217","spektor","null","null","null","null","null","null","null","null","null","null","null","","180","200","260","200","36000","52000","[2,3]","521.1448397688902","138.69717840028198","493.25541404235247"
"","canvas-keyboard-response","178","158934","0.0-6.0-4.24","554","","","","","clear_screen","null","null","","","catch","sw","sh","l","180","200","220","219","235","217","spektor","null","null","null","null","null","null","null","null","null","null","null","","180","200","260","200","36000","52000","[2,3]","521.1448397688902","138.69717840028198","493.25541404235247"
"","canvas-keyboard-response","179","159385","0.0-6.0-5.24","554","","","","","make choice","445","3","","","catch","sw","sh","l","180","200","220","219","235","217","spektor","null","null","null","null","null","null","null","null","null","null","null","","180","200","260","200","36000","52000","[2,3]","","",""
"","canvas-keyboard-response","180","159404","0.0-6.0-6.24","554","","","","","clear_screen","null","null","","","catch","sw","sh","l","180","200","220","219","235","217","spektor","null","null","null","null","null","null","null","null","null","null","null","","180","200","260","200","36000","52000","[2,3]","","",""
"","canvas-keyboard-response","181","159604","0.0-6.0-0.25","554","","","","","pre trial waiting period","null","null","","","catch","l","sw","sh","265","163","198","172","200","177","trueblood","null","null","null","null","null","null","null","null","null","null","null","","180","200","260","200","36000","52000","[1,2]","502.60737542736905","486.41931567269864","465.9944317173722"
"","canvas-keyboard-response","182","159626","0.0-6.0-1.25","554","","","","","clear_screen","null","null","","","catch","l","sw","sh","265","163","198","172","200","177","trueblood","null","null","null","null","null","null","null","null","null","null","null","","180","200","260","200","36000","52000","[1,2]","502.60737542736905","486.41931567269864","465.9944317173722"
"","canvas-keyboard-response","183","160133","0.0-6.0-2.25","554","","","","","rectangles no change","null","null","","","catch","l","sw","sh","265","163","198","172","200","177","trueblood","null","null","null","null","null","null","null","null","null","null","null","","180","200","260","200","36000","52000","[1,2]","502.60737542736905","486.41931567269864","465.9944317173722"
"","canvas-keyboard-response","184","161473","0.0-6.0-3.25","554","","","","","rectangles with change","null","null","","","catch","l","sw","sh","265","163","198","172","200","177","trueblood","null","null","null","null","null","null","null","null","null","null","null","","180","200","260","200","36000","52000","[1,2]","502.60737542736905","486.41931567269864","465.9944317173722"
"","canvas-keyboard-response","185","161496","0.0-6.0-4.25","554","","","","","clear_screen","null","null","","","catch","l","sw","sh","265","163","198","172","200","177","trueblood","null","null","null","null","null","null","null","null","null","null","null","","180","200","260","200","36000","52000","[1,2]","502.60737542736905","486.41931567269864","465.9944317173722"
"","canvas-keyboard-response","186","161872","0.0-6.0-5.25","554","","","","","make choice","371","1","","","catch","l","sw","sh","265","163","198","172","200","177","trueblood","null","null","null","null","null","null","null","null","null","null","null","","180","200","260","200","36000","52000","[1,2]","","",""
"","canvas-keyboard-response","187","161891","0.0-6.0-6.25","554","","","","","clear_screen","null","null","","","catch","l","sw","sh","265","163","198","172","200","177","trueblood","null","null","null","null","null","null","null","null","null","null","null","","180","200","260","200","36000","52000","[1,2]","","",""
"","canvas-keyboard-response","188","162092","0.0-6.0-0.26","554","","","","","pre trial waiting period","null","null","","","critical","t","c","d","240","164","164","240","227.1683","158.0083","spektor","0.09","w","240","164","164","240","227.1683","158.0083","39360","39360","35894.4834","dc","null","null","null","null","null","null","[3,2]","521.6520721772774","115.58188783212802","496.7202629758301"
"","canvas-keyboard-response","189","162112","0.0-6.0-1.26","554","","","","","clear_screen","null","null","","","critical","t","c","d","240","164","164","240","227.1683","158.0083","spektor","0.09","w","240","164","164","240","227.1683","158.0083","39360","39360","35894.4834","dc","null","null","null","null","null","null","[3,2]","521.6520721772774","115.58188783212802","496.7202629758301"
"","canvas-keyboard-response","190","162626","0.0-6.0-2.26","554","","","","","rectangles no change","null","null","","","critical","t","c","d","240","164","164","240","227.1683","158.0083","spektor","0.09","w","240","164","164","240","227.1683","158.0083","39360","39360","35894.4834","dc","null","null","null","null","null","null","[3,2]","521.6520721772774","115.58188783212802","496.7202629758301"
"","canvas-keyboard-response","191","163962","0.0-6.0-3.26","554","","","","","rectangles with change","null","null","","","critical","t","c","d","240","164","164","240","227.1683","158.0083","spektor","0.09","w","240","164","164","240","227.1683","158.0083","39360","39360","35894.4834","dc","null","null","null","null","null","null","[3,2]","521.6520721772774","115.58188783212802","496.7202629758301"
"","canvas-keyboard-response","192","163984","0.0-6.0-4.26","554","","","","","clear_screen","null","null","","","critical","t","c","d","240","164","164","240","227.1683","158.0083","spektor","0.09","w","240","164","164","240","227.1683","158.0083","39360","39360","35894.4834","dc","null","null","null","null","null","null","[3,2]","521.6520721772774","115.58188783212802","496.7202629758301"
"","canvas-keyboard-response","193","164321","0.0-6.0-5.26","554","","","","","make choice","331","3","","","critical","t","c","d","240","164","164","240","227.1683","158.0083","spektor","0.09","w","240","164","164","240","227.1683","158.0083","39360","39360","35894.4834","dc","null","null","null","null","null","null","[3,2]","","",""
"","canvas-keyboard-response","194","164340","0.0-6.0-6.26","554","","","","","clear_screen","null","null","","","critical","t","c","d","240","164","164","240","227.1683","158.0083","spektor","0.09","w","240","164","164","240","227.1683","158.0083","39360","39360","35894.4834","dc","null","null","null","null","null","null","[3,2]","","",""
"","canvas-keyboard-response","195","164542","0.0-6.0-0.27","554","","","","","pre trial waiting period","null","null","","","critical","c","d","t","240","164","154.6796","220.0396","164","240","trueblood","0.14","h","164","240","240","164","154.6796","220.0396","39360","39360","34035.6388","td","null","null","null","null","null","null","[3,2]","468.7785476542596","441.8875938601437","422.2538231818914"
"","canvas-keyboard-response","196","164561","0.0-6.0-1.27","554","","","","","clear_screen","null","null","","","critical","c","d","t","240","164","154.6796","220.0396","164","240","trueblood","0.14","h","164","240","240","164","154.6796","220.0396","39360","39360","34035.6388","td","null","null","null","null","null","null","[3,2]","468.7785476542596","441.8875938601437","422.2538231818914"
"","canvas-keyboard-response","197","165068","0.0-6.0-2.27","554","","","","","rectangles no change","null","null","","","critical","c","d","t","240","164","154.6796","220.0396","164","240","trueblood","0.14","h","164","240","240","164","154.6796","220.0396","39360","39360","34035.6388","td","null","null","null","null","null","null","[3,2]","468.7785476542596","441.8875938601437","422.2538231818914"
"","canvas-keyboard-response","198","166404","0.0-6.0-3.27","554","","","","","rectangles with change","null","null","","","critical","c","d","t","240","164","154.6796","220.0396","164","240","trueblood","0.14","h","164","240","240","164","154.6796","220.0396","39360","39360","34035.6388","td","null","null","null","null","null","null","[3,2]","468.7785476542596","441.8875938601437","422.2538231818914"
"","canvas-keyboard-response","199","166425","0.0-6.0-4.27","554","","","","","clear_screen","null","null","","","critical","c","d","t","240","164","154.6796","220.0396","164","240","trueblood","0.14","h","164","240","240","164","154.6796","220.0396","39360","39360","34035.6388","td","null","null","null","null","null","null","[3,2]","468.7785476542596","441.8875938601437","422.2538231818914"
"","canvas-keyboard-response","200","166681","0.0-6.0-5.27","554","","","","","make choice","248","3","","","critical","c","d","t","240","164","154.6796","220.0396","164","240","trueblood","0.14","h","164","240","240","164","154.6796","220.0396","39360","39360","34035.6388","td","null","null","null","null","null","null","[3,2]","","",""
"","canvas-keyboard-response","201","166702","0.0-6.0-6.27","554","","","","","clear_screen","null","null","","","critical","c","d","t","240","164","154.6796","220.0396","164","240","trueblood","0.14","h","164","240","240","164","154.6796","220.0396","39360","39360","34035.6388","td","null","null","null","null","null","null","[3,2]","","",""
"","canvas-keyboard-response","202","166902","0.0-6.0-0.28","554","","","","","pre trial waiting period","null","null","","","catch","l","sw","sh","237","163","163","199","211","151","trueblood","null","null","null","null","null","null","null","null","null","null","null","","180","200","260","200","36000","52000","[1,2]","473.6926418445447","478.57607701682684","494.06689630516433"
"","canvas-keyboard-response","203","166923","0.0-6.0-1.28","554","","","","","clear_screen","null","null","","","catch","l","sw","sh","237","163","163","199","211","151","trueblood","null","null","null","null","null","null","null","null","null","null","null","","180","200","260","200","36000","52000","[1,2]","473.6926418445447","478.57607701682684","494.06689630516433"
"","canvas-keyboard-response","204","167430","0.0-6.0-2.28","554","","","","","rectangles no change","null","null","","","catch","l","sw","sh","237","163","163","199","211","151","trueblood","null","null","null","null","null","null","null","null","null","null","null","","180","200","260","200","36000","52000","[1,2]","473.6926418445447","478.57607701682684","494.06689630516433"
"","canvas-keyboard-response","205","168765","0.0-6.0-3.28","554","","","","","rectangles with change","null","null","","","catch","l","sw","sh","237","163","163","199","211","151","trueblood","null","null","null","null","null","null","null","null","null","null","null","","180","200","260","200","36000","52000","[1,2]","473.6926418445447","478.57607701682684","494.06689630516433"
"","canvas-keyboard-response","206","168786","0.0-6.0-4.28","554","","","","","clear_screen","null","null","","","catch","l","sw","sh","237","163","163","199","211","151","trueblood","null","null","null","null","null","null","null","null","null","null","null","","180","200","260","200","36000","52000","[1,2]","473.6926418445447","478.57607701682684","494.06689630516433"
"","canvas-keyboard-response","207","169265","0.0-6.0-5.28","554","","","","","make choice","472","1","","","catch","l","sw","sh","237","163","163","199","211","151","trueblood","null","null","null","null","null","null","null","null","null","null","null","","180","200","260","200","36000","52000","[1,2]","","",""
"","canvas-keyboard-response","208","169285","0.0-6.0-6.28","554","","","","","clear_screen","null","null","","","catch","l","sw","sh","237","163","163","199","211","151","trueblood","null","null","null","null","null","null","null","null","null","null","null","","180","200","260","200","36000","52000","[1,2]","","",""
"","canvas-keyboard-response","209","169486","0.0-6.0-0.29","554","","","","","pre trial waiting period","null","null","","","critical","c","d","t","240","164","154.6796","220.0396","164","240","spektor","0.14","h","164","240","240","164","154.6796","220.0396","39360","39360","34035.6388","tc","null","null","null","null","null","null","[3,1]","526.3257903210715","144.3568111070307","481.93872533424997"
"","canvas-keyboard-response","210","169504","0.0-6.0-1.29","554","","","","","clear_screen","null","null","","","critical","c","d","t","240","164","154.6796","220.0396","164","240","spektor","0.14","h","164","240","240","164","154.6796","220.0396","39360","39360","34035.6388","tc","null","null","null","null","null","null","[3,1]","526.3257903210715","144.3568111070307","481.93872533424997"
"","canvas-keyboard-response","211","170013","0.0-6.0-2.29","554","","","","","rectangles no change","null","null","","","critical","c","d","t","240","164","154.6796","220.0396","164","240","spektor","0.14","h","164","240","240","164","154.6796","220.0396","39360","39360","34035.6388","tc","null","null","null","null","null","null","[3,1]","526.3257903210715","144.3568111070307","481.93872533424997"
"","canvas-keyboard-response","212","171348","0.0-6.0-3.29","554","","","","","rectangles with change","null","null","","","critical","c","d","t","240","164","154.6796","220.0396","164","240","spektor","0.14","h","164","240","240","164","154.6796","220.0396","39360","39360","34035.6388","tc","null","null","null","null","null","null","[3,1]","526.3257903210715","144.3568111070307","481.93872533424997"
"","canvas-keyboard-response","213","171361","0.0-6.0-4.29","554","","","","","clear_screen","null","null","","","critical","c","d","t","240","164","154.6796","220.0396","164","240","spektor","0.14","h","164","240","240","164","154.6796","220.0396","39360","39360","34035.6388","tc","null","null","null","null","null","null","[3,1]","526.3257903210715","144.3568111070307","481.93872533424997"
"","canvas-keyboard-response","214","171391","0.0-6.0-5.29","554","","","","","make choice","23","1","","","critical","c","d","t","240","164","154.6796","220.0396","164","240","spektor","0.14","h","164","240","240","164","154.6796","220.0396","39360","39360","34035.6388","tc","null","null","null","null","null","null","[3,1]","","",""
"","canvas-keyboard-response","215","171415","0.0-6.0-6.29","554","","","","","clear_screen","null","null","","","critical","c","d","t","240","164","154.6796","220.0396","164","240","spektor","0.14","h","164","240","240","164","154.6796","220.0396","39360","39360","34035.6388","tc","null","null","null","null","null","null","[3,1]","","",""
"","canvas-keyboard-response","216","171616","0.0-6.0-0.30","554","","","","","pre trial waiting period","null","null","","","catch","sh","l","sw","171","169","249","224","190","174","spektor","null","null","null","null","null","null","null","null","null","null","null","","180","200","260","200","36000","52000","[2,3]","497.82390160901554","137.44334611865952","515.8306675686023"
"","canvas-keyboard-response","217","171637","0.0-6.0-1.30","554","","","","","clear_screen","null","null","","","catch","sh","l","sw","171","169","249","224","190","174","spektor","null","null","null","null","null","null","null","null","null","null","null","","180","200","260","200","36000","52000","[2,3]","497.82390160901554","137.44334611865952","515.8306675686023"
"","canvas-keyboard-response","218","172146","0.0-6.0-2.30","554","","","","","rectangles no change","null","null","","","catch","sh","l","sw","171","169","249","224","190","174","spektor","null","null","null","null","null","null","null","null","null","null","null","","180","200","260","200","36000","52000","[2,3]","497.82390160901554","137.44334611865952","515.8306675686023"
"","canvas-keyboard-response","219","173485","0.0-6.0-3.30","554","","","","","rectangles with change","null","null","","","catch","sh","l","sw","171","169","249","224","190","174","spektor","null","null","null","null","null","null","null","null","null","null","null","","180","200","260","200","36000","52000","[2,3]","497.82390160901554","137.44334611865952","515.8306675686023"
"","canvas-keyboard-response","220","173506","0.0-6.0-4.30","554","","","","","clear_screen","null","null","","","catch","sh","l","sw","171","169","249","224","190","174","spektor","null","null","null","null","null","null","null","null","null","null","null","","180","200","260","200","36000","52000","[2,3]","497.82390160901554","137.44334611865952","515.8306675686023"
"","canvas-keyboard-response","221","174152","0.0-6.0-5.30","554","","","","","make choice","642","2","","","catch","sh","l","sw","171","169","249","224","190","174","spektor","null","null","null","null","null","null","null","null","null","null","null","","180","200","260","200","36000","52000","[2,3]","","",""
"","canvas-keyboard-response","222","174173","0.0-6.0-6.30","554","","","","","clear_screen","null","null","","","catch","sh","l","sw","171","169","249","224","190","174","spektor","null","null","null","null","null","null","null","null","null","null","null","","180","200","260","200","36000","52000","[2,3]","","",""
"","canvas-keyboard-response","223","174373","0.0-6.0-0.31","554","","","","","pre trial waiting period","null","null","","","critical","c","d","t","164","240","232.8713","160.6713","240","164","spektor","0.05","w","240","164","164","240","232.8713","160.6713","39360","39360","37415.7294","tc","null","null","null","null","null","null","[3,1]","502.23061459418494","214.12991385108668","532.9186022709416"
"","canvas-keyboard-response","224","174396","0.0-6.0-1.31","554","","","","","clear_screen","null","null","","","critical","c","d","t","164","240","232.8713","160.6713","240","164","spektor","0.05","w","240","164","164","240","232.8713","160.6713","39360","39360","37415.7294","tc","null","null","null","null","null","null","[3,1]","502.23061459418494","214.12991385108668","532.9186022709416"
"","canvas-keyboard-response","225","174902","0.0-6.0-2.31","554","","","","","rectangles no change","null","null","","","critical","c","d","t","164","240","232.8713","160.6713","240","164","spektor","0.05","w","240","164","164","240","232.8713","160.6713","39360","39360","37415.7294","tc","null","null","null","null","null","null","[3,1]","502.23061459418494","214.12991385108668","532.9186022709416"
"","canvas-keyboard-response","226","176240","0.0-6.0-3.31","554","","","","","rectangles with change","null","null","","","critical","c","d","t","164","240","232.8713","160.6713","240","164","spektor","0.05","w","240","164","164","240","232.8713","160.6713","39360","39360","37415.7294","tc","null","null","null","null","null","null","[3,1]","502.23061459418494","214.12991385108668","532.9186022709416"
"","canvas-keyboard-response","227","176263","0.0-6.0-4.31","554","","","","","clear_screen","null","null","","","critical","c","d","t","164","240","232.8713","160.6713","240","164","spektor","0.05","w","240","164","164","240","232.8713","160.6713","39360","39360","37415.7294","tc","null","null","null","null","null","null","[3,1]","502.23061459418494","214.12991385108668","532.9186022709416"
"","canvas-keyboard-response","228","176760","0.0-6.0-5.31","554","","","","","make choice","487","3","","","critical","c","d","t","164","240","232.8713","160.6713","240","164","spektor","0.05","w","240","164","164","240","232.8713","160.6713","39360","39360","37415.7294","tc","null","null","null","null","null","null","[3,1]","","",""
"","canvas-keyboard-response","229","176779","0.0-6.0-6.31","554","","","","","clear_screen","null","null","","","critical","c","d","t","164","240","232.8713","160.6713","240","164","spektor","0.05","w","240","164","164","240","232.8713","160.6713","39360","39360","37415.7294","tc","null","null","null","null","null","null","[3,1]","","",""
"","canvas-keyboard-response","230","176980","0.0-6.0-0.32","554","","","","","pre trial waiting period","null","null","","","critical","d","t","c","220.0396","154.6796","240","164","164","240","trueblood","0.14","w","240","164","164","240","220.0396","154.6796","39360","39360","34035.6388","tc","null","null","null","null","null","null","[2,3]","487.0451930708109","472.0493346346088","441.9478004408181"
"","canvas-keyboard-response","231","177002","0.0-6.0-1.32","554","","","","","clear_screen","null","null","","","critical","d","t","c","220.0396","154.6796","240","164","164","240","trueblood","0.14","w","240","164","164","240","220.0396","154.6796","39360","39360","34035.6388","tc","null","null","null","null","null","null","[2,3]","487.0451930708109","472.0493346346088","441.9478004408181"
"","canvas-keyboard-response","232","177509","0.0-6.0-2.32","554","","","","","rectangles no change","null","null","","","critical","d","t","c","220.0396","154.6796","240","164","164","240","trueblood","0.14","w","240","164","164","240","220.0396","154.6796","39360","39360","34035.6388","tc","null","null","null","null","null","null","[2,3]","487.0451930708109","472.0493346346088","441.9478004408181"
"","canvas-keyboard-response","233","178847","0.0-6.0-3.32","554","","","","","rectangles with change","null","null","","","critical","d","t","c","220.0396","154.6796","240","164","164","240","trueblood","0.14","w","240","164","164","240","220.0396","154.6796","39360","39360","34035.6388","tc","null","null","null","null","null","null","[2,3]","487.0451930708109","472.0493346346088","441.9478004408181"
"","canvas-keyboard-response","234","178868","0.0-6.0-4.32","554","","","","","clear_screen","null","null","","","critical","d","t","c","220.0396","154.6796","240","164","164","240","trueblood","0.14","w","240","164","164","240","220.0396","154.6796","39360","39360","34035.6388","tc","null","null","null","null","null","null","[2,3]","487.0451930708109","472.0493346346088","441.9478004408181"
"","canvas-keyboard-response","235","179352","0.0-6.0-5.32","554","","","","","make choice","478","2","","","critical","d","t","c","220.0396","154.6796","240","164","164","240","trueblood","0.14","w","240","164","164","240","220.0396","154.6796","39360","39360","34035.6388","tc","null","null","null","null","null","null","[2,3]","","",""
"","canvas-keyboard-response","236","179367","0.0-6.0-6.32","554","","","","","clear_screen","null","null","","","critical","d","t","c","220.0396","154.6796","240","164","164","240","trueblood","0.14","w","240","164","164","240","220.0396","154.6796","39360","39360","34035.6388","tc","null","null","null","null","null","null","[2,3]","","",""
"","canvas-keyboard-response","237","179567","0.0-6.0-0.33","554","","","","","pre trial waiting period","null","null","","","critical","c","t","d","240","164","164","240","160.6713","232.8713","trueblood","0.05","h","164","240","240","164","160.6713","232.8713","39360","39360","37415.7294","td","null","null","null","null","null","null","[2,3]","486.07191362000253","444.10172897922354","458.4884454743987"
"","canvas-keyboard-response","238","179589","0.0-6.0-1.33","554","","","","","clear_screen","null","null","","","critical","c","t","d","240","164","164","240","160.6713","232.8713","trueblood","0.05","h","164","240","240","164","160.6713","232.8713","39360","39360","37415.7294","td","null","null","null","null","null","null","[2,3]","486.07191362000253","444.10172897922354","458.4884454743987"
"","canvas-keyboard-response","239","180095","0.0-6.0-2.33","554","","","","","rectangles no change","null","null","","","critical","c","t","d","240","164","164","240","160.6713","232.8713","trueblood","0.05","h","164","240","240","164","160.6713","232.8713","39360","39360","37415.7294","td","null","null","null","null","null","null","[2,3]","486.07191362000253","444.10172897922354","458.4884454743987"
"","canvas-keyboard-response","240","181433","0.0-6.0-3.33","554","","","","","rectangles with change","null","null","","","critical","c","t","d","240","164","164","240","160.6713","232.8713","trueblood","0.05","h","164","240","240","164","160.6713","232.8713","39360","39360","37415.7294","td","null","null","null","null","null","null","[2,3]","486.07191362000253","444.10172897922354","458.4884454743987"
"","canvas-keyboard-response","241","181452","0.0-6.0-4.33","554","","","","","clear_screen","null","null","","","critical","c","t","d","240","164","164","240","160.6713","232.8713","trueblood","0.05","h","164","240","240","164","160.6713","232.8713","39360","39360","37415.7294","td","null","null","null","null","null","null","[2,3]","486.07191362000253","444.10172897922354","458.4884454743987"
"","canvas-keyboard-response","242","181969","0.0-6.0-5.33","554","","","","","make choice","512","2","","","critical","c","t","d","240","164","164","240","160.6713","232.8713","trueblood","0.05","h","164","240","240","164","160.6713","232.8713","39360","39360","37415.7294","td","null","null","null","null","null","null","[2,3]","","",""
"","canvas-keyboard-response","243","181989","0.0-6.0-6.33","554","","","","","clear_screen","null","null","","","critical","c","t","d","240","164","164","240","160.6713","232.8713","trueblood","0.05","h","164","240","240","164","160.6713","232.8713","39360","39360","37415.7294","td","null","null","null","null","null","null","[2,3]","","",""
"","canvas-keyboard-response","244","182189","0.0-6.0-0.34","554","","","","","pre trial waiting period","null","null","","","critical","c","t","d","164","240","240","164","240","164","spektor","0","w","240","164","164","240","240","164","39360","39360","39360","td","null","null","null","null","null","null","[2,3]","491.52578305371793","168.99306281740337","531.0247428649183"
"","canvas-keyboard-response","245","182209","0.0-6.0-1.34","554","","","","","clear_screen","null","null","","","critical","c","t","d","164","240","240","164","240","164","spektor","0","w","240","164","164","240","240","164","39360","39360","39360","td","null","null","null","null","null","null","[2,3]","491.52578305371793","168.99306281740337","531.0247428649183"
"","canvas-keyboard-response","246","182717","0.0-6.0-2.34","554","","","","","rectangles no change","null","null","","","critical","c","t","d","164","240","240","164","240","164","spektor","0","w","240","164","164","240","240","164","39360","39360","39360","td","null","null","null","null","null","null","[2,3]","491.52578305371793","168.99306281740337","531.0247428649183"
"","canvas-keyboard-response","247","184056","0.0-6.0-3.34","554","","","","","rectangles with change","null","null","","","critical","c","t","d","164","240","240","164","240","164","spektor","0","w","240","164","164","240","240","164","39360","39360","39360","td","null","null","null","null","null","null","[2,3]","491.52578305371793","168.99306281740337","531.0247428649183"
"","canvas-keyboard-response","248","184076","0.0-6.0-4.34","554","","","","","clear_screen","null","null","","","critical","c","t","d","164","240","240","164","240","164","spektor","0","w","240","164","164","240","240","164","39360","39360","39360","td","null","null","null","null","null","null","[2,3]","491.52578305371793","168.99306281740337","531.0247428649183"
"","canvas-keyboard-response","249","184376","0.0-6.0-5.34","554","","","","","make choice","291","3","","","critical","c","t","d","164","240","240","164","240","164","spektor","0","w","240","164","164","240","240","164","39360","39360","39360","td","null","null","null","null","null","null","[2,3]","","",""
"","canvas-keyboard-response","250","184394","0.0-6.0-6.34","554","","","","","clear_screen","null","null","","","critical","c","t","d","164","240","240","164","240","164","spektor","0","w","240","164","164","240","240","164","39360","39360","39360","td","null","null","null","null","null","null","[2,3]","","",""
"","canvas-keyboard-response","251","184595","0.0-6.0-0.35","554","","","","","pre trial waiting period","null","null","","","critical","d","t","c","158.0083","227.1683","164","240","240","164","spektor","0.09","h","164","240","240","164","158.0083","227.1683","39360","39360","35894.4834","dc","null","null","null","null","null","null","[1,3]","479.03872978687855","110.05036620632103","533.74282916268"
"","canvas-keyboard-response","252","184616","0.0-6.0-1.35","554","","","","","clear_screen","null","null","","","critical","d","t","c","158.0083","227.1683","164","240","240","164","spektor","0.09","h","164","240","240","164","158.0083","227.1683","39360","39360","35894.4834","dc","null","null","null","null","null","null","[1,3]","479.03872978687855","110.05036620632103","533.74282916268"
"","canvas-keyboard-response","253","185122","0.0-6.0-2.35","554","","","","","rectangles no change","null","null","","","critical","d","t","c","158.0083","227.1683","164","240","240","164","spektor","0.09","h","164","240","240","164","158.0083","227.1683","39360","39360","35894.4834","dc","null","null","null","null","null","null","[1,3]","479.03872978687855","110.05036620632103","533.74282916268"
"","canvas-keyboard-response","254","186458","0.0-6.0-3.35","554","","","","","rectangles with change","null","null","","","critical","d","t","c","158.0083","227.1683","164","240","240","164","spektor","0.09","h","164","240","240","164","158.0083","227.1683","39360","39360","35894.4834","dc","null","null","null","null","null","null","[1,3]","479.03872978687855","110.05036620632103","533.74282916268"
"","canvas-keyboard-response","255","186479","0.0-6.0-4.35","554","","","","","clear_screen","null","null","","","critical","d","t","c","158.0083","227.1683","164","240","240","164","spektor","0.09","h","164","240","240","164","158.0083","227.1683","39360","39360","35894.4834","dc","null","null","null","null","null","null","[1,3]","479.03872978687855","110.05036620632103","533.74282916268"
"","canvas-keyboard-response","256","187112","0.0-6.0-5.35","554","","","","","make choice","626","3","","","critical","d","t","c","158.0083","227.1683","164","240","240","164","spektor","0.09","h","164","240","240","164","158.0083","227.1683","39360","39360","35894.4834","dc","null","null","null","null","null","null","[1,3]","","",""
"","canvas-keyboard-response","257","187130","0.0-6.0-6.35","554","","","","","clear_screen","null","null","","","critical","d","t","c","158.0083","227.1683","164","240","240","164","spektor","0.09","h","164","240","240","164","158.0083","227.1683","39360","39360","35894.4834","dc","null","null","null","null","null","null","[1,3]","","",""
"","canvas-keyboard-response","258","187332","0.0-6.0-0.36","554","","","","","pre trial waiting period","null","null","","","critical","c","d","t","164","240","220.0396","154.6796","240","164","spektor","0.14","w","240","164","164","240","220.0396","154.6796","39360","39360","34035.6388","tc","null","null","null","null","null","null","[3,1]","466.78755912526907","177.50888871420398","519.3197013197884"
"","canvas-keyboard-response","259","187353","0.0-6.0-1.36","554","","","","","clear_screen","null","null","","","critical","c","d","t","164","240","220.0396","154.6796","240","164","spektor","0.14","w","240","164","164","240","220.0396","154.6796","39360","39360","34035.6388","tc","null","null","null","null","null","null","[3,1]","466.78755912526907","177.50888871420398","519.3197013197884"
"","canvas-keyboard-response","260","187861","0.0-6.0-2.36","554","","","","","rectangles no change","null","null","","","critical","c","d","t","164","240","220.0396","154.6796","240","164","spektor","0.14","w","240","164","164","240","220.0396","154.6796","39360","39360","34035.6388","tc","null","null","null","null","null","null","[3,1]","466.78755912526907","177.50888871420398","519.3197013197884"
"","canvas-keyboard-response","261","189201","0.0-6.0-3.36","554","","","","","rectangles with change","null","null","","","critical","c","d","t","164","240","220.0396","154.6796","240","164","spektor","0.14","w","240","164","164","240","220.0396","154.6796","39360","39360","34035.6388","tc","null","null","null","null","null","null","[3,1]","466.78755912526907","177.50888871420398","519.3197013197884"
"","canvas-keyboard-response","262","189219","0.0-6.0-4.36","554","","","","","clear_screen","null","null","","","critical","c","d","t","164","240","220.0396","154.6796","240","164","spektor","0.14","w","240","164","164","240","220.0396","154.6796","39360","39360","34035.6388","tc","null","null","null","null","null","null","[3,1]","466.78755912526907","177.50888871420398","519.3197013197884"
"","canvas-keyboard-response","263","189305","0.0-6.0-5.36","554","","","","","make choice","79","3","","","critical","c","d","t","164","240","220.0396","154.6796","240","164","spektor","0.14","w","240","164","164","240","220.0396","154.6796","39360","39360","34035.6388","tc","null","null","null","null","null","null","[3,1]","","",""
"","canvas-keyboard-response","264","189323","0.0-6.0-6.36","554","","","","","clear_screen","null","null","","","critical","c","d","t","164","240","220.0396","154.6796","240","164","spektor","0.14","w","240","164","164","240","220.0396","154.6796","39360","39360","34035.6388","tc","null","null","null","null","null","null","[3,1]","","",""
"","canvas-keyboard-response","265","189524","0.0-6.0-0.37","554","","","","","pre trial waiting period","null","null","","","critical","d","c","t","164","240","240","164","164","240","trueblood","0","h","164","240","240","164","164","240","39360","39360","39360","td","null","null","null","null","null","null","[3,1]","426.3859116937949","507.4695792415979","428.3664930508479"
"","canvas-keyboard-response","266","189545","0.0-6.0-1.37","554","","","","","clear_screen","null","null","","","critical","d","c","t","164","240","240","164","164","240","trueblood","0","h","164","240","240","164","164","240","39360","39360","39360","td","null","null","null","null","null","null","[3,1]","426.3859116937949","507.4695792415979","428.3664930508479"
