"success","trial_type","trial_index","time_elapsed","internal_node_id","sub_n","timeout","failed_images","failed_audio","failed_video","screen_id","rt","response","stimulus","view_history","trial","r1","r2","r3","w1","h1","w2","h2","w3","h3","display","tdd","tdo","tw","th","cw","ch","dw","dh","ta","ca","da","probe","csls","csss","clls","clss","sa","la","probe_rects","r1yloc","r2yloc","r3yloc"
"true","fullscreen","0","2319","0.0-0.0","507","","","","","","","","","","","","","","","","","","","","","","","","","","","","","","","","","","","","","","","","","",""
"true","preload","1","2339","0.0-1.0","507","false","[]","[]","[]","img preload","","","","","","","","","","","","","","","","","","","","","","","","","","","","","","","","","","","","",""
"","survey-html-form","2","7910","0.0-2.0","507","","","","","enter-sub-number","5557","{""response"":""507""}","","","","","","","","","","","","","","","","","","","","","","","","","","","","","","","","","","",""
"","image-button-response","3","76099","0.0-3.0","507","","","","","","68123","0","consent.png","","","","","","","","","","","","","","","","","","","","","","","","","","","","","","","","","",""
"","html-button-response","4","86860","0.0-4.0","507","","","","","intro mssg","10755","0","<div style= ""font-size:25px;"" <p> <strong> Welcome! </strong><br> <p style=""color:#8B0000; font-size:25px;""><strong> Please do NOT exit full screen until you are done with the experiment. </strong> </p><p style=""font-size:25px;color:#8B0000;""> <strong> Your data will be lost <br> if you try to go back or refresh the page after the experiment starts. Feel free to click ""previous"" during the instructions, however.</strong> </p><br><p> <strong> Thanks in advance for your contribution to our research! </strong></p>","","","","","","","","","","","","","","","","","","","","","","","","","","","","","","","","","",""
"","instructions","5","152005","0.0-5.0","507","","","","","instructions","65141","","","[{""page_index"":0,""viewing_time"":5604},{""page_index"":1,""viewing_time"":13351},{""page_index"":2,""viewing_time"":6081},{""page_index"":3,""viewing_time"":29208},{""page_index"":4,""viewing_time"":5153},{""page_index"":5,""viewing_time"":2126},{""page_index"":6,""viewing_time"":2465},{""page_index"":7,""viewing_time"":1153}]","","","","","","","","","","","","","","","","","","","","","","","","","","","","","","","","",""
"","canvas-keyboard-response","6","152210","0.0-6.0-0.0","507","","","","","pre trial waiting period","null","null","","","critical","t","d","c","240","164","227.1683","158.0083","164","240","spektor","0.09","w","240","164","164","240","227.1683","158.0083","39360","39360","35894.4834","tc","null","null","null","null","null","null","[1,3]","538.7410791384717","193.7812924075851","476.15677402456487"
"","canvas-keyboard-response","7","152232","0.0-6.0-1.0","507","","","","","clear_screen","null","null","","","critical","t","d","c","240","164","227.1683","158.0083","164","240","spektor","0.09","w","240","164","164","240","227.1683","158.0083","39360","39360","35894.4834","tc","null","null","null","null","null","null","[1,3]","538.7410791384717","193.7812924075851","476.15677402456487"
"","canvas-keyboard-response","8","152740","0.0-6.0-2.0","507","","","","","rectangles no change","null","null","","","critical","t","d","c","240","164","227.1683","158.0083","164","240","spektor","0.09","w","240","164","164","240","227.1683","158.0083","39360","39360","35894.4834","tc","null","null","null","null","null","null","[1,3]","538.7410791384717","193.7812924075851","476.15677402456487"
"","canvas-keyboard-response","9","154076","0.0-6.0-3.0","507","","","","","rectangles with change","null","null","","","critical","t","d","c","240","164","227.1683","158.0083","164","240","spektor","0.09","w","240","164","164","240","227.1683","158.0083","39360","39360","35894.4834","tc","null","null","null","null","null","null","[1,3]","538.7410791384717","193.7812924075851","476.15677402456487"
"","canvas-keyboard-response","10","154099","0.0-6.0-4.0","507","","","","","clear_screen","null","null","","","critical","t","d","c","240","164","227.1683","158.0083","164","240","spektor","0.09","w","240","164","164","240","227.1683","158.0083","39360","39360","35894.4834","tc","null","null","null","null","null","null","[1,3]","538.7410791384717","193.7812924075851","476.15677402456487"
"","canvas-keyboard-response","11","156257","0.0-6.0-5.0","507","","","","","make choice","2149","3","","","critical","t","d","c","240","164","227.1683","158.0083","164","240","spektor","0.09","w","240","164","164","240","227.1683","158.0083","39360","39360","35894.4834","tc","null","null","null","null","null","null","[1,3]","","",""
"","canvas-keyboard-response","12","156276","0.0-6.0-6.0","507","","","","","clear_screen","null","null","","","critical","t","d","c","240","164","227.1683","158.0083","164","240","spektor","0.09","w","240","164","164","240","227.1683","158.0083","39360","39360","35894.4834","tc","null","null","null","null","null","null","[1,3]","","",""
"","canvas-keyboard-response","13","156477","0.0-6.0-0.1","507","","","","","pre trial waiting period","null","null","","","critical","d","t","c","154.6796","220.0396","164","240","240","164","trueblood","0.14","h","164","240","240","164","154.6796","220.0396","39360","39360","34035.6388","tc","null","null","null","null","null","null","[2,3]","453.89668328448903","466.0720165065728","485.25827226288266"
"","canvas-keyboard-response","14","156497","0.0-6.0-1.1","507","","","","","clear_screen","null","null","","","critical","d","t","c","154.6796","220.0396","164","240","240","164","trueblood","0.14","h","164","240","240","164","154.6796","220.0396","39360","39360","34035.6388","tc","null","null","null","null","null","null","[2,3]","453.89668328448903","466.0720165065728","485.25827226288266"
"","canvas-keyboard-response","15","157005","0.0-6.0-2.1","507","","","","","rectangles no change","null","null","","","critical","d","t","c","154.6796","220.0396","164","240","240","164","trueblood","0.14","h","164","240","240","164","154.6796","220.0396","39360","39360","34035.6388","tc","null","null","null","null","null","null","[2,3]","453.89668328448903","466.0720165065728","485.25827226288266"
"","canvas-keyboard-response","16","158343","0.0-6.0-3.1","507","","","","","rectangles with change","null","null","","","critical","d","t","c","154.6796","220.0396","164","240","240","164","trueblood","0.14","h","164","240","240","164","154.6796","220.0396","39360","39360","34035.6388","tc","null","null","null","null","null","null","[2,3]","453.89668328448903","466.0720165065728","485.25827226288266"
"","canvas-keyboard-response","17","158365","0.0-6.0-4.1","507","","","","","clear_screen","null","null","","","critical","d","t","c","154.6796","220.0396","164","240","240","164","trueblood","0.14","h","164","240","240","164","154.6796","220.0396","39360","39360","34035.6388","tc","null","null","null","null","null","null","[2,3]","453.89668328448903","466.0720165065728","485.25827226288266"
"","canvas-keyboard-response","18","160008","0.0-6.0-5.1","507","","","","","make choice","1635","2","","","critical","d","t","c","154.6796","220.0396","164","240","240","164","trueblood","0.14","h","164","240","240","164","154.6796","220.0396","39360","39360","34035.6388","tc","null","null","null","null","null","null","[2,3]","","",""
"","canvas-keyboard-response","19","160026","0.0-6.0-6.1","507","","","","","clear_screen","null","null","","","critical","d","t","c","154.6796","220.0396","164","240","240","164","trueblood","0.14","h","164","240","240","164","154.6796","220.0396","39360","39360","34035.6388","tc","null","null","null","null","null","null","[2,3]","","",""
"","canvas-keyboard-response","20","160228","0.0-6.0-0.2","507","","","","","pre trial waiting period","null","null","","","critical","t","c","d","240","164","164","240","240","164","trueblood","0","w","240","164","164","240","240","164","39360","39360","39360","tc","null","null","null","null","null","null","[1,2]","481.68579897121276","421.95910482839986","497.01455531681114"
"","canvas-keyboard-response","21","160247","0.0-6.0-1.2","507","","","","","clear_screen","null","null","","","critical","t","c","d","240","164","164","240","240","164","trueblood","0","w","240","164","164","240","240","164","39360","39360","39360","tc","null","null","null","null","null","null","[1,2]","481.68579897121276","421.95910482839986","497.01455531681114"
"","canvas-keyboard-response","22","160754","0.0-6.0-2.2","507","","","","","rectangles no change","null","null","","","critical","t","c","d","240","164","164","240","240","164","trueblood","0","w","240","164","164","240","240","164","39360","39360","39360","tc","null","null","null","null","null","null","[1,2]","481.68579897121276","421.95910482839986","497.01455531681114"
"","canvas-keyboard-response","23","162091","0.0-6.0-3.2","507","","","","","rectangles with change","null","null","","","critical","t","c","d","240","164","164","240","240","164","trueblood","0","w","240","164","164","240","240","164","39360","39360","39360","tc","null","null","null","null","null","null","[1,2]","481.68579897121276","421.95910482839986","497.01455531681114"
"","canvas-keyboard-response","24","162111","0.0-6.0-4.2","507","","","","","clear_screen","null","null","","","critical","t","c","d","240","164","164","240","240","164","trueblood","0","w","240","164","164","240","240","164","39360","39360","39360","tc","null","null","null","null","null","null","[1,2]","481.68579897121276","421.95910482839986","497.01455531681114"
"","canvas-keyboard-response","25","162816","0.0-6.0-5.2","507","","","","","make choice","698","1","","","critical","t","c","d","240","164","164","240","240","164","trueblood","0","w","240","164","164","240","240","164","39360","39360","39360","tc","null","null","null","null","null","null","[1,2]","","",""
"","canvas-keyboard-response","26","162836","0.0-6.0-6.2","507","","","","","clear_screen","null","null","","","critical","t","c","d","240","164","164","240","240","164","trueblood","0","w","240","164","164","240","240","164","39360","39360","39360","tc","null","null","null","null","null","null","[1,2]","","",""
"","canvas-keyboard-response","27","163037","0.0-6.0-0.3","507","","","","","pre trial waiting period","null","null","","","catch","sh","l","sw","177","168","298","211","198","162","spektor","null","null","null","null","null","null","null","null","null","null","null","","180","200","260","200","36000","52000","[2,3]","535.257842779575","167.29672881313627","535.5712223513726"
"","canvas-keyboard-response","28","163057","0.0-6.0-1.3","507","","","","","clear_screen","null","null","","","catch","sh","l","sw","177","168","298","211","198","162","spektor","null","null","null","null","null","null","null","null","null","null","null","","180","200","260","200","36000","52000","[2,3]","535.257842779575","167.29672881313627","535.5712223513726"
"","canvas-keyboard-response","29","163563","0.0-6.0-2.3","507","","","","","rectangles no change","null","null","","","catch","sh","l","sw","177","168","298","211","198","162","spektor","null","null","null","null","null","null","null","null","null","null","null","","180","200","260","200","36000","52000","[2,3]","535.257842779575","167.29672881313627","535.5712223513726"
"","canvas-keyboard-response","30","164897","0.0-6.0-3.3","507","","","","","rectangles with change","null","null","","","catch","sh","l","sw","177","168","298","211","198","162","spektor","null","null","null","null","null","null","null","null","null","null","null","","180","200","260","200","36000","52000","[2,3]","535.257842779575","167.29672881313627","535.5712223513726"
"","canvas-keyboard-response","31","164918","0.0-6.0-4.3","507","","","","","clear_screen","null","null","","","catch","sh","l","sw","177","168","298","211","198","162","spektor","null","null","null","null","null","null","null","null","null","null","null","","180","200","260","200","36000","52000","[2,3]","535.257842779575","167.29672881313627","535.5712223513726"
"","canvas-keyboard-response","32","165160","0.0-6.0-5.3","507","","","","","make choice","237","2","","","catch","sh","l","sw","177","168","298","211","198","162","spektor","null","null","null","null","null","null","null","null","null","null","null","","180","200","260","200","36000","52000","[2,3]","","",""
"","canvas-keyboard-response","33","165178","0.0-6.0-6.3","507","","","","","clear_screen","null","null","","","catch","sh","l","sw","177","168","298","211","198","162","spektor","null","null","null","null","null","null","null","null","null","null","null","","180","200","260","200","36000","52000","[2,3]","","",""
"","canvas-keyboard-response","34","165380","0.0-6.0-0.4","507","","","","","pre trial waiting period","null","null","","","critical","c","t","d","240","164","164","240","154.6796","220.0396","spektor","0.14","h","164","240","240","164","154.6796","220.0396","39360","39360","34035.6388","tc","null","null","null","null","null","null","[2,1]","510.99010951636524","101.43025193789622","514.505372489778"
"","canvas-keyboard-response","35","165403","0.0-6.0-1.4","507","","","","","clear_screen","null","null","","","critical","c","t","d","240","164","164","240","154.6796","220.0396","spektor","0.14","h","164","240","240","164","154.6796","220.0396","39360","39360","34035.6388","tc","null","null","null","null","null","null","[2,1]","510.99010951636524","101.43025193789622","514.505372489778"
"","canvas-keyboard-response","36","165908","0.0-6.0-2.4","507","","","","","rectangles no change","null","null","","","critical","c","t","d","240","164","164","240","154.6796","220.0396","spektor","0.14","h","164","240","240","164","154.6796","220.0396","39360","39360","34035.6388","tc","null","null","null","null","null","null","[2,1]","510.99010951636524","101.43025193789622","514.505372489778"
"","canvas-keyboard-response","37","167244","0.0-6.0-3.4","507","","","","","rectangles with change","null","null","","","critical","c","t","d","240","164","164","240","154.6796","220.0396","spektor","0.14","h","164","240","240","164","154.6796","220.0396","39360","39360","34035.6388","tc","null","null","null","null","null","null","[2,1]","510.99010951636524","101.43025193789622","514.505372489778"
"","canvas-keyboard-response","38","167263","0.0-6.0-4.4","507","","","","","clear_screen","null","null","","","critical","c","t","d","240","164","164","240","154.6796","220.0396","spektor","0.14","h","164","240","240","164","154.6796","220.0396","39360","39360","34035.6388","tc","null","null","null","null","null","null","[2,1]","510.99010951636524","101.43025193789622","514.505372489778"
"","canvas-keyboard-response","39","167496","0.0-6.0-5.4","507","","","","","make choice","227","2","","","critical","c","t","d","240","164","164","240","154.6796","220.0396","spektor","0.14","h","164","240","240","164","154.6796","220.0396","39360","39360","34035.6388","tc","null","null","null","null","null","null","[2,1]","","",""
"","canvas-keyboard-response","40","167516","0.0-6.0-6.4","507","","","","","clear_screen","null","null","","","critical","c","t","d","240","164","164","240","154.6796","220.0396","spektor","0.14","h","164","240","240","164","154.6796","220.0396","39360","39360","34035.6388","tc","null","null","null","null","null","null","[2,1]","","",""
"","canvas-keyboard-response","41","167718","0.0-6.0-0.5","507","","","","","pre trial waiting period","null","null","","","critical","t","c","d","240","164","164","240","237.1485","162.6685","trueblood","0.02","w","240","164","164","240","237.1485","162.6685","39360","39360","38576.5967","td","null","null","null","null","null","null","[1,3]","511.16273054445253","421.1864805943917","500.63183377461036"
"","canvas-keyboard-response","42","167752","0.0-6.0-1.5","507","","","","","clear_screen","null","null","","","critical","t","c","d","240","164","164","240","237.1485","162.6685","trueblood","0.02","w","240","164","164","240","237.1485","162.6685","39360","39360","38576.5967","td","null","null","null","null","null","null","[1,3]","511.16273054445253","421.1864805943917","500.63183377461036"
"","canvas-keyboard-response","43","168257","0.0-6.0-2.5","507","","","","","rectangles no change","null","null","","","critical","t","c","d","240","164","164","240","237.1485","162.6685","trueblood","0.02","w","240","164","164","240","237.1485","162.6685","39360","39360","38576.5967","td","null","null","null","null","null","null","[1,3]","511.16273054445253","421.1864805943917","500.63183377461036"
"","canvas-keyboard-response","44","169593","0.0-6.0-3.5","507","","","","","rectangles with change","null","null","","","critical","t","c","d","240","164","164","240","237.1485","162.6685","trueblood","0.02","w","240","164","164","240","237.1485","162.6685","39360","39360","38576.5967","td","null","null","null","null","null","null","[1,3]","511.16273054445253","421.1864805943917","500.63183377461036"
"","canvas-keyboard-response","45","169616","0.0-6.0-4.5","507","","","","","clear_screen","null","null","","","critical","t","c","d","240","164","164","240","237.1485","162.6685","trueblood","0.02","w","240","164","164","240","237.1485","162.6685","39360","39360","38576.5967","td","null","null","null","null","null","null","[1,3]","511.16273054445253","421.1864805943917","500.63183377461036"
"","canvas-keyboard-response","46","171904","0.0-6.0-5.5","507","","","","","make choice","2283","3","","","critical","t","c","d","240","164","164","240","237.1485","162.6685","trueblood","0.02","w","240","164","164","240","237.1485","162.6685","39360","39360","38576.5967","td","null","null","null","null","null","null","[1,3]","","",""
"","canvas-keyboard-response","47","171921","0.0-6.0-6.5","507","","","","","clear_screen","null","null","","","critical","t","c","d","240","164","164","240","237.1485","162.6685","trueblood","0.02","w","240","164","164","240","237.1485","162.6685","39360","39360","38576.5967","td","null","null","null","null","null","null","[1,3]","","",""
"","canvas-keyboard-response","48","172123","0.0-6.0-0.6","507","","","","","pre trial waiting period","null","null","","","critical","d","t","c","158.0083","227.1683","164","240","240","164","trueblood","0.09","h","164","240","240","164","158.0083","227.1683","39360","39360","35894.4834","dc","null","null","null","null","null","null","[1,3]","446.29352749611365","463.33118232886306","498.75112632076707"
"","canvas-keyboard-response","49","172142","0.0-6.0-1.6","507","","","","","clear_screen","null","null","","","critical","d","t","c","158.0083","227.1683","164","240","240","164","trueblood","0.09","h","164","240","240","164","158.0083","227.1683","39360","39360","35894.4834","dc","null","null","null","null","null","null","[1,3]","446.29352749611365","463.33118232886306","498.75112632076707"
"","canvas-keyboard-response","50","172646","0.0-6.0-2.6","507","","","","","rectangles no change","null","null","","","critical","d","t","c","158.0083","227.1683","164","240","240","164","trueblood","0.09","h","164","240","240","164","158.0083","227.1683","39360","39360","35894.4834","dc","null","null","null","null","null","null","[1,3]","446.29352749611365","463.33118232886306","498.75112632076707"
"","canvas-keyboard-response","51","173987","0.0-6.0-3.6","507","","","","","rectangles with change","null","null","","","critical","d","t","c","158.0083","227.1683","164","240","240","164","trueblood","0.09","h","164","240","240","164","158.0083","227.1683","39360","39360","35894.4834","dc","null","null","null","null","null","null","[1,3]","446.29352749611365","463.33118232886306","498.75112632076707"
"","canvas-keyboard-response","52","174008","0.0-6.0-4.6","507","","","","","clear_screen","null","null","","","critical","d","t","c","158.0083","227.1683","164","240","240","164","trueblood","0.09","h","164","240","240","164","158.0083","227.1683","39360","39360","35894.4834","dc","null","null","null","null","null","null","[1,3]","446.29352749611365","463.33118232886306","498.75112632076707"
"","canvas-keyboard-response","53","174464","0.0-6.0-5.6","507","","","","","make choice","452","3","","","critical","d","t","c","158.0083","227.1683","164","240","240","164","trueblood","0.09","h","164","240","240","164","158.0083","227.1683","39360","39360","35894.4834","dc","null","null","null","null","null","null","[1,3]","","",""
"","canvas-keyboard-response","54","174479","0.0-6.0-6.6","507","","","","","clear_screen","null","null","","","critical","d","t","c","158.0083","227.1683","164","240","240","164","trueblood","0.09","h","164","240","240","164","158.0083","227.1683","39360","39360","35894.4834","dc","null","null","null","null","null","null","[1,3]","","",""
"","canvas-keyboard-response","55","174681","0.0-6.0-0.7","507","","","","","pre trial waiting period","null","null","","","critical","c","d","t","164","240","240","164","240","164","spektor","0","w","240","164","164","240","240","164","39360","39360","39360","tc","null","null","null","null","null","null","[3,1]","465.33928224222126","172.52816074764522","498.4653995614313"
"","canvas-keyboard-response","56","174701","0.0-6.0-1.7","507","","","","","clear_screen","null","null","","","critical","c","d","t","164","240","240","164","240","164","spektor","0","w","240","164","164","240","240","164","39360","39360","39360","tc","null","null","null","null","null","null","[3,1]","465.33928224222126","172.52816074764522","498.4653995614313"
"","canvas-keyboard-response","57","175209","0.0-6.0-2.7","507","","","","","rectangles no change","null","null","","","critical","c","d","t","164","240","240","164","240","164","spektor","0","w","240","164","164","240","240","164","39360","39360","39360","tc","null","null","null","null","null","null","[3,1]","465.33928224222126","172.52816074764522","498.4653995614313"
"","canvas-keyboard-response","58","176543","0.0-6.0-3.7","507","","","","","rectangles with change","null","null","","","critical","c","d","t","164","240","240","164","240","164","spektor","0","w","240","164","164","240","240","164","39360","39360","39360","tc","null","null","null","null","null","null","[3,1]","465.33928224222126","172.52816074764522","498.4653995614313"
"","canvas-keyboard-response","59","176563","0.0-6.0-4.7","507","","","","","clear_screen","null","null","","","critical","c","d","t","164","240","240","164","240","164","spektor","0","w","240","164","164","240","240","164","39360","39360","39360","tc","null","null","null","null","null","null","[3,1]","465.33928224222126","172.52816074764522","498.4653995614313"
"","canvas-keyboard-response","60","177391","0.0-6.0-5.7","507","","","","","make choice","822","3","","","critical","c","d","t","164","240","240","164","240","164","spektor","0","w","240","164","164","240","240","164","39360","39360","39360","tc","null","null","null","null","null","null","[3,1]","","",""
"","canvas-keyboard-response","61","177412","0.0-6.0-6.7","507","","","","","clear_screen","null","null","","","critical","c","d","t","164","240","240","164","240","164","spektor","0","w","240","164","164","240","240","164","39360","39360","39360","tc","null","null","null","null","null","null","[3,1]","","",""
"","canvas-keyboard-response","62","177613","0.0-6.0-0.8","507","","","","","pre trial waiting period","null","null","","","critical","d","c","t","220.0396","154.6796","164","240","240","164","spektor","0.14","w","240","164","164","240","220.0396","154.6796","39360","39360","34035.6388","dc","null","null","null","null","null","null","[1,2]","501.9821864449416","113.7792851401359","535.9413559366143"
"","canvas-keyboard-response","63","177633","0.0-6.0-1.8","507","","","","","clear_screen","null","null","","","critical","d","c","t","220.0396","154.6796","164","240","240","164","spektor","0.14","w","240","164","164","240","220.0396","154.6796","39360","39360","34035.6388","dc","null","null","null","null","null","null","[1,2]","501.9821864449416","113.7792851401359","535.9413559366143"
"","canvas-keyboard-response","64","178141","0.0-6.0-2.8","507","","","","","rectangles no change","null","null","","","critical","d","c","t","220.0396","154.6796","164","240","240","164","spektor","0.14","w","240","164","164","240","220.0396","154.6796","39360","39360","34035.6388","dc","null","null","null","null","null","null","[1,2]","501.9821864449416","113.7792851401359","535.9413559366143"
"","canvas-keyboard-response","65","179474","0.0-6.0-3.8","507","","","","","rectangles with change","null","null","","","critical","d","c","t","220.0396","154.6796","164","240","240","164","spektor","0.14","w","240","164","164","240","220.0396","154.6796","39360","39360","34035.6388","dc","null","null","null","null","null","null","[1,2]","501.9821864449416","113.7792851401359","535.9413559366143"
"","canvas-keyboard-response","66","179498","0.0-6.0-4.8","507","","","","","clear_screen","null","null","","","critical","d","c","t","220.0396","154.6796","164","240","240","164","spektor","0.14","w","240","164","164","240","220.0396","154.6796","39360","39360","34035.6388","dc","null","null","null","null","null","null","[1,2]","501.9821864449416","113.7792851401359","535.9413559366143"
"","canvas-keyboard-response","67","179839","0.0-6.0-5.8","507","","","","","make choice","332","2","","","critical","d","c","t","220.0396","154.6796","164","240","240","164","spektor","0.14","w","240","164","164","240","220.0396","154.6796","39360","39360","34035.6388","dc","null","null","null","null","null","null","[1,2]","","",""
"","canvas-keyboard-response","68","179857","0.0-6.0-6.8","507","","","","","clear_screen","null","null","","","critical","d","c","t","220.0396","154.6796","164","240","240","164","spektor","0.14","w","240","164","164","240","220.0396","154.6796","39360","39360","34035.6388","dc","null","null","null","null","null","null","[1,2]","","",""
"","canvas-keyboard-response","69","180058","0.0-6.0-0.9","507","","","","","pre trial waiting period","null","null","","","critical","d","t","c","240","164","240","164","164","240","spektor","0","w","240","164","164","240","240","164","39360","39360","39360","dc","null","null","null","null","null","null","[1,3]","506.39350007420245","212.97209233223896","475.35091527629015"
"","canvas-keyboard-response","70","180079","0.0-6.0-1.9","507","","","","","clear_screen","null","null","","","critical","d","t","c","240","164","240","164","164","240","spektor","0","w","240","164","164","240","240","164","39360","39360","39360","dc","null","null","null","null","null","null","[1,3]","506.39350007420245","212.97209233223896","475.35091527629015"
"","canvas-keyboard-response","71","180588","0.0-6.0-2.9","507","","","","","rectangles no change","null","null","","","critical","d","t","c","240","164","240","164","164","240","spektor","0","w","240","164","164","240","240","164","39360","39360","39360","dc","null","null","null","null","null","null","[1,3]","506.39350007420245","212.97209233223896","475.35091527629015"
"","canvas-keyboard-response","72","181924","0.0-6.0-3.9","507","","","","","rectangles with change","null","null","","","critical","d","t","c","240","164","240","164","164","240","spektor","0","w","240","164","164","240","240","164","39360","39360","39360","dc","null","null","null","null","null","null","[1,3]","506.39350007420245","212.97209233223896","475.35091527629015"
"","canvas-keyboard-response","73","181945","0.0-6.0-4.9","507","","","","","clear_screen","null","null","","","critical","d","t","c","240","164","240","164","164","240","spektor","0","w","240","164","164","240","240","164","39360","39360","39360","dc","null","null","null","null","null","null","[1,3]","506.39350007420245","212.97209233223896","475.35091527629015"
"","canvas-keyboard-response","74","182768","0.0-6.0-5.9","507","","","","","make choice","817","3","","","critical","d","t","c","240","164","240","164","164","240","spektor","0","w","240","164","164","240","240","164","39360","39360","39360","dc","null","null","null","null","null","null","[1,3]","","",""
"","canvas-keyboard-response","75","182788","0.0-6.0-6.9","507","","","","","clear_screen","null","null","","","critical","d","t","c","240","164","240","164","164","240","spektor","0","w","240","164","164","240","240","164","39360","39360","39360","dc","null","null","null","null","null","null","[1,3]","","",""
"","canvas-keyboard-response","76","182988","0.0-6.0-0.10","507","","","","","pre trial waiting period","null","null","","","catch","sh","sw","l","210","177","203","196","266","221","spektor","null","null","null","null","null","null","null","null","null","null","null","","180","200","260","200","36000","52000","[2,3]","498.9582730683126","151.74627654579515","486.8005816260757"
"","canvas-keyboard-response","77","183008","0.0-6.0-1.10","507","","","","","clear_screen","null","null","","","catch","sh","sw","l","210","177","203","196","266","221","spektor","null","null","null","null","null","null","null","null","null","null","null","","180","200","260","200","36000","52000","[2,3]","498.9582730683126","151.74627654579515","486.8005816260757"
"","canvas-keyboard-response","78","183515","0.0-6.0-2.10","507","","","","","rectangles no change","null","null","","","catch","sh","sw","l","210","177","203","196","266","221","spektor","null","null","null","null","null","null","null","null","null","null","null","","180","200","260","200","36000","52000","[2,3]","498.9582730683126","151.74627654579515","486.8005816260757"
"","canvas-keyboard-response","79","184849","0.0-6.0-3.10","507","","","","","rectangles with change","null","null","","","catch","sh","sw","l","210","177","203","196","266","221","spektor","null","null","null","null","null","null","null","null","null","null","null","","180","200","260","200","36000","52000","[2,3]","498.9582730683126","151.74627654579515","486.8005816260757"
"","canvas-keyboard-response","80","184867","0.0-6.0-4.10","507","","","","","clear_screen","null","null","","","catch","sh","sw","l","210","177","203","196","266","221","spektor","null","null","null","null","null","null","null","null","null","null","null","","180","200","260","200","36000","52000","[2,3]","498.9582730683126","151.74627654579515","486.8005816260757"
"","canvas-keyboard-response","81","185232","0.0-6.0-5.10","507","","","","","make choice","357","3","","","catch","sh","sw","l","210","177","203","196","266","221","spektor","null","null","null","null","null","null","null","null","null","null","null","","180","200","260","200","36000","52000","[2,3]","","",""
"","canvas-keyboard-response","82","185251","0.0-6.0-6.10","507","","","","","clear_screen","null","null","","","catch","sh","sw","l","210","177","203","196","266","221","spektor","null","null","null","null","null","null","null","null","null","null","null","","180","200","260","200","36000","52000","[2,3]","","",""
"","canvas-keyboard-response","83","185452","0.0-6.0-0.11","507","","","","","pre trial waiting period","null","null","","","critical","c","d","t","240","164","164","240","164","240","trueblood","0","h","164","240","240","164","164","240","39360","39360","39360","tc","null","null","null","null","null","null","[3,1]","517.9500310951637","467.8927838777265","422.86192715126805"
"","canvas-keyboard-response","84","185472","0.0-6.0-1.11","507","","","","","clear_screen","null","null","","","critical","c","d","t","240","164","164","240","164","240","trueblood","0","h","164","240","240","164","164","240","39360","39360","39360","tc","null","null","null","null","null","null","[3,1]","517.9500310951637","467.8927838777265","422.86192715126805"
"","canvas-keyboard-response","85","185978","0.0-6.0-2.11","507","","","","","rectangles no change","null","null","","","critical","c","d","t","240","164","164","240","164","240","trueblood","0","h","164","240","240","164","164","240","39360","39360","39360","tc","null","null","null","null","null","null","[3,1]","517.9500310951637","467.8927838777265","422.86192715126805"
"","canvas-keyboard-response","86","187315","0.0-6.0-3.11","507","","","","","rectangles with change","null","null","","","critical","c","d","t","240","164","164","240","164","240","trueblood","0","h","164","240","240","164","164","240","39360","39360","39360","tc","null","null","null","null","null","null","[3,1]","517.9500310951637","467.8927838777265","422.86192715126805"
"","canvas-keyboard-response","87","187333","0.0-6.0-4.11","507","","","","","clear_screen","null","null","","","critical","c","d","t","240","164","164","240","164","240","trueblood","0","h","164","240","240","164","164","240","39360","39360","39360","tc","null","null","null","null","null","null","[3,1]","517.9500310951637","467.8927838777265","422.86192715126805"
"","canvas-keyboard-response","88","189359","0.0-6.0-5.11","507","","","","","make choice","2020","1","","","critical","c","d","t","240","164","164","240","164","240","trueblood","0","h","164","240","240","164","164","240","39360","39360","39360","tc","null","null","null","null","null","null","[3,1]","","",""
"","canvas-keyboard-response","89","189378","0.0-6.0-6.11","507","","","","","clear_screen","null","null","","","critical","c","d","t","240","164","164","240","164","240","trueblood","0","h","164","240","240","164","164","240","39360","39360","39360","tc","null","null","null","null","null","null","[3,1]","","",""
"","canvas-keyboard-response","90","189578","0.0-6.0-0.12","507","","","","","pre trial waiting period","null","null","","","catch","l","sh","sw","279","193","174","171","176","234","trueblood","null","null","null","null","null","null","null","null","null","null","null","","180","200","260","200","36000","52000","[1,3]","498.47216473746965","497.074233239606","442.2639034784302"
"","canvas-keyboard-response","91","189601","0.0-6.0-1.12","507","","","","","clear_screen","null","null","","","catch","l","sh","sw","279","193","174","171","176","234","trueblood","null","null","null","null","null","null","null","null","null","null","null","","180","200","260","200","36000","52000","[1,3]","498.47216473746965","497.074233239606","442.2639034784302"
"","canvas-keyboard-response","92","190111","0.0-6.0-2.12","507","","","","","rectangles no change","null","null","","","catch","l","sh","sw","279","193","174","171","176","234","trueblood","null","null","null","null","null","null","null","null","null","null","null","","180","200","260","200","36000","52000","[1,3]","498.47216473746965","497.074233239606","442.2639034784302"
"","canvas-keyboard-response","93","191450","0.0-6.0-3.12","507","","","","","rectangles with change","null","null","","","catch","l","sh","sw","279","193","174","171","176","234","trueblood","null","null","null","null","null","null","null","null","null","null","null","","180","200","260","200","36000","52000","[1,3]","498.47216473746965","497.074233239606","442.2639034784302"
"","canvas-keyboard-response","94","191470","0.0-6.0-4.12","507","","","","","clear_screen","null","null","","","catch","l","sh","sw","279","193","174","171","176","234","trueblood","null","null","null","null","null","null","null","null","null","null","null","","180","200","260","200","36000","52000","[1,3]","498.47216473746965","497.074233239606","442.2639034784302"
"","canvas-keyboard-response","95","191799","0.0-6.0-5.12","507","","","","","make choice","322","1","","","catch","l","sh","sw","279","193","174","171","176","234","trueblood","null","null","null","null","null","null","null","null","null","null","null","","180","200","260","200","36000","52000","[1,3]","","",""
"","canvas-keyboard-response","96","191818","0.0-6.0-6.12","507","","","","","clear_screen","null","null","","","catch","l","sh","sw","279","193","174","171","176","234","trueblood","null","null","null","null","null","null","null","null","null","null","null","","180","200","260","200","36000","52000","[1,3]","","",""
"","canvas-keyboard-response","97","192020","0.0-6.0-0.13","507","","","","","pre trial waiting period","null","null","","","critical","d","t","c","162.6685","237.1485","164","240","240","164","spektor","0.02","h","164","240","240","164","162.6685","237.1485","39360","39360","38576.5967","td","null","null","null","null","null","null","[2,1]","469.0139392549313","113.45822169142683","522.2610438399122"
"","canvas-keyboard-response","98","192039","0.0-6.0-1.13","507","","","","","clear_screen","null","null","","","critical","d","t","c","162.6685","237.1485","164","240","240","164","spektor","0.02","h","164","240","240","164","162.6685","237.1485","39360","39360","38576.5967","td","null","null","null","null","null","null","[2,1]","469.0139392549313","113.45822169142683","522.2610438399122"
"","canvas-keyboard-response","99","192545","0.0-6.0-2.13","507","","","","","rectangles no change","null","null","","","critical","d","t","c","162.6685","237.1485","164","240","240","164","spektor","0.02","h","164","240","240","164","162.6685","237.1485","39360","39360","38576.5967","td","null","null","null","null","null","null","[2,1]","469.0139392549313","113.45822169142683","522.2610438399122"
"","canvas-keyboard-response","100","193878","0.0-6.0-3.13","507","","","","","rectangles with change","null","null","","","critical","d","t","c","162.6685","237.1485","164","240","240","164","spektor","0.02","h","164","240","240","164","162.6685","237.1485","39360","39360","38576.5967","td","null","null","null","null","null","null","[2,1]","469.0139392549313","113.45822169142683","522.2610438399122"
"","canvas-keyboard-response","101","193900","0.0-6.0-4.13","507","","","","","clear_screen","null","null","","","critical","d","t","c","162.6685","237.1485","164","240","240","164","spektor","0.02","h","164","240","240","164","162.6685","237.1485","39360","39360","38576.5967","td","null","null","null","null","null","null","[2,1]","469.0139392549313","113.45822169142683","522.2610438399122"
"","canvas-keyboard-response","102","195767","0.0-6.0-5.13","507","","","","","make choice","1863","1","","","critical","d","t","c","162.6685","237.1485","164","240","240","164","spektor","0.02","h","164","240","240","164","162.6685","237.1485","39360","39360","38576.5967","td","null","null","null","null","null","null","[2,1]","","",""
"","canvas-keyboard-response","103","195786","0.0-6.0-6.13","507","","","","","clear_screen","null","null","","","critical","d","t","c","162.6685","237.1485","164","240","240","164","spektor","0.02","h","164","240","240","164","162.6685","237.1485","39360","39360","38576.5967","td","null","null","null","null","null","null","[2,1]","","",""
"","canvas-keyboard-response","104","195987","0.0-6.0-0.14","507","","","","","pre trial waiting period","null","null","","","catch","sw","sh","l","180","200","218","180","290","216","trueblood","null","null","null","null","null","null","null","null","null","null","null","","180","200","260","200","36000","52000","[2,3]","456.82348164525337","459.05876812027725","438.46581528459615"
"","canvas-keyboard-response","105","196007","0.0-6.0-1.14","507","","","","","clear_screen","null","null","","","catch","sw","sh","l","180","200","218","180","290","216","trueblood","null","null","null","null","null","null","null","null","null","null","null","","180","200","260","200","36000","52000","[2,3]","456.82348164525337","459.05876812027725","438.46581528459615"
"","canvas-keyboard-response","106","196515","0.0-6.0-2.14","507","","","","","rectangles no change","null","null","","","catch","sw","sh","l","180","200","218","180","290","216","trueblood","null","null","null","null","null","null","null","null","null","null","null","","180","200","260","200","36000","52000","[2,3]","456.82348164525337","459.05876812027725","438.46581528459615"
"","canvas-keyboard-response","107","197849","0.0-6.0-3.14","507","","","","","rectangles with change","null","null","","","catch","sw","sh","l","180","200","218","180","290","216","trueblood","null","null","null","null","null","null","null","null","null","null","null","","180","200","260","200","36000","52000","[2,3]","456.82348164525337","459.05876812027725","438.46581528459615"
"","canvas-keyboard-response","108","197867","0.0-6.0-4.14","507","","","","","clear_screen","null","null","","","catch","sw","sh","l","180","200","218","180","290","216","trueblood","null","null","null","null","null","null","null","null","null","null","null","","180","200","260","200","36000","52000","[2,3]","456.82348164525337","459.05876812027725","438.46581528459615"
"","canvas-keyboard-response","109","198367","0.0-6.0-5.14","507","","","","","make choice","496","3","","","catch","sw","sh","l","180","200","218","180","290","216","trueblood","null","null","null","null","null","null","null","null","null","null","null","","180","200","260","200","36000","52000","[2,3]","","",""
"","canvas-keyboard-response","110","198386","0.0-6.0-6.14","507","","","","","clear_screen","null","null","","","catch","sw","sh","l","180","200","218","180","290","216","trueblood","null","null","null","null","null","null","null","null","null","null","null","","180","200","260","200","36000","52000","[2,3]","","",""
"","canvas-keyboard-response","111","198587","0.0-6.0-0.15","507","","","","","pre trial waiting period","null","null","","","critical","c","t","d","164","240","240","164","227.1683","158.0083","trueblood","0.09","w","240","164","164","240","227.1683","158.0083","39360","39360","35894.4834","td","null","null","null","null","null","null","[2,3]","431.9415680062346","514.2449376578747","521.6395842446263"
"","canvas-keyboard-response","112","198608","0.0-6.0-1.15","507","","","","","clear_screen","null","null","","","critical","c","t","d","164","240","240","164","227.1683","158.0083","trueblood","0.09","w","240","164","164","240","227.1683","158.0083","39360","39360","35894.4834","td","null","null","null","null","null","null","[2,3]","431.9415680062346","514.2449376578747","521.6395842446263"
"","canvas-keyboard-response","113","199115","0.0-6.0-2.15","507","","","","","rectangles no change","null","null","","","critical","c","t","d","164","240","240","164","227.1683","158.0083","trueblood","0.09","w","240","164","164","240","227.1683","158.0083","39360","39360","35894.4834","td","null","null","null","null","null","null","[2,3]","431.9415680062346","514.2449376578747","521.6395842446263"
"","canvas-keyboard-response","114","200449","0.0-6.0-3.15","507","","","","","rectangles with change","null","null","","","critical","c","t","d","164","240","240","164","227.1683","158.0083","trueblood","0.09","w","240","164","164","240","227.1683","158.0083","39360","39360","35894.4834","td","null","null","null","null","null","null","[2,3]","431.9415680062346","514.2449376578747","521.6395842446263"
"","canvas-keyboard-response","115","200468","0.0-6.0-4.15","507","","","","","clear_screen","null","null","","","critical","c","t","d","164","240","240","164","227.1683","158.0083","trueblood","0.09","w","240","164","164","240","227.1683","158.0083","39360","39360","35894.4834","td","null","null","null","null","null","null","[2,3]","431.9415680062346","514.2449376578747","521.6395842446263"
"","canvas-keyboard-response","116","200959","0.0-6.0-5.15","507","","","","","make choice","482","3","","","critical","c","t","d","164","240","240","164","227.1683","158.0083","trueblood","0.09","w","240","164","164","240","227.1683","158.0083","39360","39360","35894.4834","td","null","null","null","null","null","null","[2,3]","","",""
"","canvas-keyboard-response","117","200977","0.0-6.0-6.15","507","","","","","clear_screen","null","null","","","critical","c","t","d","164","240","240","164","227.1683","158.0083","trueblood","0.09","w","240","164","164","240","227.1683","158.0083","39360","39360","35894.4834","td","null","null","null","null","null","null","[2,3]","","",""
"","canvas-keyboard-response","118","201178","0.0-6.0-0.16","507","","","","","pre trial waiting period","null","null","","","catch","sh","sw","l","197","196","185","224","235","233","trueblood","null","null","null","null","null","null","null","null","null","null","null","","180","200","260","200","36000","52000","[1,3]","477.05877654759826","475.9128456052367","428.5940595413232"
"","canvas-keyboard-response","119","201197","0.0-6.0-1.16","507","","","","","clear_screen","null","null","","","catch","sh","sw","l","197","196","185","224","235","233","trueblood","null","null","null","null","null","null","null","null","null","null","null","","180","200","260","200","36000","52000","[1,3]","477.05877654759826","475.9128456052367","428.5940595413232"
"","canvas-keyboard-response","120","201702","0.0-6.0-2.16","507","","","","","rectangles no change","null","null","","","catch","sh","sw","l","197","196","185","224","235","233","trueblood","null","null","null","null","null","null","null","null","null","null","null","","180","200","260","200","36000","52000","[1,3]","477.05877654759826","475.9128456052367","428.5940595413232"
"","canvas-keyboard-response","121","203039","0.0-6.0-3.16","507","","","","","rectangles with change","null","null","","","catch","sh","sw","l","197","196","185","224","235","233","trueblood","null","null","null","null","null","null","null","null","null","null","null","","180","200","260","200","36000","52000","[1,3]","477.05877654759826","475.9128456052367","428.5940595413232"
"","canvas-keyboard-response","122","203059","0.0-6.0-4.16","507","","","","","clear_screen","null","null","","","catch","sh","sw","l","197","196","185","224","235","233","trueblood","null","null","null","null","null","null","null","null","null","null","null","","180","200","260","200","36000","52000","[1,3]","477.05877654759826","475.9128456052367","428.5940595413232"
"","canvas-keyboard-response","123","203336","0.0-6.0-5.16","507","","","","","make choice","270","3","","","catch","sh","sw","l","197","196","185","224","235","233","trueblood","null","null","null","null","null","null","null","null","null","null","null","","180","200","260","200","36000","52000","[1,3]","","",""
"","canvas-keyboard-response","124","203355","0.0-6.0-6.16","507","","","","","clear_screen","null","null","","","catch","sh","sw","l","197","196","185","224","235","233","trueblood","null","null","null","null","null","null","null","null","null","null","null","","180","200","260","200","36000","52000","[1,3]","","",""
"","canvas-keyboard-response","125","203556","0.0-6.0-0.17","507","","","","","pre trial waiting period","null","null","","","critical","c","d","t","164","240","232.8713","160.6713","240","164","spektor","0.05","w","240","164","164","240","232.8713","160.6713","39360","39360","37415.7294","td","null","null","null","null","null","null","[3,2]","459.82163195485987","211.53013091910466","512.3808711011442"
"","canvas-keyboard-response","126","203576","0.0-6.0-1.17","507","","","","","clear_screen","null","null","","","critical","c","d","t","164","240","232.8713","160.6713","240","164","spektor","0.05","w","240","164","164","240","232.8713","160.6713","39360","39360","37415.7294","td","null","null","null","null","null","null","[3,2]","459.82163195485987","211.53013091910466","512.3808711011442"
"","canvas-keyboard-response","127","204084","0.0-6.0-2.17","507","","","","","rectangles no change","null","null","","","critical","c","d","t","164","240","232.8713","160.6713","240","164","spektor","0.05","w","240","164","164","240","232.8713","160.6713","39360","39360","37415.7294","td","null","null","null","null","null","null","[3,2]","459.82163195485987","211.53013091910466","512.3808711011442"
"","canvas-keyboard-response","128","205422","0.0-6.0-3.17","507","","","","","rectangles with change","null","null","","","critical","c","d","t","164","240","232.8713","160.6713","240","164","spektor","0.05","w","240","164","164","240","232.8713","160.6713","39360","39360","37415.7294","td","null","null","null","null","null","null","[3,2]","459.82163195485987","211.53013091910466","512.3808711011442"
"","canvas-keyboard-response","129","205441","0.0-6.0-4.17","507","","","","","clear_screen","null","null","","","critical","c","d","t","164","240","232.8713","160.6713","240","164","spektor","0.05","w","240","164","164","240","232.8713","160.6713","39360","39360","37415.7294","td","null","null","null","null","null","null","[3,2]","459.82163195485987","211.53013091910466","512.3808711011442"
"","canvas-keyboard-response","130","205712","0.0-6.0-5.17","507","","","","","make choice","264","3","","","critical","c","d","t","164","240","232.8713","160.6713","240","164","spektor","0.05","w","240","164","164","240","232.8713","160.6713","39360","39360","37415.7294","td","null","null","null","null","null","null","[3,2]","","",""
"","canvas-keyboard-response","131","205731","0.0-6.0-6.17","507","","","","","clear_screen","null","null","","","critical","c","d","t","164","240","232.8713","160.6713","240","164","spektor","0.05","w","240","164","164","240","232.8713","160.6713","39360","39360","37415.7294","td","null","null","null","null","null","null","[3,2]","","",""
"","canvas-keyboard-response","132","205932","0.0-6.0-0.18","507","","","","","pre trial waiting period","null","null","","","critical","d","t","c","232.8713","160.6713","240","164","164","240","trueblood","0.05","w","240","164","164","240","232.8713","160.6713","39360","39360","37415.7294","tc","null","null","null","null","null","null","[2,3]","495.47310832118546","507.45426782992445","443.6664661615382"
"","canvas-keyboard-response","133","205954","0.0-6.0-1.18","507","","","","","clear_screen","null","null","","","critical","d","t","c","232.8713","160.6713","240","164","164","240","trueblood","0.05","w","240","164","164","240","232.8713","160.6713","39360","39360","37415.7294","tc","null","null","null","null","null","null","[2,3]","495.47310832118546","507.45426782992445","443.6664661615382"
"","canvas-keyboard-response","134","206457","0.0-6.0-2.18","507","","","","","rectangles no change","null","null","","","critical","d","t","c","232.8713","160.6713","240","164","164","240","trueblood","0.05","w","240","164","164","240","232.8713","160.6713","39360","39360","37415.7294","tc","null","null","null","null","null","null","[2,3]","495.47310832118546","507.45426782992445","443.6664661615382"
"","canvas-keyboard-response","135","207792","0.0-6.0-3.18","507","","","","","rectangles with change","null","null","","","critical","d","t","c","232.8713","160.6713","240","164","164","240","trueblood","0.05","w","240","164","164","240","232.8713","160.6713","39360","39360","37415.7294","tc","null","null","null","null","null","null","[2,3]","495.47310832118546","507.45426782992445","443.6664661615382"
"","canvas-keyboard-response","136","207811","0.0-6.0-4.18","507","","","","","clear_screen","null","null","","","critical","d","t","c","232.8713","160.6713","240","164","164","240","trueblood","0.05","w","240","164","164","240","232.8713","160.6713","39360","39360","37415.7294","tc","null","null","null","null","null","null","[2,3]","495.47310832118546","507.45426782992445","443.6664661615382"
"","canvas-keyboard-response","137","208224","0.0-6.0-5.18","507","","","","","make choice","406","2","","","critical","d","t","c","232.8713","160.6713","240","164","164","240","trueblood","0.05","w","240","164","164","240","232.8713","160.6713","39360","39360","37415.7294","tc","null","null","null","null","null","null","[2,3]","","",""
"","canvas-keyboard-response","138","208243","0.0-6.0-6.18","507","","","","","clear_screen","null","null","","","critical","d","t","c","232.8713","160.6713","240","164","164","240","trueblood","0.05","w","240","164","164","240","232.8713","160.6713","39360","39360","37415.7294","tc","null","null","null","null","null","null","[2,3]","","",""
"","canvas-keyboard-response","139","208444","0.0-6.0-0.19","507","","","","","pre trial waiting period","null","null","","","catch","l","sh","sw","255","182","172","218","165","167","trueblood","null","null","null","null","null","null","null","null","null","null","null","","180","200","260","200","36000","52000","[1,2]","492.9864851305585","434.68641076140045","508.6980925769741"
"","canvas-keyboard-response","140","208464","0.0-6.0-1.19","507","","","","","clear_screen","null","null","","","catch","l","sh","sw","255","182","172","218","165","167","trueblood","null","null","null","null","null","null","null","null","null","null","null","","180","200","260","200","36000","52000","[1,2]","492.9864851305585","434.68641076140045","508.6980925769741"
"","canvas-keyboard-response","141","208974","0.0-6.0-2.19","507","","","","","rectangles no change","null","null","","","catch","l","sh","sw","255","182","172","218","165","167","trueblood","null","null","null","null","null","null","null","null","null","null","null","","180","200","260","200","36000","52000","[1,2]","492.9864851305585","434.68641076140045","508.6980925769741"
"","canvas-keyboard-response","142","210311","0.0-6.0-3.19","507","","","","","rectangles with change","null","null","","","catch","l","sh","sw","255","182","172","218","165","167","trueblood","null","null","null","null","null","null","null","null","null","null","null","","180","200","260","200","36000","52000","[1,2]","492.9864851305585","434.68641076140045","508.6980925769741"
"","canvas-keyboard-response","143","210331","0.0-6.0-4.19","507","","","","","clear_screen","null","null","","","catch","l","sh","sw","255","182","172","218","165","167","trueblood","null","null","null","null","null","null","null","null","null","null","null","","180","200","260","200","36000","52000","[1,2]","492.9864851305585","434.68641076140045","508.6980925769741"
"","canvas-keyboard-response","144","210687","0.0-6.0-5.19","507","","","","","make choice","352","1","","","catch","l","sh","sw","255","182","172","218","165","167","trueblood","null","null","null","null","null","null","null","null","null","null","null","","180","200","260","200","36000","52000","[1,2]","","",""
"","canvas-keyboard-response","145","210707","0.0-6.0-6.19","507","","","","","clear_screen","null","null","","","catch","l","sh","sw","255","182","172","218","165","167","trueblood","null","null","null","null","null","null","null","null","null","null","null","","180","200","260","200","36000","52000","[1,2]","","",""
"","canvas-keyboard-response","146","210909","0.0-6.0-0.20","507","","","","","pre trial waiting period","null","null","","","catch","sh","sw","l","175","187","140","235","214","284","trueblood","null","null","null","null","null","null","null","null","null","null","null","","180","200","260","200","36000","52000","[2,3]","457.9780155317297","464.48012328121365","396.6657983980185"
"","canvas-keyboard-response","147","210931","0.0-6.0-1.20","507","","","","","clear_screen","null","null","","","catch","sh","sw","l","175","187","140","235","214","284","trueblood","null","null","null","null","null","null","null","null","null","null","null","","180","200","260","200","36000","52000","[2,3]","457.9780155317297","464.48012328121365","396.6657983980185"
"","canvas-keyboard-response","148","211437","0.0-6.0-2.20","507","","","","","rectangles no change","null","null","","","catch","sh","sw","l","175","187","140","235","214","284","trueblood","null","null","null","null","null","null","null","null","null","null","null","","180","200","260","200","36000","52000","[2,3]","457.9780155317297","464.48012328121365","396.6657983980185"
"","canvas-keyboard-response","149","212772","0.0-6.0-3.20","507","","","","","rectangles with change","null","null","","","catch","sh","sw","l","175","187","140","235","214","284","trueblood","null","null","null","null","null","null","null","null","null","null","null","","180","200","260","200","36000","52000","[2,3]","457.9780155317297","464.48012328121365","396.6657983980185"
"","canvas-keyboard-response","150","212794","0.0-6.0-4.20","507","","","","","clear_screen","null","null","","","catch","sh","sw","l","175","187","140","235","214","284","trueblood","null","null","null","null","null","null","null","null","null","null","null","","180","200","260","200","36000","52000","[2,3]","457.9780155317297","464.48012328121365","396.6657983980185"
"","canvas-keyboard-response","151","213294","0.0-6.0-5.20","507","","","","","make choice","494","3","","","catch","sh","sw","l","175","187","140","235","214","284","trueblood","null","null","null","null","null","null","null","null","null","null","null","","180","200","260","200","36000","52000","[2,3]","","",""
"","canvas-keyboard-response","152","213311","0.0-6.0-6.20","507","","","","","clear_screen","null","null","","","catch","sh","sw","l","175","187","140","235","214","284","trueblood","null","null","null","null","null","null","null","null","null","null","null","","180","200","260","200","36000","52000","[2,3]","","",""
"","canvas-keyboard-response","153","213511","0.0-6.0-0.21","507","","","","","pre trial waiting period","null","null","","","catch","l","sh","sw","281","234","181","187","218","234","trueblood","null","null","null","null","null","null","null","null","null","null","null","","180","200","260","200","36000","52000","[1,3]","443.9602703259733","472.3484214556854","444.6734655825997"
"","canvas-keyboard-response","154","213531","0.0-6.0-1.21","507","","","","","clear_screen","null","null","","","catch","l","sh","sw","281","234","181","187","218","234","trueblood","null","null","null","null","null","null","null","null","null","null","null","","180","200","260","200","36000","52000","[1,3]","443.9602703259733","472.3484214556854","444.6734655825997"
"","canvas-keyboard-response","155","214037","0.0-6.0-2.21","507","","","","","rectangles no change","null","null","","","catch","l","sh","sw","281","234","181","187","218","234","trueblood","null","null","null","null","null","null","null","null","null","null","null","","180","200","260","200","36000","52000","[1,3]","443.9602703259733","472.3484214556854","444.6734655825997"
"","canvas-keyboard-response","156","215370","0.0-6.0-3.21","507","","","","","rectangles with change","null","null","","","catch","l","sh","sw","281","234","181","187","218","234","trueblood","null","null","null","null","null","null","null","null","null","null","null","","180","200","260","200","36000","52000","[1,3]","443.9602703259733","472.3484214556854","444.6734655825997"
"","canvas-keyboard-response","157","215393","0.0-6.0-4.21","507","","","","","clear_screen","null","null","","","catch","l","sh","sw","281","234","181","187","218","234","trueblood","null","null","null","null","null","null","null","null","null","null","null","","180","200","260","200","36000","52000","[1,3]","443.9602703259733","472.3484214556854","444.6734655825997"
"","canvas-keyboard-response","158","216167","0.0-6.0-5.21","507","","","","","make choice","769","1","","","catch","l","sh","sw","281","234","181","187","218","234","trueblood","null","null","null","null","null","null","null","null","null","null","null","","180","200","260","200","36000","52000","[1,3]","","",""
"","canvas-keyboard-response","159","216188","0.0-6.0-6.21","507","","","","","clear_screen","null","null","","","catch","l","sh","sw","281","234","181","187","218","234","trueblood","null","null","null","null","null","null","null","null","null","null","null","","180","200","260","200","36000","52000","[1,3]","","",""
"","canvas-keyboard-response","160","216388","0.0-6.0-0.22","507","","","","","pre trial waiting period","null","null","","","catch","sw","l","sh","180","200","196","245","200","143","spektor","null","null","null","null","null","null","null","null","null","null","null","","180","200","260","200","36000","52000","[1,2]","489.5277982958555","106.35426585481369","517.0734112667022"
"","canvas-keyboard-response","161","216407","0.0-6.0-1.22","507","","","","","clear_screen","null","null","","","catch","sw","l","sh","180","200","196","245","200","143","spektor","null","null","null","null","null","null","null","null","null","null","null","","180","200","260","200","36000","52000","[1,2]","489.5277982958555","106.35426585481369","517.0734112667022"
"","canvas-keyboard-response","162","216914","0.0-6.0-2.22","507","","","","","rectangles no change","null","null","","","catch","sw","l","sh","180","200","196","245","200","143","spektor","null","null","null","null","null","null","null","null","null","null","null","","180","200","260","200","36000","52000","[1,2]","489.5277982958555","106.35426585481369","517.0734112667022"
"","canvas-keyboard-response","163","218254","0.0-6.0-3.22","507","","","","","rectangles with change","null","null","","","catch","sw","l","sh","180","200","196","245","200","143","spektor","null","null","null","null","null","null","null","null","null","null","null","","180","200","260","200","36000","52000","[1,2]","489.5277982958555","106.35426585481369","517.0734112667022"
"","canvas-keyboard-response","164","218274","0.0-6.0-4.22","507","","","","","clear_screen","null","null","","","catch","sw","l","sh","180","200","196","245","200","143","spektor","null","null","null","null","null","null","null","null","null","null","null","","180","200","260","200","36000","52000","[1,2]","489.5277982958555","106.35426585481369","517.0734112667022"
"","canvas-keyboard-response","165","218713","0.0-6.0-5.22","507","","","","","make choice","428","2","","","catch","sw","l","sh","180","200","196","245","200","143","spektor","null","null","null","null","null","null","null","null","null","null","null","","180","200","260","200","36000","52000","[1,2]","","",""
"","canvas-keyboard-response","166","218732","0.0-6.0-6.22","507","","","","","clear_screen","null","null","","","catch","sw","l","sh","180","200","196","245","200","143","spektor","null","null","null","null","null","null","null","null","null","null","null","","180","200","260","200","36000","52000","[1,2]","","",""
"","canvas-keyboard-response","167","218935","0.0-6.0-0.23","507","","","","","pre trial waiting period","null","null","","","critical","c","t","d","164","240","240","164","220.0396","154.6796","trueblood","0.14","w","240","164","164","240","220.0396","154.6796","39360","39360","34035.6388","td","null","null","null","null","null","null","[2,3]","452.44155006225265","472.83063622267684","515.8418676937987"
"","canvas-keyboard-response","168","218959","0.0-6.0-1.23","507","","","","","clear_screen","null","null","","","critical","c","t","d","164","240","240","164","220.0396","154.6796","trueblood","0.14","w","240","164","164","240","220.0396","154.6796","39360","39360","34035.6388","td","null","null","null","null","null","null","[2,3]","452.44155006225265","472.83063622267684","515.8418676937987"
"","canvas-keyboard-response","169","219467","0.0-6.0-2.23","507","","","","","rectangles no change","null","null","","","critical","c","t","d","164","240","240","164","220.0396","154.6796","trueblood","0.14","w","240","164","164","240","220.0396","154.6796","39360","39360","34035.6388","td","null","null","null","null","null","null","[2,3]","452.44155006225265","472.83063622267684","515.8418676937987"
"","canvas-keyboard-response","170","220802","0.0-6.0-3.23","507","","","","","rectangles with change","null","null","","","critical","c","t","d","164","240","240","164","220.0396","154.6796","trueblood","0.14","w","240","164","164","240","220.0396","154.6796","39360","39360","34035.6388","td","null","null","null","null","null","null","[2,3]","452.44155006225265","472.83063622267684","515.8418676937987"
"","canvas-keyboard-response","171","220825","0.0-6.0-4.23","507","","","","","clear_screen","null","null","","","critical","c","t","d","164","240","240","164","220.0396","154.6796","trueblood","0.14","w","240","164","164","240","220.0396","154.6796","39360","39360","34035.6388","td","null","null","null","null","null","null","[2,3]","452.44155006225265","472.83063622267684","515.8418676937987"
"","canvas-keyboard-response","172","221216","0.0-6.0-5.23","507","","","","","make choice","385","2","","","critical","c","t","d","164","240","240","164","220.0396","154.6796","trueblood","0.14","w","240","164","164","240","220.0396","154.6796","39360","39360","34035.6388","td","null","null","null","null","null","null","[2,3]","","",""
"","canvas-keyboard-response","173","221235","0.0-6.0-6.23","507","","","","","clear_screen","null","null","","","critical","c","t","d","164","240","240","164","220.0396","154.6796","trueblood","0.14","w","240","164","164","240","220.0396","154.6796","39360","39360","34035.6388","td","null","null","null","null","null","null","[2,3]","","",""
"","canvas-keyboard-response","174","221437","0.0-6.0-0.24","507","","","","","pre trial waiting period","null","null","","","critical","d","c","t","158.0083","227.1683","240","164","164","240","trueblood","0.09","h","164","240","240","164","158.0083","227.1683","39360","39360","35894.4834","tc","null","null","null","null","null","null","[3,2]","431.4848796453168","481.0280927671891","446.92223202326534"
"","canvas-keyboard-response","175","221456","0.0-6.0-1.24","507","","","","","clear_screen","null","null","","","critical","d","c","t","158.0083","227.1683","240","164","164","240","trueblood","0.09","h","164","240","240","164","158.0083","227.1683","39360","39360","35894.4834","tc","null","null","null","null","null","null","[3,2]","431.4848796453168","481.0280927671891","446.92223202326534"
"","canvas-keyboard-response","176","221961","0.0-6.0-2.24","507","","","","","rectangles no change","null","null","","","critical","d","c","t","158.0083","227.1683","240","164","164","240","trueblood","0.09","h","164","240","240","164","158.0083","227.1683","39360","39360","35894.4834","tc","null","null","null","null","null","null","[3,2]","431.4848796453168","481.0280927671891","446.92223202326534"
"","canvas-keyboard-response","177","223297","0.0-6.0-3.24","507","","","","","rectangles with change","null","null","","","critical","d","c","t","158.0083","227.1683","240","164","164","240","trueblood","0.09","h","164","240","240","164","158.0083","227.1683","39360","39360","35894.4834","tc","null","null","null","null","null","null","[3,2]","431.4848796453168","481.0280927671891","446.92223202326534"
"","canvas-keyboard-response","178","223319","0.0-6.0-4.24","507","","","","","clear_screen","null","null","","","critical","d","c","t","158.0083","227.1683","240","164","164","240","trueblood","0.09","h","164","240","240","164","158.0083","227.1683","39360","39360","35894.4834","tc","null","null","null","null","null","null","[3,2]","431.4848796453168","481.0280927671891","446.92223202326534"
"","canvas-keyboard-response","179","224711","0.0-6.0-5.24","507","","","","","make choice","1382","2","","","critical","d","c","t","158.0083","227.1683","240","164","164","240","trueblood","0.09","h","164","240","240","164","158.0083","227.1683","39360","39360","35894.4834","tc","null","null","null","null","null","null","[3,2]","","",""
"","canvas-keyboard-response","180","224731","0.0-6.0-6.24","507","","","","","clear_screen","null","null","","","critical","d","c","t","158.0083","227.1683","240","164","164","240","trueblood","0.09","h","164","240","240","164","158.0083","227.1683","39360","39360","35894.4834","tc","null","null","null","null","null","null","[3,2]","","",""
"","canvas-keyboard-response","181","224932","0.0-6.0-0.25","507","","","","","pre trial waiting period","null","null","","","critical","c","d","t","240","164","158.0083","227.1683","164","240","spektor","0.09","h","164","240","240","164","158.0083","227.1683","39360","39360","35894.4834","td","null","null","null","null","null","null","[3,2]","535.89705982762","108.01200311907277","467.39883244073536"
"","canvas-keyboard-response","182","224955","0.0-6.0-1.25","507","","","","","clear_screen","null","null","","","critical","c","d","t","240","164","158.0083","227.1683","164","240","spektor","0.09","h","164","240","240","164","158.0083","227.1683","39360","39360","35894.4834","td","null","null","null","null","null","null","[3,2]","535.89705982762","108.01200311907277","467.39883244073536"
"","canvas-keyboard-response","183","225462","0.0-6.0-2.25","507","","","","","rectangles no change","null","null","","","critical","c","d","t","240","164","158.0083","227.1683","164","240","spektor","0.09","h","164","240","240","164","158.0083","227.1683","39360","39360","35894.4834","td","null","null","null","null","null","null","[3,2]","535.89705982762","108.01200311907277","467.39883244073536"
"","canvas-keyboard-response","184","226799","0.0-6.0-3.25","507","","","","","rectangles with change","null","null","","","critical","c","d","t","240","164","158.0083","227.1683","164","240","spektor","0.09","h","164","240","240","164","158.0083","227.1683","39360","39360","35894.4834","td","null","null","null","null","null","null","[3,2]","535.89705982762","108.01200311907277","467.39883244073536"
"","canvas-keyboard-response","185","226820","0.0-6.0-4.25","507","","","","","clear_screen","null","null","","","critical","c","d","t","240","164","158.0083","227.1683","164","240","spektor","0.09","h","164","240","240","164","158.0083","227.1683","39360","39360","35894.4834","td","null","null","null","null","null","null","[3,2]","535.89705982762","108.01200311907277","467.39883244073536"
"","canvas-keyboard-response","186","227224","0.0-6.0-5.25","507","","","","","make choice","399","3","","","critical","c","d","t","240","164","158.0083","227.1683","164","240","spektor","0.09","h","164","240","240","164","158.0083","227.1683","39360","39360","35894.4834","td","null","null","null","null","null","null","[3,2]","","",""
"","canvas-keyboard-response","187","227243","0.0-6.0-6.25","507","","","","","clear_screen","null","null","","","critical","c","d","t","240","164","158.0083","227.1683","164","240","spektor","0.09","h","164","240","240","164","158.0083","227.1683","39360","39360","35894.4834","td","null","null","null","null","null","null","[3,2]","","",""
"","canvas-keyboard-response","188","227444","0.0-6.0-0.26","507","","","","","pre trial waiting period","null","null","","","catch","l","sh","sw","194","297","161","155","148","211","spektor","null","null","null","null","null","null","null","null","null","null","null","","180","200","260","200","36000","52000","[1,3]","453.9536549080285","162.42654113443496","510.68866777549795"
"","canvas-keyboard-response","189","227464","0.0-6.0-1.26","507","","","","","clear_screen","null","null","","","catch","l","sh","sw","194","297","161","155","148","211","spektor","null","null","null","null","null","null","null","null","null","null","null","","180","200","260","200","36000","52000","[1,3]","453.9536549080285","162.42654113443496","510.68866777549795"
"","canvas-keyboard-response","190","227971","0.0-6.0-2.26","507","","","","","rectangles no change","null","null","","","catch","l","sh","sw","194","297","161","155","148","211","spektor","null","null","null","null","null","null","null","null","null","null","null","","180","200","260","200","36000","52000","[1,3]","453.9536549080285","162.42654113443496","510.68866777549795"
"","canvas-keyboard-response","191","229308","0.0-6.0-3.26","507","","","","","rectangles with change","null","null","","","catch","l","sh","sw","194","297","161","155","148","211","spektor","null","null","null","null","null","null","null","null","null","null","null","","180","200","260","200","36000","52000","[1,3]","453.9536549080285","162.42654113443496","510.68866777549795"
"","canvas-keyboard-response","192","229328","0.0-6.0-4.26","507","","","","","clear_screen","null","null","","","catch","l","sh","sw","194","297","161","155","148","211","spektor","null","null","null","null","null","null","null","null","null","null","null","","180","200","260","200","36000","52000","[1,3]","453.9536549080285","162.42654113443496","510.68866777549795"
"","canvas-keyboard-response","193","229535","0.0-6.0-5.26","507","","","","","make choice","205","1","","","catch","l","sh","sw","194","297","161","155","148","211","spektor","null","null","null","null","null","null","null","null","null","null","null","","180","200","260","200","36000","52000","[1,3]","","",""
"","canvas-keyboard-response","194","229555","0.0-6.0-6.26","507","","","","","clear_screen","null","null","","","catch","l","sh","sw","194","297","161","155","148","211","spektor","null","null","null","null","null","null","null","null","null","null","null","","180","200","260","200","36000","52000","[1,3]","","",""
"","canvas-keyboard-response","195","229756","0.0-6.0-0.27","507","","","","","pre trial waiting period","null","null","","","critical","t","c","d","164","240","240","164","164","240","trueblood","0","h","164","240","240","164","164","240","39360","39360","39360","dc","null","null","null","null","null","null","[3,2]","437.38581248415755","484.92503839220905","436.9174323598987"
"","canvas-keyboard-response","196","229774","0.0-6.0-1.27","507","","","","","clear_screen","null","null","","","critical","t","c","d","164","240","240","164","164","240","trueblood","0","h","164","240","240","164","164","240","39360","39360","39360","dc","null","null","null","null","null","null","[3,2]","437.38581248415755","484.92503839220905","436.9174323598987"
"","canvas-keyboard-response","197","230279","0.0-6.0-2.27","507","","","","","rectangles no change","null","null","","","critical","t","c","d","164","240","240","164","164","240","trueblood","0","h","164","240","240","164","164","240","39360","39360","39360","dc","null","null","null","null","null","null","[3,2]","437.38581248415755","484.92503839220905","436.9174323598987"
"","canvas-keyboard-response","198","231616","0.0-6.0-3.27","507","","","","","rectangles with change","null","null","","","critical","t","c","d","164","240","240","164","164","240","trueblood","0","h","164","240","240","164","164","240","39360","39360","39360","dc","null","null","null","null","null","null","[3,2]","437.38581248415755","484.92503839220905","436.9174323598987"
"","canvas-keyboard-response","199","231639","0.0-6.0-4.27","507","","","","","clear_screen","null","null","","","critical","t","c","d","164","240","240","164","164","240","trueblood","0","h","164","240","240","164","164","240","39360","39360","39360","dc","null","null","null","null","null","null","[3,2]","437.38581248415755","484.92503839220905","436.9174323598987"
"","canvas-keyboard-response","200","231927","0.0-6.0-5.27","507","","","","","make choice","285","2","","","critical","t","c","d","164","240","240","164","164","240","trueblood","0","h","164","240","240","164","164","240","39360","39360","39360","dc","null","null","null","null","null","null","[3,2]","","",""
"","canvas-keyboard-response","201","231949","0.0-6.0-6.27","507","","","","","clear_screen","null","null","","","critical","t","c","d","164","240","240","164","164","240","trueblood","0","h","164","240","240","164","164","240","39360","39360","39360","dc","null","null","null","null","null","null","[3,2]","","",""
"","canvas-keyboard-response","202","232149","0.0-6.0-0.28","507","","","","","pre trial waiting period","null","null","","","critical","t","d","c","164","240","164","240","240","164","spektor","0","h","164","240","240","164","164","240","39360","39360","39360","td","null","null","null","null","null","null","[1,2]","477.2172768066166","120.67681614249297","497.39179538436235"
"","canvas-keyboard-response","203","232168","0.0-6.0-1.28","507","","","","","clear_screen","null","null","","","critical","t","d","c","164","240","164","240","240","164","spektor","0","h","164","240","240","164","164","240","39360","39360","39360","td","null","null","null","null","null","null","[1,2]","477.2172768066166","120.67681614249297","497.39179538436235"
"","canvas-keyboard-response","204","232681","0.0-6.0-2.28","507","","","","","rectangles no change","null","null","","","critical","t","d","c","164","240","164","240","240","164","spektor","0","h","164","240","240","164","164","240","39360","39360","39360","td","null","null","null","null","null","null","[1,2]","477.2172768066166","120.67681614249297","497.39179538436235"
"","canvas-keyboard-response","205","234017","0.0-6.0-3.28","507","","","","","rectangles with change","null","null","","","critical","t","d","c","164","240","164","240","240","164","spektor","0","h","164","240","240","164","164","240","39360","39360","39360","td","null","null","null","null","null","null","[1,2]","477.2172768066166","120.67681614249297","497.39179538436235"
"","canvas-keyboard-response","206","234039","0.0-6.0-4.28","507","","","","","clear_screen","null","null","","","critical","t","d","c","164","240","164","240","240","164","spektor","0","h","164","240","240","164","164","240","39360","39360","39360","td","null","null","null","null","null","null","[1,2]","477.2172768066166","120.67681614249297","497.39179538436235"
"","canvas-keyboard-response","207","234374","0.0-6.0-5.28","507","","","","","make choice","331","1","","","critical","t","d","c","164","240","164","240","240","164","spektor","0","h","164","240","240","164","164","240","39360","39360","39360","td","null","null","null","null","null","null","[1,2]","","",""
"","canvas-keyboard-response","208","234389","0.0-6.0-6.28","507","","","","","clear_screen","null","null","","","critical","t","d","c","164","240","164","240","240","164","spektor","0","h","164","240","240","164","164","240","39360","39360","39360","td","null","null","null","null","null","null","[1,2]","","",""
"","canvas-keyboard-response","209","234591","0.0-6.0-0.29","507","","","","","pre trial waiting period","null","null","","","critical","d","t","c","154.6796","220.0396","164","240","240","164","trueblood","0.14","h","164","240","240","164","154.6796","220.0396","39360","39360","34035.6388","dc","null","null","null","null","null","null","[1,3]","470.84315339133536","438.0475680927842","517.8893973068573"
"","canvas-keyboard-response","210","234609","0.0-6.0-1.29","507","","","","","clear_screen","null","null","","","critical","d","t","c","154.6796","220.0396","164","240","240","164","trueblood","0.14","h","164","240","240","164","154.6796","220.0396","39360","39360","34035.6388","dc","null","null","null","null","null","null","[1,3]","470.84315339133536","438.0475680927842","517.8893973068573"
"","canvas-keyboard-response","211","235115","0.0-6.0-2.29","507","","","","","rectangles no change","null","null","","","critical","d","t","c","154.6796","220.0396","164","240","240","164","trueblood","0.14","h","164","240","240","164","154.6796","220.0396","39360","39360","34035.6388","dc","null","null","null","null","null","null","[1,3]","470.84315339133536","438.0475680927842","517.8893973068573"
"","canvas-keyboard-response","212","236450","0.0-6.0-3.29","507","","","","","rectangles with change","null","null","","","critical","d","t","c","154.6796","220.0396","164","240","240","164","trueblood","0.14","h","164","240","240","164","154.6796","220.0396","39360","39360","34035.6388","dc","null","null","null","null","null","null","[1,3]","470.84315339133536","438.0475680927842","517.8893973068573"
"","canvas-keyboard-response","213","236468","0.0-6.0-4.29","507","","","","","clear_screen","null","null","","","critical","d","t","c","154.6796","220.0396","164","240","240","164","trueblood","0.14","h","164","240","240","164","154.6796","220.0396","39360","39360","34035.6388","dc","null","null","null","null","null","null","[1,3]","470.84315339133536","438.0475680927842","517.8893973068573"
"","canvas-keyboard-response","214","238167","0.0-6.0-5.29","507","","","","","make choice","1692","1","","","critical","d","t","c","154.6796","220.0396","164","240","240","164","trueblood","0.14","h","164","240","240","164","154.6796","220.0396","39360","39360","34035.6388","dc","null","null","null","null","null","null","[1,3]","","",""
"","canvas-keyboard-response","215","238187","0.0-6.0-6.29","507","","","","","clear_screen","null","null","","","critical","d","t","c","154.6796","220.0396","164","240","240","164","trueblood","0.14","h","164","240","240","164","154.6796","220.0396","39360","39360","34035.6388","dc","null","null","null","null","null","null","[1,3]","","",""
"","canvas-keyboard-response","216","238388","0.0-6.0-0.30","507","","","","","pre trial waiting period","null","null","","","critical","t","c","d","164","240","240","164","164","240","spektor","0","h","164","240","240","164","164","240","39360","39360","39360","dc","null","null","null","null","null","null","[3,2]","468.8649579040609","166.5088365318442","475.5552367161158"
"","canvas-keyboard-response","217","238406","0.0-6.0-1.30","507","","","","","clear_screen","null","null","","","critical","t","c","d","164","240","240","164","164","240","spektor","0","h","164","240","240","164","164","240","39360","39360","39360","dc","null","null","null","null","null","null","[3,2]","468.8649579040609","166.5088365318442","475.5552367161158"
"","canvas-keyboard-response","218","238915","0.0-6.0-2.30","507","","","","","rectangles no change","null","null","","","critical","t","c","d","164","240","240","164","164","240","spektor","0","h","164","240","240","164","164","240","39360","39360","39360","dc","null","null","null","null","null","null","[3,2]","468.8649579040609","166.5088365318442","475.5552367161158"
"","canvas-keyboard-response","219","240249","0.0-6.0-3.30","507","","","","","rectangles with change","null","null","","","critical","t","c","d","164","240","240","164","164","240","spektor","0","h","164","240","240","164","164","240","39360","39360","39360","dc","null","null","null","null","null","null","[3,2]","468.8649579040609","166.5088365318442","475.5552367161158"
"","canvas-keyboard-response","220","240268","0.0-6.0-4.30","507","","","","","clear_screen","null","null","","","critical","t","c","d","164","240","240","164","164","240","spektor","0","h","164","240","240","164","164","240","39360","39360","39360","dc","null","null","null","null","null","null","[3,2]","468.8649579040609","166.5088365318442","475.5552367161158"
"","canvas-keyboard-response","221","240863","0.0-6.0-5.30","507","","","","","make choice","591","2","","","critical","t","c","d","164","240","240","164","164","240","spektor","0","h","164","240","240","164","164","240","39360","39360","39360","dc","null","null","null","null","null","null","[3,2]","","",""
"","canvas-keyboard-response","222","240881","0.0-6.0-6.30","507","","","","","clear_screen","null","null","","","critical","t","c","d","164","240","240","164","164","240","spektor","0","h","164","240","240","164","164","240","39360","39360","39360","dc","null","null","null","null","null","null","[3,2]","","",""
"","canvas-keyboard-response","223","241081","0.0-6.0-0.31","507","","","","","pre trial waiting period","null","null","","","critical","c","t","d","164","240","240","164","232.8713","160.6713","spektor","0.05","w","240","164","164","240","232.8713","160.6713","39360","39360","37415.7294","dc","null","null","null","null","null","null","[3,1]","455.02836248463893","175.37473666186565","540.8440005935298"
"","canvas-keyboard-response","224","241103","0.0-6.0-1.31","507","","","","","clear_screen","null","null","","","critical","c","t","d","164","240","240","164","232.8713","160.6713","spektor","0.05","w","240","164","164","240","232.8713","160.6713","39360","39360","37415.7294","dc","null","null","null","null","null","null","[3,1]","455.02836248463893","175.37473666186565","540.8440005935298"
"","canvas-keyboard-response","225","241611","0.0-6.0-2.31","507","","","","","rectangles no change","null","null","","","critical","c","t","d","164","240","240","164","232.8713","160.6713","spektor","0.05","w","240","164","164","240","232.8713","160.6713","39360","39360","37415.7294","dc","null","null","null","null","null","null","[3,1]","455.02836248463893","175.37473666186565","540.8440005935298"
"","canvas-keyboard-response","226","242946","0.0-6.0-3.31","507","","","","","rectangles with change","null","null","","","critical","c","t","d","164","240","240","164","232.8713","160.6713","spektor","0.05","w","240","164","164","240","232.8713","160.6713","39360","39360","37415.7294","dc","null","null","null","null","null","null","[3,1]","455.02836248463893","175.37473666186565","540.8440005935298"
"","canvas-keyboard-response","227","242967","0.0-6.0-4.31","507","","","","","clear_screen","null","null","","","critical","c","t","d","164","240","240","164","232.8713","160.6713","spektor","0.05","w","240","164","164","240","232.8713","160.6713","39360","39360","37415.7294","dc","null","null","null","null","null","null","[3,1]","455.02836248463893","175.37473666186565","540.8440005935298"
"","canvas-keyboard-response","228","243167","0.0-6.0-5.31","507","","","","","make choice","189","1","","","critical","c","t","d","164","240","240","164","232.8713","160.6713","spektor","0.05","w","240","164","164","240","232.8713","160.6713","39360","39360","37415.7294","dc","null","null","null","null","null","null","[3,1]","","",""
"","canvas-keyboard-response","229","243198","0.0-6.0-6.31","507","","","","","clear_screen","null","null","","","critical","c","t","d","164","240","240","164","232.8713","160.6713","spektor","0.05","w","240","164","164","240","232.8713","160.6713","39360","39360","37415.7294","dc","null","null","null","null","null","null","[3,1]","","",""
"","canvas-keyboard-response","230","243398","0.0-6.0-0.32","507","","","","","pre trial waiting period","null","null","","","critical","c","d","t","240","164","158.0083","227.1683","164","240","spektor","0.09","h","164","240","240","164","158.0083","227.1683","39360","39360","35894.4834","dc","null","null","null","null","null","null","[2,1]","516.7127308334827","118.44173631140893","473.8436514159681"
"","canvas-keyboard-response","231","243421","0.0-6.0-1.32","507","","","","","clear_screen","null","null","","","critical","c","d","t","240","164","158.0083","227.1683","164","240","spektor","0.09","h","164","240","240","164","158.0083","227.1683","39360","39360","35894.4834","dc","null","null","null","null","null","null","[2,1]","516.7127308334827","118.44173631140893","473.8436514159681"
"","canvas-keyboard-response","232","243929","0.0-6.0-2.32","507","","","","","rectangles no change","null","null","","","critical","c","d","t","240","164","158.0083","227.1683","164","240","spektor","0.09","h","164","240","240","164","158.0083","227.1683","39360","39360","35894.4834","dc","null","null","null","null","null","null","[2,1]","516.7127308334827","118.44173631140893","473.8436514159681"
"","canvas-keyboard-response","233","245267","0.0-6.0-3.32","507","","","","","rectangles with change","null","null","","","critical","c","d","t","240","164","158.0083","227.1683","164","240","spektor","0.09","h","164","240","240","164","158.0083","227.1683","39360","39360","35894.4834","dc","null","null","null","null","null","null","[2,1]","516.7127308334827","118.44173631140893","473.8436514159681"
"","canvas-keyboard-response","234","245290","0.0-6.0-4.32","507","","","","","clear_screen","null","null","","","critical","c","d","t","240","164","158.0083","227.1683","164","240","spektor","0.09","h","164","240","240","164","158.0083","227.1683","39360","39360","35894.4834","dc","null","null","null","null","null","null","[2,1]","516.7127308334827","118.44173631140893","473.8436514159681"
"","canvas-keyboard-response","235","245448","0.0-6.0-5.32","507","","","","","make choice","153","1","","","critical","c","d","t","240","164","158.0083","227.1683","164","240","spektor","0.09","h","164","240","240","164","158.0083","227.1683","39360","39360","35894.4834","dc","null","null","null","null","null","null","[2,1]","","",""
"","canvas-keyboard-response","236","245467","0.0-6.0-6.32","507","","","","","clear_screen","null","null","","","critical","c","d","t","240","164","158.0083","227.1683","164","240","spektor","0.09","h","164","240","240","164","158.0083","227.1683","39360","39360","35894.4834","dc","null","null","null","null","null","null","[2,1]","","",""
"","canvas-keyboard-response","237","245668","0.0-6.0-0.33","507","","","","","pre trial waiting period","null","null","","","critical","t","c","d","164","240","240","164","164","240","spektor","0","h","164","240","240","164","164","240","39360","39360","39360","tc","null","null","null","null","null","null","[1,2]","467.7021095819677","158.42178338893788","501.4958073745418"
"","canvas-keyboard-response","238","245691","0.0-6.0-1.33","507","","","","","clear_screen","null","null","","","critical","t","c","d","164","240","240","164","164","240","spektor","0","h","164","240","240","164","164","240","39360","39360","39360","tc","null","null","null","null","null","null","[1,2]","467.7021095819677","158.42178338893788","501.4958073745418"
"","canvas-keyboard-response","239","246198","0.0-6.0-2.33","507","","","","","rectangles no change","null","null","","","critical","t","c","d","164","240","240","164","164","240","spektor","0","h","164","240","240","164","164","240","39360","39360","39360","tc","null","null","null","null","null","null","[1,2]","467.7021095819677","158.42178338893788","501.4958073745418"
"","canvas-keyboard-response","240","247539","0.0-6.0-3.33","507","","","","","rectangles with change","null","null","","","critical","t","c","d","164","240","240","164","164","240","spektor","0","h","164","240","240","164","164","240","39360","39360","39360","tc","null","null","null","null","null","null","[1,2]","467.7021095819677","158.42178338893788","501.4958073745418"
"","canvas-keyboard-response","241","247561","0.0-6.0-4.33","507","","","","","clear_screen","null","null","","","critical","t","c","d","164","240","240","164","164","240","spektor","0","h","164","240","240","164","164","240","39360","39360","39360","tc","null","null","null","null","null","null","[1,2]","467.7021095819677","158.42178338893788","501.4958073745418"
"","canvas-keyboard-response","242","247598","0.0-6.0-5.33","507","","","","","make choice","34","2","","","critical","t","c","d","164","240","240","164","164","240","spektor","0","h","164","240","240","164","164","240","39360","39360","39360","tc","null","null","null","null","null","null","[1,2]","","",""
"","canvas-keyboard-response","243","247615","0.0-6.0-6.33","507","","","","","clear_screen","null","null","","","critical","t","c","d","164","240","240","164","164","240","spektor","0","h","164","240","240","164","164","240","39360","39360","39360","tc","null","null","null","null","null","null","[1,2]","","",""
"","canvas-keyboard-response","244","247816","0.0-6.0-0.34","507","","","","","pre trial waiting period","null","null","","","catch","sw","l","sh","180","200","276","230","231","189","spektor","null","null","null","null","null","null","null","null","null","null","null","","180","200","260","200","36000","52000","[1,2]","496.05803336888636","148.6100631739048","518.9095537980982"
"","canvas-keyboard-response","245","247835","0.0-6.0-1.34","507","","","","","clear_screen","null","null","","","catch","sw","l","sh","180","200","276","230","231","189","spektor","null","null","null","null","null","null","null","null","null","null","null","","180","200","260","200","36000","52000","[1,2]","496.05803336888636","148.6100631739048","518.9095537980982"
"","canvas-keyboard-response","246","248341","0.0-6.0-2.34","507","","","","","rectangles no change","null","null","","","catch","sw","l","sh","180","200","276","230","231","189","spektor","null","null","null","null","null","null","null","null","null","null","null","","180","200","260","200","36000","52000","[1,2]","496.05803336888636","148.6100631739048","518.9095537980982"
"","canvas-keyboard-response","247","249679","0.0-6.0-3.34","507","","","","","rectangles with change","null","null","","","catch","sw","l","sh","180","200","276","230","231","189","spektor","null","null","null","null","null","null","null","null","null","null","null","","180","200","260","200","36000","52000","[1,2]","496.05803336888636","148.6100631739048","518.9095537980982"
"","canvas-keyboard-response","248","249700","0.0-6.0-4.34","507","","","","","clear_screen","null","null","","","catch","sw","l","sh","180","200","276","230","231","189","spektor","null","null","null","null","null","null","null","null","null","null","null","","180","200","260","200","36000","52000","[1,2]","496.05803336888636","148.6100631739048","518.9095537980982"
"","canvas-keyboard-response","249","249895","0.0-6.0-5.34","507","","","","","make choice","191","2","","","catch","sw","l","sh","180","200","276","230","231","189","spektor","null","null","null","null","null","null","null","null","null","null","null","","180","200","260","200","36000","52000","[1,2]","","",""
"","canvas-keyboard-response","250","249914","0.0-6.0-6.34","507","","","","","clear_screen","null","null","","","catch","sw","l","sh","180","200","276","230","231","189","spektor","null","null","null","null","null","null","null","null","null","null","null","","180","200","260","200","36000","52000","[1,2]","","",""
"","canvas-keyboard-response","251","250115","0.0-6.0-0.35","507","","","","","pre trial waiting period","null","null","","","critical","d","t","c","240","164","240","164","164","240","spektor","0","w","240","164","164","240","240","164","39360","39360","39360","td","null","null","null","null","null","null","[2,1]","504.69729722821603","190.78737311240766","463.30737031422325"
"","canvas-keyboard-response","252","250138","0.0-6.0-1.35","507","","","","","clear_screen","null","null","","","critical","d","t","c","240","164","240","164","164","240","spektor","0","w","240","164","164","240","240","164","39360","39360","39360","td","null","null","null","null","null","null","[2,1]","504.69729722821603","190.78737311240766","463.30737031422325"
"","canvas-keyboard-response","253","250650","0.0-6.0-2.35","507","","","","","rectangles no change","null","null","","","critical","d","t","c","240","164","240","164","164","240","spektor","0","w","240","164","164","240","240","164","39360","39360","39360","td","null","null","null","null","null","null","[2,1]","504.69729722821603","190.78737311240766","463.30737031422325"
"","canvas-keyboard-response","254","251990","0.0-6.0-3.35","507","","","","","rectangles with change","null","null","","","critical","d","t","c","240","164","240","164","164","240","spektor","0","w","240","164","164","240","240","164","39360","39360","39360","td","null","null","null","null","null","null","[2,1]","504.69729722821603","190.78737311240766","463.30737031422325"
"","canvas-keyboard-response","255","252006","0.0-6.0-4.35","507","","","","","clear_screen","null","null","","","critical","d","t","c","240","164","240","164","164","240","spektor","0","w","240","164","164","240","240","164","39360","39360","39360","td","null","null","null","null","null","null","[2,1]","504.69729722821603","190.78737311240766","463.30737031422325"
"","canvas-keyboard-response","256","252263","0.0-6.0-5.35","507","","","","","make choice","251","2","","","critical","d","t","c","240","164","240","164","164","240","spektor","0","w","240","164","164","240","240","164","39360","39360","39360","td","null","null","null","null","null","null","[2,1]","","",""
"","canvas-keyboard-response","257","252283","0.0-6.0-6.35","507","","","","","clear_screen","null","null","","","critical","d","t","c","240","164","240","164","164","240","spektor","0","w","240","164","164","240","240","164","39360","39360","39360","td","null","null","null","null","null","null","[2,1]","","",""
"","canvas-keyboard-response","258","252484","0.0-6.0-0.36","507","","","","","pre trial waiting period","null","null","","","catch","sw","sh","l","180","200","191","193","203","224","spektor","null","null","null","null","null","null","null","null","null","null","null","","180","200","260","200","36000","52000","[2,3]","502.48758061560784","170.69452541084053","495.94257487456235"
"","canvas-keyboard-response","259","252504","0.0-6.0-1.36","507","","","","","clear_screen","null","null","","","catch","sw","sh","l","180","200","191","193","203","224","spektor","null","null","null","null","null","null","null","null","null","null","null","","180","200","260","200","36000","52000","[2,3]","502.48758061560784","170.69452541084053","495.94257487456235"
"","canvas-keyboard-response","260","253012","0.0-6.0-2.36","507","","","","","rectangles no change","null","null","","","catch","sw","sh","l","180","200","191","193","203","224","spektor","null","null","null","null","null","null","null","null","null","null","null","","180","200","260","200","36000","52000","[2,3]","502.48758061560784","170.69452541084053","495.94257487456235"
"","canvas-keyboard-response","261","254352","0.0-6.0-3.36","507","","","","","rectangles with change","null","null","","","catch","sw","sh","l","180","200","191","193","203","224","spektor","null","null","null","null","null","null","null","null","null","null","null","","180","200","260","200","36000","52000","[2,3]","502.48758061560784","170.69452541084053","495.94257487456235"
"","canvas-keyboard-response","262","254370","0.0-6.0-4.36","507","","","","","clear_screen","null","null","","","catch","sw","sh","l","180","200","191","193","203","224","spektor","null","null","null","null","null","null","null","null","null","null","null","","180","200","260","200","36000","52000","[2,3]","502.48758061560784","170.69452541084053","495.94257487456235"
"","canvas-keyboard-response","263","254559","0.0-6.0-5.36","507","","","","","make choice","182","3","","","catch","sw","sh","l","180","200","191","193","203","224","spektor","null","null","null","null","null","null","null","null","null","null","null","","180","200","260","200","36000","52000","[2,3]","","",""
"","canvas-keyboard-response","264","254580","0.0-6.0-6.36","507","","","","","clear_screen","null","null","","","catch","sw","sh","l","180","200","191","193","203","224","spektor","null","null","null","null","null","null","null","null","null","null","null","","180","200","260","200","36000","52000","[2,3]","","",""
"","canvas-keyboard-response","265","254781","0.0-6.0-0.37","507","","","","","pre trial waiting period","null","null","","","critical","t","d","c","164","240","158.0083","227.1683","240","164","spektor","0.09","h","164","240","240","164","158.0083","227.1683","39360","39360","35894.4834","tc","null","null","null","null","null","null","[1,3]","479.06075967256135","118.27435141646482","527.4244200049433"
"","canvas-keyboard-response","266","254800","0.0-6.0-1.37","507","","","","","clear_screen","null","null","","","critical","t","d","c","164","240","158.0083","227.1683","240","164","spektor","0.09","h","164","240","240","164","158.0083","227.1683","39360","39360","35894.4834","tc","null","null","null","null","null","null","[1,3]","479.06075967256135","118.27435141646482","527.4244200049433"
"","canvas-keyboard-response","267","255306","0.0-6.0-2.37","507","","","","","rectangles no change","null","null","","","critical","t","d","c","164","240","158.0083","227.1683","240","164","spektor","0.09","h","164","240","240","164","158.0083","227.1683","39360","39360","35894.4834","tc","null","null","null","null","null","null","[1,3]","479.06075967256135","118.27435141646482","527.4244200049433"
"","canvas-keyboard-response","268","256645","0.0-6.0-3.37","507","","","","","rectangles with change","null","null","","","critical","t","d","c","164","240","158.0083","227.1683","240","164","spektor","0.09","h","164","240","240","164","158.0083","227.1683","39360","39360","35894.4834","tc","null","null","null","null","null","null","[1,3]","479.06075967256135","118.27435141646482","527.4244200049433"
