"success","trial_type","trial_index","time_elapsed","internal_node_id","sub_n","timeout","failed_images","failed_audio","failed_video","screen_id","rt","response","stimulus","view_history","trial","r1","r2","r3","w1","h1","w2","h2","w3","h3","display","tdd","tdo","tw","th","cw","ch","dw","dh","ta","ca","da","probe","csls","csss","clls","clss","sa","la","probe_rects","r1yloc","r2yloc","r3yloc"
"true","fullscreen","0","1734","0.0-0.0","545","","","","","","","","","","","","","","","","","","","","","","","","","","","","","","","","","","","","","","","","","",""
"true","preload","1","1746","0.0-1.0","545","false","[]","[]","[]","img preload","","","","","","","","","","","","","","","","","","","","","","","","","","","","","","","","","","","","",""
"","survey-html-form","2","409285","0.0-2.0","545","","","","","enter-sub-number","407534","{""response"":""545""}","","","","","","","","","","","","","","","","","","","","","","","","","","","","","","","","","","",""
"","image-button-response","3","419996","0.0-3.0","545","","","","","","10644","0","consent.png","","","","","","","","","","","","","","","","","","","","","","","","","","","","","","","","","",""
"","html-button-response","4","427740","0.0-4.0","545","","","","","intro mssg","7737","0","<div style= ""font-size:25px;"" <p> <strong> Welcome! </strong><br> <p style=""color:#8B0000; font-size:25px;""><strong> Please do NOT exit full screen until you are done with the experiment. </strong> </p><p style=""font-size:25px;color:#8B0000;""> <strong> Your data will be lost <br> if you try to go back or refresh the page after the experiment starts. Feel free to click ""previous"" during the instructions, however.</strong> </p><br><p> <strong> Thanks in advance for your contribution to our research! </strong></p>","","","","","","","","","","","","","","","","","","","","","","","","","","","","","","","","","",""
"","instructions","5","474803","0.0-5.0","545","","","","","instructions","47059","","","[{""page_index"":0,""viewing_time"":7876},{""page_index"":1,""viewing_time"":8071},{""page_index"":2,""viewing_time"":3296},{""page_index"":3,""viewing_time"":13831},{""page_index"":4,""viewing_time"":8737},{""page_index"":5,""viewing_time"":1912},{""page_index"":6,""viewing_time"":2657},{""page_index"":7,""viewing_time"":679}]","","","","","","","","","","","","","","","","","","","","","","","","","","","","","","","","",""
"","canvas-keyboard-response","6","475008","0.0-6.0-0.0","545","","","","","pre trial waiting period","null","null","","","catch","sw","sh","l","180","200","185","161","229","169","trueblood","null","null","null","null","null","null","null","null","null","null","null","","180","200","260","200","36000","52000","[2,3]","472.37757938681256","489.11545442122065","489.2934391518768"
"","canvas-keyboard-response","7","475030","0.0-6.0-1.0","545","","","","","clear_screen","null","null","","","catch","sw","sh","l","180","200","185","161","229","169","trueblood","null","null","null","null","null","null","null","null","null","null","null","","180","200","260","200","36000","52000","[2,3]","472.37757938681256","489.11545442122065","489.2934391518768"
"","canvas-keyboard-response","8","475541","0.0-6.0-2.0","545","","","","","rectangles no change","null","null","","","catch","sw","sh","l","180","200","185","161","229","169","trueblood","null","null","null","null","null","null","null","null","null","null","null","","180","200","260","200","36000","52000","[2,3]","472.37757938681256","489.11545442122065","489.2934391518768"
"","canvas-keyboard-response","9","476878","0.0-6.0-3.0","545","","","","","rectangles with change","null","null","","","catch","sw","sh","l","180","200","185","161","229","169","trueblood","null","null","null","null","null","null","null","null","null","null","null","","180","200","260","200","36000","52000","[2,3]","472.37757938681256","489.11545442122065","489.2934391518768"
"","canvas-keyboard-response","10","476896","0.0-6.0-4.0","545","","","","","clear_screen","null","null","","","catch","sw","sh","l","180","200","185","161","229","169","trueblood","null","null","null","null","null","null","null","null","null","null","null","","180","200","260","200","36000","52000","[2,3]","472.37757938681256","489.11545442122065","489.2934391518768"
"","canvas-keyboard-response","11","477283","0.0-6.0-5.0","545","","","","","make choice","380","3","","","catch","sw","sh","l","180","200","185","161","229","169","trueblood","null","null","null","null","null","null","null","null","null","null","null","","180","200","260","200","36000","52000","[2,3]","","",""
"","canvas-keyboard-response","12","477306","0.0-6.0-6.0","545","","","","","clear_screen","null","null","","","catch","sw","sh","l","180","200","185","161","229","169","trueblood","null","null","null","null","null","null","null","null","null","null","null","","180","200","260","200","36000","52000","[2,3]","","",""
"","canvas-keyboard-response","13","477508","0.0-6.0-0.1","545","","","","","pre trial waiting period","null","null","","","critical","t","d","c","164","240","160.6713","232.8713","240","164","spektor","0.05","h","164","240","240","164","160.6713","232.8713","39360","39360","37415.7294","td","null","null","null","null","null","null","[1,2]","480.31450682633914","109.92616292971087","497.87940631769357"
"","canvas-keyboard-response","14","477527","0.0-6.0-1.1","545","","","","","clear_screen","null","null","","","critical","t","d","c","164","240","160.6713","232.8713","240","164","spektor","0.05","h","164","240","240","164","160.6713","232.8713","39360","39360","37415.7294","td","null","null","null","null","null","null","[1,2]","480.31450682633914","109.92616292971087","497.87940631769357"
"","canvas-keyboard-response","15","478035","0.0-6.0-2.1","545","","","","","rectangles no change","null","null","","","critical","t","d","c","164","240","160.6713","232.8713","240","164","spektor","0.05","h","164","240","240","164","160.6713","232.8713","39360","39360","37415.7294","td","null","null","null","null","null","null","[1,2]","480.31450682633914","109.92616292971087","497.87940631769357"
"","canvas-keyboard-response","16","479371","0.0-6.0-3.1","545","","","","","rectangles with change","null","null","","","critical","t","d","c","164","240","160.6713","232.8713","240","164","spektor","0.05","h","164","240","240","164","160.6713","232.8713","39360","39360","37415.7294","td","null","null","null","null","null","null","[1,2]","480.31450682633914","109.92616292971087","497.87940631769357"
"","canvas-keyboard-response","17","479390","0.0-6.0-4.1","545","","","","","clear_screen","null","null","","","critical","t","d","c","164","240","160.6713","232.8713","240","164","spektor","0.05","h","164","240","240","164","160.6713","232.8713","39360","39360","37415.7294","td","null","null","null","null","null","null","[1,2]","480.31450682633914","109.92616292971087","497.87940631769357"
"","canvas-keyboard-response","18","479603","0.0-6.0-5.1","545","","","","","make choice","205","2","","","critical","t","d","c","164","240","160.6713","232.8713","240","164","spektor","0.05","h","164","240","240","164","160.6713","232.8713","39360","39360","37415.7294","td","null","null","null","null","null","null","[1,2]","","",""
"","canvas-keyboard-response","19","479620","0.0-6.0-6.1","545","","","","","clear_screen","null","null","","","critical","t","d","c","164","240","160.6713","232.8713","240","164","spektor","0.05","h","164","240","240","164","160.6713","232.8713","39360","39360","37415.7294","td","null","null","null","null","null","null","[1,2]","","",""
"","canvas-keyboard-response","20","479822","0.0-6.0-0.2","545","","","","","pre trial waiting period","null","null","","","catch","sh","sw","l","225","151","174","185","234","165","spektor","null","null","null","null","null","null","null","null","null","null","null","","180","200","260","200","36000","52000","[2,3]","530.7859678946585","176.0276525781858","503.4561364181319"
"","canvas-keyboard-response","21","479845","0.0-6.0-1.2","545","","","","","clear_screen","null","null","","","catch","sh","sw","l","225","151","174","185","234","165","spektor","null","null","null","null","null","null","null","null","null","null","null","","180","200","260","200","36000","52000","[2,3]","530.7859678946585","176.0276525781858","503.4561364181319"
"","canvas-keyboard-response","22","480351","0.0-6.0-2.2","545","","","","","rectangles no change","null","null","","","catch","sh","sw","l","225","151","174","185","234","165","spektor","null","null","null","null","null","null","null","null","null","null","null","","180","200","260","200","36000","52000","[2,3]","530.7859678946585","176.0276525781858","503.4561364181319"
"","canvas-keyboard-response","23","481687","0.0-6.0-3.2","545","","","","","rectangles with change","null","null","","","catch","sh","sw","l","225","151","174","185","234","165","spektor","null","null","null","null","null","null","null","null","null","null","null","","180","200","260","200","36000","52000","[2,3]","530.7859678946585","176.0276525781858","503.4561364181319"
"","canvas-keyboard-response","24","481707","0.0-6.0-4.2","545","","","","","clear_screen","null","null","","","catch","sh","sw","l","225","151","174","185","234","165","spektor","null","null","null","null","null","null","null","null","null","null","null","","180","200","260","200","36000","52000","[2,3]","530.7859678946585","176.0276525781858","503.4561364181319"
"","canvas-keyboard-response","25","483084","0.0-6.0-5.2","545","","","","","make choice","1371","3","","","catch","sh","sw","l","225","151","174","185","234","165","spektor","null","null","null","null","null","null","null","null","null","null","null","","180","200","260","200","36000","52000","[2,3]","","",""
"","canvas-keyboard-response","26","483103","0.0-6.0-6.2","545","","","","","clear_screen","null","null","","","catch","sh","sw","l","225","151","174","185","234","165","spektor","null","null","null","null","null","null","null","null","null","null","null","","180","200","260","200","36000","52000","[2,3]","","",""
"","canvas-keyboard-response","27","483304","0.0-6.0-0.3","545","","","","","pre trial waiting period","null","null","","","catch","sw","sh","l","180","200","227","143","244","166","spektor","null","null","null","null","null","null","null","null","null","null","null","","180","200","260","200","36000","52000","[2,3]","504.35322572871905","223.65781869171394","540.597516144604"
"","canvas-keyboard-response","28","483323","0.0-6.0-1.3","545","","","","","clear_screen","null","null","","","catch","sw","sh","l","180","200","227","143","244","166","spektor","null","null","null","null","null","null","null","null","null","null","null","","180","200","260","200","36000","52000","[2,3]","504.35322572871905","223.65781869171394","540.597516144604"
"","canvas-keyboard-response","29","483830","0.0-6.0-2.3","545","","","","","rectangles no change","null","null","","","catch","sw","sh","l","180","200","227","143","244","166","spektor","null","null","null","null","null","null","null","null","null","null","null","","180","200","260","200","36000","52000","[2,3]","504.35322572871905","223.65781869171394","540.597516144604"
"","canvas-keyboard-response","30","485166","0.0-6.0-3.3","545","","","","","rectangles with change","null","null","","","catch","sw","sh","l","180","200","227","143","244","166","spektor","null","null","null","null","null","null","null","null","null","null","null","","180","200","260","200","36000","52000","[2,3]","504.35322572871905","223.65781869171394","540.597516144604"
"","canvas-keyboard-response","31","485187","0.0-6.0-4.3","545","","","","","clear_screen","null","null","","","catch","sw","sh","l","180","200","227","143","244","166","spektor","null","null","null","null","null","null","null","null","null","null","null","","180","200","260","200","36000","52000","[2,3]","504.35322572871905","223.65781869171394","540.597516144604"
"","canvas-keyboard-response","32","485914","0.0-6.0-5.3","545","","","","","make choice","721","3","","","catch","sw","sh","l","180","200","227","143","244","166","spektor","null","null","null","null","null","null","null","null","null","null","null","","180","200","260","200","36000","52000","[2,3]","","",""
"","canvas-keyboard-response","33","485933","0.0-6.0-6.3","545","","","","","clear_screen","null","null","","","catch","sw","sh","l","180","200","227","143","244","166","spektor","null","null","null","null","null","null","null","null","null","null","null","","180","200","260","200","36000","52000","[2,3]","","",""
"","canvas-keyboard-response","34","486134","0.0-6.0-0.4","545","","","","","pre trial waiting period","null","null","","","critical","t","d","c","164","240","162.6685","237.1485","240","164","trueblood","0.02","h","164","240","240","164","162.6685","237.1485","39360","39360","38576.5967","td","null","null","null","null","null","null","[1,2]","428.4242742453278","456.9182263236012","499.375515530745"
"","canvas-keyboard-response","35","486157","0.0-6.0-1.4","545","","","","","clear_screen","null","null","","","critical","t","d","c","164","240","162.6685","237.1485","240","164","trueblood","0.02","h","164","240","240","164","162.6685","237.1485","39360","39360","38576.5967","td","null","null","null","null","null","null","[1,2]","428.4242742453278","456.9182263236012","499.375515530745"
"","canvas-keyboard-response","36","486664","0.0-6.0-2.4","545","","","","","rectangles no change","null","null","","","critical","t","d","c","164","240","162.6685","237.1485","240","164","trueblood","0.02","h","164","240","240","164","162.6685","237.1485","39360","39360","38576.5967","td","null","null","null","null","null","null","[1,2]","428.4242742453278","456.9182263236012","499.375515530745"
"","canvas-keyboard-response","37","487998","0.0-6.0-3.4","545","","","","","rectangles with change","null","null","","","critical","t","d","c","164","240","162.6685","237.1485","240","164","trueblood","0.02","h","164","240","240","164","162.6685","237.1485","39360","39360","38576.5967","td","null","null","null","null","null","null","[1,2]","428.4242742453278","456.9182263236012","499.375515530745"
"","canvas-keyboard-response","38","488019","0.0-6.0-4.4","545","","","","","clear_screen","null","null","","","critical","t","d","c","164","240","162.6685","237.1485","240","164","trueblood","0.02","h","164","240","240","164","162.6685","237.1485","39360","39360","38576.5967","td","null","null","null","null","null","null","[1,2]","428.4242742453278","456.9182263236012","499.375515530745"
"","canvas-keyboard-response","39","488411","0.0-6.0-5.4","545","","","","","make choice","385","2","","","critical","t","d","c","164","240","162.6685","237.1485","240","164","trueblood","0.02","h","164","240","240","164","162.6685","237.1485","39360","39360","38576.5967","td","null","null","null","null","null","null","[1,2]","","",""
"","canvas-keyboard-response","40","488429","0.0-6.0-6.4","545","","","","","clear_screen","null","null","","","critical","t","d","c","164","240","162.6685","237.1485","240","164","trueblood","0.02","h","164","240","240","164","162.6685","237.1485","39360","39360","38576.5967","td","null","null","null","null","null","null","[1,2]","","",""
"","canvas-keyboard-response","41","488631","0.0-6.0-0.5","545","","","","","pre trial waiting period","null","null","","","catch","sw","sh","l","180","200","189","185","270","239","spektor","null","null","null","null","null","null","null","null","null","null","null","","180","200","260","200","36000","52000","[2,3]","519.4284173249057","143.7065484107413","472.07722531289363"
"","canvas-keyboard-response","42","488655","0.0-6.0-1.5","545","","","","","clear_screen","null","null","","","catch","sw","sh","l","180","200","189","185","270","239","spektor","null","null","null","null","null","null","null","null","null","null","null","","180","200","260","200","36000","52000","[2,3]","519.4284173249057","143.7065484107413","472.07722531289363"
"","canvas-keyboard-response","43","489166","0.0-6.0-2.5","545","","","","","rectangles no change","null","null","","","catch","sw","sh","l","180","200","189","185","270","239","spektor","null","null","null","null","null","null","null","null","null","null","null","","180","200","260","200","36000","52000","[2,3]","519.4284173249057","143.7065484107413","472.07722531289363"
"","canvas-keyboard-response","44","490503","0.0-6.0-3.5","545","","","","","rectangles with change","null","null","","","catch","sw","sh","l","180","200","189","185","270","239","spektor","null","null","null","null","null","null","null","null","null","null","null","","180","200","260","200","36000","52000","[2,3]","519.4284173249057","143.7065484107413","472.07722531289363"
"","canvas-keyboard-response","45","490522","0.0-6.0-4.5","545","","","","","clear_screen","null","null","","","catch","sw","sh","l","180","200","189","185","270","239","spektor","null","null","null","null","null","null","null","null","null","null","null","","180","200","260","200","36000","52000","[2,3]","519.4284173249057","143.7065484107413","472.07722531289363"
"","canvas-keyboard-response","46","490818","0.0-6.0-5.5","545","","","","","make choice","291","3","","","catch","sw","sh","l","180","200","189","185","270","239","spektor","null","null","null","null","null","null","null","null","null","null","null","","180","200","260","200","36000","52000","[2,3]","","",""
"","canvas-keyboard-response","47","490837","0.0-6.0-6.5","545","","","","","clear_screen","null","null","","","catch","sw","sh","l","180","200","189","185","270","239","spektor","null","null","null","null","null","null","null","null","null","null","null","","180","200","260","200","36000","52000","[2,3]","","",""
"","canvas-keyboard-response","48","491039","0.0-6.0-0.6","545","","","","","pre trial waiting period","null","null","","","critical","t","d","c","240","164","232.8713","160.6713","164","240","trueblood","0.05","w","240","164","164","240","232.8713","160.6713","39360","39360","37415.7294","dc","null","null","null","null","null","null","[2,3]","512.2627797165261","496.29893374100135","466.67668647098645"
"","canvas-keyboard-response","49","491063","0.0-6.0-1.6","545","","","","","clear_screen","null","null","","","critical","t","d","c","240","164","232.8713","160.6713","164","240","trueblood","0.05","w","240","164","164","240","232.8713","160.6713","39360","39360","37415.7294","dc","null","null","null","null","null","null","[2,3]","512.2627797165261","496.29893374100135","466.67668647098645"
"","canvas-keyboard-response","50","491569","0.0-6.0-2.6","545","","","","","rectangles no change","null","null","","","critical","t","d","c","240","164","232.8713","160.6713","164","240","trueblood","0.05","w","240","164","164","240","232.8713","160.6713","39360","39360","37415.7294","dc","null","null","null","null","null","null","[2,3]","512.2627797165261","496.29893374100135","466.67668647098645"
"","canvas-keyboard-response","51","492906","0.0-6.0-3.6","545","","","","","rectangles with change","null","null","","","critical","t","d","c","240","164","232.8713","160.6713","164","240","trueblood","0.05","w","240","164","164","240","232.8713","160.6713","39360","39360","37415.7294","dc","null","null","null","null","null","null","[2,3]","512.2627797165261","496.29893374100135","466.67668647098645"
"","canvas-keyboard-response","52","492930","0.0-6.0-4.6","545","","","","","clear_screen","null","null","","","critical","t","d","c","240","164","232.8713","160.6713","164","240","trueblood","0.05","w","240","164","164","240","232.8713","160.6713","39360","39360","37415.7294","dc","null","null","null","null","null","null","[2,3]","512.2627797165261","496.29893374100135","466.67668647098645"
"","canvas-keyboard-response","53","493771","0.0-6.0-5.6","545","","","","","make choice","835","3","","","critical","t","d","c","240","164","232.8713","160.6713","164","240","trueblood","0.05","w","240","164","164","240","232.8713","160.6713","39360","39360","37415.7294","dc","null","null","null","null","null","null","[2,3]","","",""
"","canvas-keyboard-response","54","493789","0.0-6.0-6.6","545","","","","","clear_screen","null","null","","","critical","t","d","c","240","164","232.8713","160.6713","164","240","trueblood","0.05","w","240","164","164","240","232.8713","160.6713","39360","39360","37415.7294","dc","null","null","null","null","null","null","[2,3]","","",""
"","canvas-keyboard-response","55","493989","0.0-6.0-0.7","545","","","","","pre trial waiting period","null","null","","","critical","t","d","c","164","240","154.6796","220.0396","240","164","trueblood","0.14","h","164","240","240","164","154.6796","220.0396","39360","39360","34035.6388","td","null","null","null","null","null","null","[1,2]","429.43481297315753","466.9494844519612","490.5263380121717"
"","canvas-keyboard-response","56","494011","0.0-6.0-1.7","545","","","","","clear_screen","null","null","","","critical","t","d","c","164","240","154.6796","220.0396","240","164","trueblood","0.14","h","164","240","240","164","154.6796","220.0396","39360","39360","34035.6388","td","null","null","null","null","null","null","[1,2]","429.43481297315753","466.9494844519612","490.5263380121717"
"","canvas-keyboard-response","57","494517","0.0-6.0-2.7","545","","","","","rectangles no change","null","null","","","critical","t","d","c","164","240","154.6796","220.0396","240","164","trueblood","0.14","h","164","240","240","164","154.6796","220.0396","39360","39360","34035.6388","td","null","null","null","null","null","null","[1,2]","429.43481297315753","466.9494844519612","490.5263380121717"
"","canvas-keyboard-response","58","495853","0.0-6.0-3.7","545","","","","","rectangles with change","null","null","","","critical","t","d","c","164","240","154.6796","220.0396","240","164","trueblood","0.14","h","164","240","240","164","154.6796","220.0396","39360","39360","34035.6388","td","null","null","null","null","null","null","[1,2]","429.43481297315753","466.9494844519612","490.5263380121717"
"","canvas-keyboard-response","59","495871","0.0-6.0-4.7","545","","","","","clear_screen","null","null","","","critical","t","d","c","164","240","154.6796","220.0396","240","164","trueblood","0.14","h","164","240","240","164","154.6796","220.0396","39360","39360","34035.6388","td","null","null","null","null","null","null","[1,2]","429.43481297315753","466.9494844519612","490.5263380121717"
"","canvas-keyboard-response","60","496412","0.0-6.0-5.7","545","","","","","make choice","533","1","","","critical","t","d","c","164","240","154.6796","220.0396","240","164","trueblood","0.14","h","164","240","240","164","154.6796","220.0396","39360","39360","34035.6388","td","null","null","null","null","null","null","[1,2]","","",""
"","canvas-keyboard-response","61","496432","0.0-6.0-6.7","545","","","","","clear_screen","null","null","","","critical","t","d","c","164","240","154.6796","220.0396","240","164","trueblood","0.14","h","164","240","240","164","154.6796","220.0396","39360","39360","34035.6388","td","null","null","null","null","null","null","[1,2]","","",""
"","canvas-keyboard-response","62","496633","0.0-6.0-0.8","545","","","","","pre trial waiting period","null","null","","","critical","d","t","c","158.0083","227.1683","164","240","240","164","trueblood","0.09","h","164","240","240","164","158.0083","227.1683","39360","39360","35894.4834","tc","null","null","null","null","null","null","[2,3]","443.922420883843","421.1740514804285","509.4669859514899"
"","canvas-keyboard-response","63","496653","0.0-6.0-1.8","545","","","","","clear_screen","null","null","","","critical","d","t","c","158.0083","227.1683","164","240","240","164","trueblood","0.09","h","164","240","240","164","158.0083","227.1683","39360","39360","35894.4834","tc","null","null","null","null","null","null","[2,3]","443.922420883843","421.1740514804285","509.4669859514899"
"","canvas-keyboard-response","64","497158","0.0-6.0-2.8","545","","","","","rectangles no change","null","null","","","critical","d","t","c","158.0083","227.1683","164","240","240","164","trueblood","0.09","h","164","240","240","164","158.0083","227.1683","39360","39360","35894.4834","tc","null","null","null","null","null","null","[2,3]","443.922420883843","421.1740514804285","509.4669859514899"
"","canvas-keyboard-response","65","498493","0.0-6.0-3.8","545","","","","","rectangles with change","null","null","","","critical","d","t","c","158.0083","227.1683","164","240","240","164","trueblood","0.09","h","164","240","240","164","158.0083","227.1683","39360","39360","35894.4834","tc","null","null","null","null","null","null","[2,3]","443.922420883843","421.1740514804285","509.4669859514899"
"","canvas-keyboard-response","66","498516","0.0-6.0-4.8","545","","","","","clear_screen","null","null","","","critical","d","t","c","158.0083","227.1683","164","240","240","164","trueblood","0.09","h","164","240","240","164","158.0083","227.1683","39360","39360","35894.4834","tc","null","null","null","null","null","null","[2,3]","443.922420883843","421.1740514804285","509.4669859514899"
"","canvas-keyboard-response","67","499299","0.0-6.0-5.8","545","","","","","make choice","778","2","","","critical","d","t","c","158.0083","227.1683","164","240","240","164","trueblood","0.09","h","164","240","240","164","158.0083","227.1683","39360","39360","35894.4834","tc","null","null","null","null","null","null","[2,3]","","",""
"","canvas-keyboard-response","68","499320","0.0-6.0-6.8","545","","","","","clear_screen","null","null","","","critical","d","t","c","158.0083","227.1683","164","240","240","164","trueblood","0.09","h","164","240","240","164","158.0083","227.1683","39360","39360","35894.4834","tc","null","null","null","null","null","null","[2,3]","","",""
"","canvas-keyboard-response","69","499521","0.0-6.0-0.9","545","","","","","pre trial waiting period","null","null","","","critical","d","t","c","220.0396","154.6796","240","164","164","240","trueblood","0.14","w","240","164","164","240","220.0396","154.6796","39360","39360","34035.6388","td","null","null","null","null","null","null","[2,1]","496.921837252578","471.9188618694136","451.99432620481656"
"","canvas-keyboard-response","70","499543","0.0-6.0-1.9","545","","","","","clear_screen","null","null","","","critical","d","t","c","220.0396","154.6796","240","164","164","240","trueblood","0.14","w","240","164","164","240","220.0396","154.6796","39360","39360","34035.6388","td","null","null","null","null","null","null","[2,1]","496.921837252578","471.9188618694136","451.99432620481656"
"","canvas-keyboard-response","71","500052","0.0-6.0-2.9","545","","","","","rectangles no change","null","null","","","critical","d","t","c","220.0396","154.6796","240","164","164","240","trueblood","0.14","w","240","164","164","240","220.0396","154.6796","39360","39360","34035.6388","td","null","null","null","null","null","null","[2,1]","496.921837252578","471.9188618694136","451.99432620481656"
"","canvas-keyboard-response","72","501392","0.0-6.0-3.9","545","","","","","rectangles with change","null","null","","","critical","d","t","c","220.0396","154.6796","240","164","164","240","trueblood","0.14","w","240","164","164","240","220.0396","154.6796","39360","39360","34035.6388","td","null","null","null","null","null","null","[2,1]","496.921837252578","471.9188618694136","451.99432620481656"
"","canvas-keyboard-response","73","501413","0.0-6.0-4.9","545","","","","","clear_screen","null","null","","","critical","d","t","c","220.0396","154.6796","240","164","164","240","trueblood","0.14","w","240","164","164","240","220.0396","154.6796","39360","39360","34035.6388","td","null","null","null","null","null","null","[2,1]","496.921837252578","471.9188618694136","451.99432620481656"
"","canvas-keyboard-response","74","502155","0.0-6.0-5.9","545","","","","","make choice","736","2","","","critical","d","t","c","220.0396","154.6796","240","164","164","240","trueblood","0.14","w","240","164","164","240","220.0396","154.6796","39360","39360","34035.6388","td","null","null","null","null","null","null","[2,1]","","",""
"","canvas-keyboard-response","75","502176","0.0-6.0-6.9","545","","","","","clear_screen","null","null","","","critical","d","t","c","220.0396","154.6796","240","164","164","240","trueblood","0.14","w","240","164","164","240","220.0396","154.6796","39360","39360","34035.6388","td","null","null","null","null","null","null","[2,1]","","",""
"","canvas-keyboard-response","76","502376","0.0-6.0-0.10","545","","","","","pre trial waiting period","null","null","","","catch","l","sw","sh","188","270","140","167","223","159","trueblood","null","null","null","null","null","null","null","null","null","null","null","","180","200","260","200","36000","52000","[1,2]","421.607893864057","494.1662529083245","506.936408841659"
"","canvas-keyboard-response","77","502399","0.0-6.0-1.10","545","","","","","clear_screen","null","null","","","catch","l","sw","sh","188","270","140","167","223","159","trueblood","null","null","null","null","null","null","null","null","null","null","null","","180","200","260","200","36000","52000","[1,2]","421.607893864057","494.1662529083245","506.936408841659"
"","canvas-keyboard-response","78","502907","0.0-6.0-2.10","545","","","","","rectangles no change","null","null","","","catch","l","sw","sh","188","270","140","167","223","159","trueblood","null","null","null","null","null","null","null","null","null","null","null","","180","200","260","200","36000","52000","[1,2]","421.607893864057","494.1662529083245","506.936408841659"
"","canvas-keyboard-response","79","504242","0.0-6.0-3.10","545","","","","","rectangles with change","null","null","","","catch","l","sw","sh","188","270","140","167","223","159","trueblood","null","null","null","null","null","null","null","null","null","null","null","","180","200","260","200","36000","52000","[1,2]","421.607893864057","494.1662529083245","506.936408841659"
"","canvas-keyboard-response","80","504264","0.0-6.0-4.10","545","","","","","clear_screen","null","null","","","catch","l","sw","sh","188","270","140","167","223","159","trueblood","null","null","null","null","null","null","null","null","null","null","null","","180","200","260","200","36000","52000","[1,2]","421.607893864057","494.1662529083245","506.936408841659"
"","canvas-keyboard-response","81","505107","0.0-6.0-5.10","545","","","","","make choice","838","1","","","catch","l","sw","sh","188","270","140","167","223","159","trueblood","null","null","null","null","null","null","null","null","null","null","null","","180","200","260","200","36000","52000","[1,2]","","",""
"","canvas-keyboard-response","82","505125","0.0-6.0-6.10","545","","","","","clear_screen","null","null","","","catch","l","sw","sh","188","270","140","167","223","159","trueblood","null","null","null","null","null","null","null","null","null","null","null","","180","200","260","200","36000","52000","[1,2]","","",""
"","canvas-keyboard-response","83","505326","0.0-6.0-0.11","545","","","","","pre trial waiting period","null","null","","","critical","t","c","d","164","240","240","164","162.6685","237.1485","spektor","0.02","h","164","240","240","164","162.6685","237.1485","39360","39360","38576.5967","tc","null","null","null","null","null","null","[1,2]","460.87444069684904","195.35778200148573","459.4059285178474"
"","canvas-keyboard-response","84","505347","0.0-6.0-1.11","545","","","","","clear_screen","null","null","","","critical","t","c","d","164","240","240","164","162.6685","237.1485","spektor","0.02","h","164","240","240","164","162.6685","237.1485","39360","39360","38576.5967","tc","null","null","null","null","null","null","[1,2]","460.87444069684904","195.35778200148573","459.4059285178474"
"","canvas-keyboard-response","85","505855","0.0-6.0-2.11","545","","","","","rectangles no change","null","null","","","critical","t","c","d","164","240","240","164","162.6685","237.1485","spektor","0.02","h","164","240","240","164","162.6685","237.1485","39360","39360","38576.5967","tc","null","null","null","null","null","null","[1,2]","460.87444069684904","195.35778200148573","459.4059285178474"
"","canvas-keyboard-response","86","507195","0.0-6.0-3.11","545","","","","","rectangles with change","null","null","","","critical","t","c","d","164","240","240","164","162.6685","237.1485","spektor","0.02","h","164","240","240","164","162.6685","237.1485","39360","39360","38576.5967","tc","null","null","null","null","null","null","[1,2]","460.87444069684904","195.35778200148573","459.4059285178474"
"","canvas-keyboard-response","87","507213","0.0-6.0-4.11","545","","","","","clear_screen","null","null","","","critical","t","c","d","164","240","240","164","162.6685","237.1485","spektor","0.02","h","164","240","240","164","162.6685","237.1485","39360","39360","38576.5967","tc","null","null","null","null","null","null","[1,2]","460.87444069684904","195.35778200148573","459.4059285178474"
"","canvas-keyboard-response","88","508050","0.0-6.0-5.11","545","","","","","make choice","829","1","","","critical","t","c","d","164","240","240","164","162.6685","237.1485","spektor","0.02","h","164","240","240","164","162.6685","237.1485","39360","39360","38576.5967","tc","null","null","null","null","null","null","[1,2]","","",""
"","canvas-keyboard-response","89","508072","0.0-6.0-6.11","545","","","","","clear_screen","null","null","","","critical","t","c","d","164","240","240","164","162.6685","237.1485","spektor","0.02","h","164","240","240","164","162.6685","237.1485","39360","39360","38576.5967","tc","null","null","null","null","null","null","[1,2]","","",""
"","canvas-keyboard-response","90","508272","0.0-6.0-0.12","545","","","","","pre trial waiting period","null","null","","","catch","l","sw","sh","203","281","217","207","181","207","trueblood","null","null","null","null","null","null","null","null","null","null","null","","180","200","260","200","36000","52000","[1,2]","420.8249537695132","467.9020338539233","483.71069462980614"
"","canvas-keyboard-response","91","508294","0.0-6.0-1.12","545","","","","","clear_screen","null","null","","","catch","l","sw","sh","203","281","217","207","181","207","trueblood","null","null","null","null","null","null","null","null","null","null","null","","180","200","260","200","36000","52000","[1,2]","420.8249537695132","467.9020338539233","483.71069462980614"
"","canvas-keyboard-response","92","508802","0.0-6.0-2.12","545","","","","","rectangles no change","null","null","","","catch","l","sw","sh","203","281","217","207","181","207","trueblood","null","null","null","null","null","null","null","null","null","null","null","","180","200","260","200","36000","52000","[1,2]","420.8249537695132","467.9020338539233","483.71069462980614"
"","canvas-keyboard-response","93","510140","0.0-6.0-3.12","545","","","","","rectangles with change","null","null","","","catch","l","sw","sh","203","281","217","207","181","207","trueblood","null","null","null","null","null","null","null","null","null","null","null","","180","200","260","200","36000","52000","[1,2]","420.8249537695132","467.9020338539233","483.71069462980614"
"","canvas-keyboard-response","94","510160","0.0-6.0-4.12","545","","","","","clear_screen","null","null","","","catch","l","sw","sh","203","281","217","207","181","207","trueblood","null","null","null","null","null","null","null","null","null","null","null","","180","200","260","200","36000","52000","[1,2]","420.8249537695132","467.9020338539233","483.71069462980614"
"","canvas-keyboard-response","95","510659","0.0-6.0-5.12","545","","","","","make choice","492","2","","","catch","l","sw","sh","203","281","217","207","181","207","trueblood","null","null","null","null","null","null","null","null","null","null","null","","180","200","260","200","36000","52000","[1,2]","","",""
"","canvas-keyboard-response","96","510678","0.0-6.0-6.12","545","","","","","clear_screen","null","null","","","catch","l","sw","sh","203","281","217","207","181","207","trueblood","null","null","null","null","null","null","null","null","null","null","null","","180","200","260","200","36000","52000","[1,2]","","",""
"","canvas-keyboard-response","97","510879","0.0-6.0-0.13","545","","","","","pre trial waiting period","null","null","","","critical","d","c","t","232.8713","160.6713","164","240","240","164","spektor","0.05","w","240","164","164","240","232.8713","160.6713","39360","39360","37415.7294","tc","null","null","null","null","null","null","[3,2]","527.8973357195111","137.8880837863779","499.94550944657243"
"","canvas-keyboard-response","98","510899","0.0-6.0-1.13","545","","","","","clear_screen","null","null","","","critical","d","c","t","232.8713","160.6713","164","240","240","164","spektor","0.05","w","240","164","164","240","232.8713","160.6713","39360","39360","37415.7294","tc","null","null","null","null","null","null","[3,2]","527.8973357195111","137.8880837863779","499.94550944657243"
"","canvas-keyboard-response","99","511409","0.0-6.0-2.13","545","","","","","rectangles no change","null","null","","","critical","d","c","t","232.8713","160.6713","164","240","240","164","spektor","0.05","w","240","164","164","240","232.8713","160.6713","39360","39360","37415.7294","tc","null","null","null","null","null","null","[3,2]","527.8973357195111","137.8880837863779","499.94550944657243"
"","canvas-keyboard-response","100","512746","0.0-6.0-3.13","545","","","","","rectangles with change","null","null","","","critical","d","c","t","232.8713","160.6713","164","240","240","164","spektor","0.05","w","240","164","164","240","232.8713","160.6713","39360","39360","37415.7294","tc","null","null","null","null","null","null","[3,2]","527.8973357195111","137.8880837863779","499.94550944657243"
"","canvas-keyboard-response","101","512766","0.0-6.0-4.13","545","","","","","clear_screen","null","null","","","critical","d","c","t","232.8713","160.6713","164","240","240","164","spektor","0.05","w","240","164","164","240","232.8713","160.6713","39360","39360","37415.7294","tc","null","null","null","null","null","null","[3,2]","527.8973357195111","137.8880837863779","499.94550944657243"
"","canvas-keyboard-response","102","513836","0.0-6.0-5.13","545","","","","","make choice","1062","3","","","critical","d","c","t","232.8713","160.6713","164","240","240","164","spektor","0.05","w","240","164","164","240","232.8713","160.6713","39360","39360","37415.7294","tc","null","null","null","null","null","null","[3,2]","","",""
"","canvas-keyboard-response","103","513855","0.0-6.0-6.13","545","","","","","clear_screen","null","null","","","critical","d","c","t","232.8713","160.6713","164","240","240","164","spektor","0.05","w","240","164","164","240","232.8713","160.6713","39360","39360","37415.7294","tc","null","null","null","null","null","null","[3,2]","","",""
"","canvas-keyboard-response","104","514056","0.0-6.0-0.14","545","","","","","pre trial waiting period","null","null","","","critical","t","c","d","240","164","164","240","240","164","spektor","0","w","240","164","164","240","240","164","39360","39360","39360","tc","null","null","null","null","null","null","[1,2]","505.0343638618622","115.46788645091367","542.9612781493981"
"","canvas-keyboard-response","105","514076","0.0-6.0-1.14","545","","","","","clear_screen","null","null","","","critical","t","c","d","240","164","164","240","240","164","spektor","0","w","240","164","164","240","240","164","39360","39360","39360","tc","null","null","null","null","null","null","[1,2]","505.0343638618622","115.46788645091367","542.9612781493981"
"","canvas-keyboard-response","106","514583","0.0-6.0-2.14","545","","","","","rectangles no change","null","null","","","critical","t","c","d","240","164","164","240","240","164","spektor","0","w","240","164","164","240","240","164","39360","39360","39360","tc","null","null","null","null","null","null","[1,2]","505.0343638618622","115.46788645091367","542.9612781493981"
"","canvas-keyboard-response","107","515919","0.0-6.0-3.14","545","","","","","rectangles with change","null","null","","","critical","t","c","d","240","164","164","240","240","164","spektor","0","w","240","164","164","240","240","164","39360","39360","39360","tc","null","null","null","null","null","null","[1,2]","505.0343638618622","115.46788645091367","542.9612781493981"
"","canvas-keyboard-response","108","515942","0.0-6.0-4.14","545","","","","","clear_screen","null","null","","","critical","t","c","d","240","164","164","240","240","164","spektor","0","w","240","164","164","240","240","164","39360","39360","39360","tc","null","null","null","null","null","null","[1,2]","505.0343638618622","115.46788645091367","542.9612781493981"
"","canvas-keyboard-response","109","516379","0.0-6.0-5.14","545","","","","","make choice","432","1","","","critical","t","c","d","240","164","164","240","240","164","spektor","0","w","240","164","164","240","240","164","39360","39360","39360","tc","null","null","null","null","null","null","[1,2]","","",""
"","canvas-keyboard-response","110","516397","0.0-6.0-6.14","545","","","","","clear_screen","null","null","","","critical","t","c","d","240","164","164","240","240","164","spektor","0","w","240","164","164","240","240","164","39360","39360","39360","tc","null","null","null","null","null","null","[1,2]","","",""
"","canvas-keyboard-response","111","516597","0.0-6.0-0.15","545","","","","","pre trial waiting period","null","null","","","catch","l","sw","sh","288","211","215","215","218","212","spektor","null","null","null","null","null","null","null","null","null","null","null","","180","200","260","200","36000","52000","[1,2]","488.63534975235854","153.84800943457495","514.9560131602832"
"","canvas-keyboard-response","112","516618","0.0-6.0-1.15","545","","","","","clear_screen","null","null","","","catch","l","sw","sh","288","211","215","215","218","212","spektor","null","null","null","null","null","null","null","null","null","null","null","","180","200","260","200","36000","52000","[1,2]","488.63534975235854","153.84800943457495","514.9560131602832"
"","canvas-keyboard-response","113","517126","0.0-6.0-2.15","545","","","","","rectangles no change","null","null","","","catch","l","sw","sh","288","211","215","215","218","212","spektor","null","null","null","null","null","null","null","null","null","null","null","","180","200","260","200","36000","52000","[1,2]","488.63534975235854","153.84800943457495","514.9560131602832"
"","canvas-keyboard-response","114","518463","0.0-6.0-3.15","545","","","","","rectangles with change","null","null","","","catch","l","sw","sh","288","211","215","215","218","212","spektor","null","null","null","null","null","null","null","null","null","null","null","","180","200","260","200","36000","52000","[1,2]","488.63534975235854","153.84800943457495","514.9560131602832"
"","canvas-keyboard-response","115","518482","0.0-6.0-4.15","545","","","","","clear_screen","null","null","","","catch","l","sw","sh","288","211","215","215","218","212","spektor","null","null","null","null","null","null","null","null","null","null","null","","180","200","260","200","36000","52000","[1,2]","488.63534975235854","153.84800943457495","514.9560131602832"
"","canvas-keyboard-response","116","519106","0.0-6.0-5.15","545","","","","","make choice","618","1","","","catch","l","sw","sh","288","211","215","215","218","212","spektor","null","null","null","null","null","null","null","null","null","null","null","","180","200","260","200","36000","52000","[1,2]","","",""
"","canvas-keyboard-response","117","519125","0.0-6.0-6.15","545","","","","","clear_screen","null","null","","","catch","l","sw","sh","288","211","215","215","218","212","spektor","null","null","null","null","null","null","null","null","null","null","null","","180","200","260","200","36000","52000","[1,2]","","",""
"","canvas-keyboard-response","118","519327","0.0-6.0-0.16","545","","","","","pre trial waiting period","null","null","","","critical","c","d","t","164","240","240","164","240","164","spektor","0","w","240","164","164","240","240","164","39360","39360","39360","td","null","null","null","null","null","null","[3,2]","491.35397880433186","204.1723136677895","528.4970430408944"
"","canvas-keyboard-response","119","519345","0.0-6.0-1.16","545","","","","","clear_screen","null","null","","","critical","c","d","t","164","240","240","164","240","164","spektor","0","w","240","164","164","240","240","164","39360","39360","39360","td","null","null","null","null","null","null","[3,2]","491.35397880433186","204.1723136677895","528.4970430408944"
"","canvas-keyboard-response","120","519855","0.0-6.0-2.16","545","","","","","rectangles no change","null","null","","","critical","c","d","t","164","240","240","164","240","164","spektor","0","w","240","164","164","240","240","164","39360","39360","39360","td","null","null","null","null","null","null","[3,2]","491.35397880433186","204.1723136677895","528.4970430408944"
"","canvas-keyboard-response","121","521193","0.0-6.0-3.16","545","","","","","rectangles with change","null","null","","","critical","c","d","t","164","240","240","164","240","164","spektor","0","w","240","164","164","240","240","164","39360","39360","39360","td","null","null","null","null","null","null","[3,2]","491.35397880433186","204.1723136677895","528.4970430408944"
"","canvas-keyboard-response","122","521213","0.0-6.0-4.16","545","","","","","clear_screen","null","null","","","critical","c","d","t","164","240","240","164","240","164","spektor","0","w","240","164","164","240","240","164","39360","39360","39360","td","null","null","null","null","null","null","[3,2]","491.35397880433186","204.1723136677895","528.4970430408944"
"","canvas-keyboard-response","123","521875","0.0-6.0-5.16","545","","","","","make choice","656","3","","","critical","c","d","t","164","240","240","164","240","164","spektor","0","w","240","164","164","240","240","164","39360","39360","39360","td","null","null","null","null","null","null","[3,2]","","",""
"","canvas-keyboard-response","124","521894","0.0-6.0-6.16","545","","","","","clear_screen","null","null","","","critical","c","d","t","164","240","240","164","240","164","spektor","0","w","240","164","164","240","240","164","39360","39360","39360","td","null","null","null","null","null","null","[3,2]","","",""
"","canvas-keyboard-response","125","522096","0.0-6.0-0.17","545","","","","","pre trial waiting period","null","null","","","critical","d","t","c","164","240","164","240","240","164","spektor","0","h","164","240","240","164","164","240","39360","39360","39360","tc","null","null","null","null","null","null","[2,3]","494.43549063060783","133.1959553055432","538.0958384468795"
"","canvas-keyboard-response","126","522115","0.0-6.0-1.17","545","","","","","clear_screen","null","null","","","critical","d","t","c","164","240","164","240","240","164","spektor","0","h","164","240","240","164","164","240","39360","39360","39360","tc","null","null","null","null","null","null","[2,3]","494.43549063060783","133.1959553055432","538.0958384468795"
"","canvas-keyboard-response","127","522622","0.0-6.0-2.17","545","","","","","rectangles no change","null","null","","","critical","d","t","c","164","240","164","240","240","164","spektor","0","h","164","240","240","164","164","240","39360","39360","39360","tc","null","null","null","null","null","null","[2,3]","494.43549063060783","133.1959553055432","538.0958384468795"
"","canvas-keyboard-response","128","523961","0.0-6.0-3.17","545","","","","","rectangles with change","null","null","","","critical","d","t","c","164","240","164","240","240","164","spektor","0","h","164","240","240","164","164","240","39360","39360","39360","tc","null","null","null","null","null","null","[2,3]","494.43549063060783","133.1959553055432","538.0958384468795"
"","canvas-keyboard-response","129","523979","0.0-6.0-4.17","545","","","","","clear_screen","null","null","","","critical","d","t","c","164","240","164","240","240","164","spektor","0","h","164","240","240","164","164","240","39360","39360","39360","tc","null","null","null","null","null","null","[2,3]","494.43549063060783","133.1959553055432","538.0958384468795"
"","canvas-keyboard-response","130","524378","0.0-6.0-5.17","545","","","","","make choice","393","3","","","critical","d","t","c","164","240","164","240","240","164","spektor","0","h","164","240","240","164","164","240","39360","39360","39360","tc","null","null","null","null","null","null","[2,3]","","",""
"","canvas-keyboard-response","131","524398","0.0-6.0-6.17","545","","","","","clear_screen","null","null","","","critical","d","t","c","164","240","164","240","240","164","spektor","0","h","164","240","240","164","164","240","39360","39360","39360","tc","null","null","null","null","null","null","[2,3]","","",""
"","canvas-keyboard-response","132","524598","0.0-6.0-0.18","545","","","","","pre trial waiting period","null","null","","","catch","l","sw","sh","252","222","173","215","188","177","trueblood","null","null","null","null","null","null","null","null","null","null","null","","180","200","260","200","36000","52000","[1,2]","431.02985951450876","452.8105104597739","467.4659640296712"
"","canvas-keyboard-response","133","524622","0.0-6.0-1.18","545","","","","","clear_screen","null","null","","","catch","l","sw","sh","252","222","173","215","188","177","trueblood","null","null","null","null","null","null","null","null","null","null","null","","180","200","260","200","36000","52000","[1,2]","431.02985951450876","452.8105104597739","467.4659640296712"
"","canvas-keyboard-response","134","525130","0.0-6.0-2.18","545","","","","","rectangles no change","null","null","","","catch","l","sw","sh","252","222","173","215","188","177","trueblood","null","null","null","null","null","null","null","null","null","null","null","","180","200","260","200","36000","52000","[1,2]","431.02985951450876","452.8105104597739","467.4659640296712"
"","canvas-keyboard-response","135","526469","0.0-6.0-3.18","545","","","","","rectangles with change","null","null","","","catch","l","sw","sh","252","222","173","215","188","177","trueblood","null","null","null","null","null","null","null","null","null","null","null","","180","200","260","200","36000","52000","[1,2]","431.02985951450876","452.8105104597739","467.4659640296712"
"","canvas-keyboard-response","136","526490","0.0-6.0-4.18","545","","","","","clear_screen","null","null","","","catch","l","sw","sh","252","222","173","215","188","177","trueblood","null","null","null","null","null","null","null","null","null","null","null","","180","200","260","200","36000","52000","[1,2]","431.02985951450876","452.8105104597739","467.4659640296712"
"","canvas-keyboard-response","137","528859","0.0-6.0-5.18","545","","","","","make choice","2363","1","","","catch","l","sw","sh","252","222","173","215","188","177","trueblood","null","null","null","null","null","null","null","null","null","null","null","","180","200","260","200","36000","52000","[1,2]","","",""
"","canvas-keyboard-response","138","528882","0.0-6.0-6.18","545","","","","","clear_screen","null","null","","","catch","l","sw","sh","252","222","173","215","188","177","trueblood","null","null","null","null","null","null","null","null","null","null","null","","180","200","260","200","36000","52000","[1,2]","","",""
"","canvas-keyboard-response","139","529083","0.0-6.0-0.19","545","","","","","pre trial waiting period","null","null","","","critical","d","c","t","164","240","240","164","164","240","trueblood","0","h","164","240","240","164","164","240","39360","39360","39360","td","null","null","null","null","null","null","[3,1]","461.79914802798777","516.6960705321759","461.4211635344754"
"","canvas-keyboard-response","140","529103","0.0-6.0-1.19","545","","","","","clear_screen","null","null","","","critical","d","c","t","164","240","240","164","164","240","trueblood","0","h","164","240","240","164","164","240","39360","39360","39360","td","null","null","null","null","null","null","[3,1]","461.79914802798777","516.6960705321759","461.4211635344754"
"","canvas-keyboard-response","141","529611","0.0-6.0-2.19","545","","","","","rectangles no change","null","null","","","critical","d","c","t","164","240","240","164","164","240","trueblood","0","h","164","240","240","164","164","240","39360","39360","39360","td","null","null","null","null","null","null","[3,1]","461.79914802798777","516.6960705321759","461.4211635344754"
"","canvas-keyboard-response","142","530947","0.0-6.0-3.19","545","","","","","rectangles with change","null","null","","","critical","d","c","t","164","240","240","164","164","240","trueblood","0","h","164","240","240","164","164","240","39360","39360","39360","td","null","null","null","null","null","null","[3,1]","461.79914802798777","516.6960705321759","461.4211635344754"
"","canvas-keyboard-response","143","530966","0.0-6.0-4.19","545","","","","","clear_screen","null","null","","","critical","d","c","t","164","240","240","164","164","240","trueblood","0","h","164","240","240","164","164","240","39360","39360","39360","td","null","null","null","null","null","null","[3,1]","461.79914802798777","516.6960705321759","461.4211635344754"
"","canvas-keyboard-response","144","531540","0.0-6.0-5.19","545","","","","","make choice","568","3","","","critical","d","c","t","164","240","240","164","164","240","trueblood","0","h","164","240","240","164","164","240","39360","39360","39360","td","null","null","null","null","null","null","[3,1]","","",""
"","canvas-keyboard-response","145","531560","0.0-6.0-6.19","545","","","","","clear_screen","null","null","","","critical","d","c","t","164","240","240","164","164","240","trueblood","0","h","164","240","240","164","164","240","39360","39360","39360","td","null","null","null","null","null","null","[3,1]","","",""
"","canvas-keyboard-response","146","531762","0.0-6.0-0.20","545","","","","","pre trial waiting period","null","null","","","catch","sh","l","sw","177","166","255","196","161","222","spektor","null","null","null","null","null","null","null","null","null","null","null","","180","200","260","200","36000","52000","[1,2]","510.3025577656786","166.2277834356884","512.0643423678655"
"","canvas-keyboard-response","147","531781","0.0-6.0-1.20","545","","","","","clear_screen","null","null","","","catch","sh","l","sw","177","166","255","196","161","222","spektor","null","null","null","null","null","null","null","null","null","null","null","","180","200","260","200","36000","52000","[1,2]","510.3025577656786","166.2277834356884","512.0643423678655"
"","canvas-keyboard-response","148","532289","0.0-6.0-2.20","545","","","","","rectangles no change","null","null","","","catch","sh","l","sw","177","166","255","196","161","222","spektor","null","null","null","null","null","null","null","null","null","null","null","","180","200","260","200","36000","52000","[1,2]","510.3025577656786","166.2277834356884","512.0643423678655"
"","canvas-keyboard-response","149","533629","0.0-6.0-3.20","545","","","","","rectangles with change","null","null","","","catch","sh","l","sw","177","166","255","196","161","222","spektor","null","null","null","null","null","null","null","null","null","null","null","","180","200","260","200","36000","52000","[1,2]","510.3025577656786","166.2277834356884","512.0643423678655"
"","canvas-keyboard-response","150","533651","0.0-6.0-4.20","545","","","","","clear_screen","null","null","","","catch","sh","l","sw","177","166","255","196","161","222","spektor","null","null","null","null","null","null","null","null","null","null","null","","180","200","260","200","36000","52000","[1,2]","510.3025577656786","166.2277834356884","512.0643423678655"
"","canvas-keyboard-response","151","534194","0.0-6.0-5.20","545","","","","","make choice","538","2","","","catch","sh","l","sw","177","166","255","196","161","222","spektor","null","null","null","null","null","null","null","null","null","null","null","","180","200","260","200","36000","52000","[1,2]","","",""
"","canvas-keyboard-response","152","534212","0.0-6.0-6.20","545","","","","","clear_screen","null","null","","","catch","sh","l","sw","177","166","255","196","161","222","spektor","null","null","null","null","null","null","null","null","null","null","null","","180","200","260","200","36000","52000","[1,2]","","",""
"","canvas-keyboard-response","153","534413","0.0-6.0-0.21","545","","","","","pre trial waiting period","null","null","","","catch","sh","sw","l","197","146","198","208","281","238","spektor","null","null","null","null","null","null","null","null","null","null","null","","180","200","260","200","36000","52000","[1,3]","532.1929737203039","127.96142684706527","487.7900955240994"
"","canvas-keyboard-response","154","534436","0.0-6.0-1.21","545","","","","","clear_screen","null","null","","","catch","sh","sw","l","197","146","198","208","281","238","spektor","null","null","null","null","null","null","null","null","null","null","null","","180","200","260","200","36000","52000","[1,3]","532.1929737203039","127.96142684706527","487.7900955240994"
"","canvas-keyboard-response","155","534945","0.0-6.0-2.21","545","","","","","rectangles no change","null","null","","","catch","sh","sw","l","197","146","198","208","281","238","spektor","null","null","null","null","null","null","null","null","null","null","null","","180","200","260","200","36000","52000","[1,3]","532.1929737203039","127.96142684706527","487.7900955240994"
"","canvas-keyboard-response","156","536281","0.0-6.0-3.21","545","","","","","rectangles with change","null","null","","","catch","sh","sw","l","197","146","198","208","281","238","spektor","null","null","null","null","null","null","null","null","null","null","null","","180","200","260","200","36000","52000","[1,3]","532.1929737203039","127.96142684706527","487.7900955240994"
"","canvas-keyboard-response","157","536297","0.0-6.0-4.21","545","","","","","clear_screen","null","null","","","catch","sh","sw","l","197","146","198","208","281","238","spektor","null","null","null","null","null","null","null","null","null","null","null","","180","200","260","200","36000","52000","[1,3]","532.1929737203039","127.96142684706527","487.7900955240994"
"","canvas-keyboard-response","158","536635","0.0-6.0-5.21","545","","","","","make choice","329","3","","","catch","sh","sw","l","197","146","198","208","281","238","spektor","null","null","null","null","null","null","null","null","null","null","null","","180","200","260","200","36000","52000","[1,3]","","",""
"","canvas-keyboard-response","159","536652","0.0-6.0-6.21","545","","","","","clear_screen","null","null","","","catch","sh","sw","l","197","146","198","208","281","238","spektor","null","null","null","null","null","null","null","null","null","null","null","","180","200","260","200","36000","52000","[1,3]","","",""
"","canvas-keyboard-response","160","536853","0.0-6.0-0.22","545","","","","","pre trial waiting period","null","null","","","critical","d","t","c","154.6796","220.0396","164","240","240","164","spektor","0.14","h","164","240","240","164","154.6796","220.0396","39360","39360","34035.6388","tc","null","null","null","null","null","null","[2,3]","464.9946955352213","141.72424893261842","502.432906288513"
"","canvas-keyboard-response","161","536874","0.0-6.0-1.22","545","","","","","clear_screen","null","null","","","critical","d","t","c","154.6796","220.0396","164","240","240","164","spektor","0.14","h","164","240","240","164","154.6796","220.0396","39360","39360","34035.6388","tc","null","null","null","null","null","null","[2,3]","464.9946955352213","141.72424893261842","502.432906288513"
"","canvas-keyboard-response","162","537382","0.0-6.0-2.22","545","","","","","rectangles no change","null","null","","","critical","d","t","c","154.6796","220.0396","164","240","240","164","spektor","0.14","h","164","240","240","164","154.6796","220.0396","39360","39360","34035.6388","tc","null","null","null","null","null","null","[2,3]","464.9946955352213","141.72424893261842","502.432906288513"
"","canvas-keyboard-response","163","538722","0.0-6.0-3.22","545","","","","","rectangles with change","null","null","","","critical","d","t","c","154.6796","220.0396","164","240","240","164","spektor","0.14","h","164","240","240","164","154.6796","220.0396","39360","39360","34035.6388","tc","null","null","null","null","null","null","[2,3]","464.9946955352213","141.72424893261842","502.432906288513"
"","canvas-keyboard-response","164","538744","0.0-6.0-4.22","545","","","","","clear_screen","null","null","","","critical","d","t","c","154.6796","220.0396","164","240","240","164","spektor","0.14","h","164","240","240","164","154.6796","220.0396","39360","39360","34035.6388","tc","null","null","null","null","null","null","[2,3]","464.9946955352213","141.72424893261842","502.432906288513"
"","canvas-keyboard-response","165","539723","0.0-6.0-5.22","545","","","","","make choice","974","3","","","critical","d","t","c","154.6796","220.0396","164","240","240","164","spektor","0.14","h","164","240","240","164","154.6796","220.0396","39360","39360","34035.6388","tc","null","null","null","null","null","null","[2,3]","","",""
"","canvas-keyboard-response","166","539744","0.0-6.0-6.22","545","","","","","clear_screen","null","null","","","critical","d","t","c","154.6796","220.0396","164","240","240","164","spektor","0.14","h","164","240","240","164","154.6796","220.0396","39360","39360","34035.6388","tc","null","null","null","null","null","null","[2,3]","","",""
"","canvas-keyboard-response","167","539945","0.0-6.0-0.23","545","","","","","pre trial waiting period","null","null","","","critical","d","t","c","232.8713","160.6713","240","164","164","240","trueblood","0.05","w","240","164","164","240","232.8713","160.6713","39360","39360","37415.7294","td","null","null","null","null","null","null","[2,1]","476.3876365624124","480.2653657204718","435.64798412416445"
"","canvas-keyboard-response","168","539961","0.0-6.0-1.23","545","","","","","clear_screen","null","null","","","critical","d","t","c","232.8713","160.6713","240","164","164","240","trueblood","0.05","w","240","164","164","240","232.8713","160.6713","39360","39360","37415.7294","td","null","null","null","null","null","null","[2,1]","476.3876365624124","480.2653657204718","435.64798412416445"
"","canvas-keyboard-response","169","540466","0.0-6.0-2.23","545","","","","","rectangles no change","null","null","","","critical","d","t","c","232.8713","160.6713","240","164","164","240","trueblood","0.05","w","240","164","164","240","232.8713","160.6713","39360","39360","37415.7294","td","null","null","null","null","null","null","[2,1]","476.3876365624124","480.2653657204718","435.64798412416445"
"","canvas-keyboard-response","170","541803","0.0-6.0-3.23","545","","","","","rectangles with change","null","null","","","critical","d","t","c","232.8713","160.6713","240","164","164","240","trueblood","0.05","w","240","164","164","240","232.8713","160.6713","39360","39360","37415.7294","td","null","null","null","null","null","null","[2,1]","476.3876365624124","480.2653657204718","435.64798412416445"
"","canvas-keyboard-response","171","541822","0.0-6.0-4.23","545","","","","","clear_screen","null","null","","","critical","d","t","c","232.8713","160.6713","240","164","164","240","trueblood","0.05","w","240","164","164","240","232.8713","160.6713","39360","39360","37415.7294","td","null","null","null","null","null","null","[2,1]","476.3876365624124","480.2653657204718","435.64798412416445"
"","canvas-keyboard-response","172","542290","0.0-6.0-5.23","545","","","","","make choice","461","2","","","critical","d","t","c","232.8713","160.6713","240","164","164","240","trueblood","0.05","w","240","164","164","240","232.8713","160.6713","39360","39360","37415.7294","td","null","null","null","null","null","null","[2,1]","","",""
"","canvas-keyboard-response","173","542312","0.0-6.0-6.23","545","","","","","clear_screen","null","null","","","critical","d","t","c","232.8713","160.6713","240","164","164","240","trueblood","0.05","w","240","164","164","240","232.8713","160.6713","39360","39360","37415.7294","td","null","null","null","null","null","null","[2,1]","","",""
"","canvas-keyboard-response","174","542514","0.0-6.0-0.24","545","","","","","pre trial waiting period","null","null","","","critical","t","c","d","240","164","164","240","237.1485","162.6685","trueblood","0.02","w","240","164","164","240","237.1485","162.6685","39360","39360","38576.5967","td","null","null","null","null","null","null","[1,3]","514.185327504504","460.2452921081285","488.36523608367145"
"","canvas-keyboard-response","175","542535","0.0-6.0-1.24","545","","","","","clear_screen","null","null","","","critical","t","c","d","240","164","164","240","237.1485","162.6685","trueblood","0.02","w","240","164","164","240","237.1485","162.6685","39360","39360","38576.5967","td","null","null","null","null","null","null","[1,3]","514.185327504504","460.2452921081285","488.36523608367145"
"","canvas-keyboard-response","176","543042","0.0-6.0-2.24","545","","","","","rectangles no change","null","null","","","critical","t","c","d","240","164","164","240","237.1485","162.6685","trueblood","0.02","w","240","164","164","240","237.1485","162.6685","39360","39360","38576.5967","td","null","null","null","null","null","null","[1,3]","514.185327504504","460.2452921081285","488.36523608367145"
"","canvas-keyboard-response","177","544379","0.0-6.0-3.24","545","","","","","rectangles with change","null","null","","","critical","t","c","d","240","164","164","240","237.1485","162.6685","trueblood","0.02","w","240","164","164","240","237.1485","162.6685","39360","39360","38576.5967","td","null","null","null","null","null","null","[1,3]","514.185327504504","460.2452921081285","488.36523608367145"
"","canvas-keyboard-response","178","544401","0.0-6.0-4.24","545","","","","","clear_screen","null","null","","","critical","t","c","d","240","164","164","240","237.1485","162.6685","trueblood","0.02","w","240","164","164","240","237.1485","162.6685","39360","39360","38576.5967","td","null","null","null","null","null","null","[1,3]","514.185327504504","460.2452921081285","488.36523608367145"
"","canvas-keyboard-response","179","545091","0.0-6.0-5.24","545","","","","","make choice","686","1","","","critical","t","c","d","240","164","164","240","237.1485","162.6685","trueblood","0.02","w","240","164","164","240","237.1485","162.6685","39360","39360","38576.5967","td","null","null","null","null","null","null","[1,3]","","",""
"","canvas-keyboard-response","180","545111","0.0-6.0-6.24","545","","","","","clear_screen","null","null","","","critical","t","c","d","240","164","164","240","237.1485","162.6685","trueblood","0.02","w","240","164","164","240","237.1485","162.6685","39360","39360","38576.5967","td","null","null","null","null","null","null","[1,3]","","",""
"","canvas-keyboard-response","181","545313","0.0-6.0-0.25","545","","","","","pre trial waiting period","null","null","","","critical","t","c","d","164","240","240","164","160.6713","232.8713","trueblood","0.05","h","164","240","240","164","160.6713","232.8713","39360","39360","37415.7294","tc","null","null","null","null","null","null","[1,2]","421.7583715527596","472.8188518388059","471.6866451031057"
"","canvas-keyboard-response","182","545332","0.0-6.0-1.25","545","","","","","clear_screen","null","null","","","critical","t","c","d","164","240","240","164","160.6713","232.8713","trueblood","0.05","h","164","240","240","164","160.6713","232.8713","39360","39360","37415.7294","tc","null","null","null","null","null","null","[1,2]","421.7583715527596","472.8188518388059","471.6866451031057"
"","canvas-keyboard-response","183","545837","0.0-6.0-2.25","545","","","","","rectangles no change","null","null","","","critical","t","c","d","164","240","240","164","160.6713","232.8713","trueblood","0.05","h","164","240","240","164","160.6713","232.8713","39360","39360","37415.7294","tc","null","null","null","null","null","null","[1,2]","421.7583715527596","472.8188518388059","471.6866451031057"
"","canvas-keyboard-response","184","547173","0.0-6.0-3.25","545","","","","","rectangles with change","null","null","","","critical","t","c","d","164","240","240","164","160.6713","232.8713","trueblood","0.05","h","164","240","240","164","160.6713","232.8713","39360","39360","37415.7294","tc","null","null","null","null","null","null","[1,2]","421.7583715527596","472.8188518388059","471.6866451031057"
"","canvas-keyboard-response","185","547188","0.0-6.0-4.25","545","","","","","clear_screen","null","null","","","critical","t","c","d","164","240","240","164","160.6713","232.8713","trueblood","0.05","h","164","240","240","164","160.6713","232.8713","39360","39360","37415.7294","tc","null","null","null","null","null","null","[1,2]","421.7583715527596","472.8188518388059","471.6866451031057"
"","canvas-keyboard-response","186","547779","0.0-6.0-5.25","545","","","","","make choice","585","2","","","critical","t","c","d","164","240","240","164","160.6713","232.8713","trueblood","0.05","h","164","240","240","164","160.6713","232.8713","39360","39360","37415.7294","tc","null","null","null","null","null","null","[1,2]","","",""
"","canvas-keyboard-response","187","547799","0.0-6.0-6.25","545","","","","","clear_screen","null","null","","","critical","t","c","d","164","240","240","164","160.6713","232.8713","trueblood","0.05","h","164","240","240","164","160.6713","232.8713","39360","39360","37415.7294","tc","null","null","null","null","null","null","[1,2]","","",""
"","canvas-keyboard-response","188","547999","0.0-6.0-0.26","545","","","","","pre trial waiting period","null","null","","","critical","t","c","d","240","164","164","240","240","164","trueblood","0","w","240","164","164","240","240","164","39360","39360","39360","td","null","null","null","null","null","null","[1,3]","497.39280787389123","452.2967817980285","516.2554144128295"
"","canvas-keyboard-response","189","548020","0.0-6.0-1.26","545","","","","","clear_screen","null","null","","","critical","t","c","d","240","164","164","240","240","164","trueblood","0","w","240","164","164","240","240","164","39360","39360","39360","td","null","null","null","null","null","null","[1,3]","497.39280787389123","452.2967817980285","516.2554144128295"
"","canvas-keyboard-response","190","548528","0.0-6.0-2.26","545","","","","","rectangles no change","null","null","","","critical","t","c","d","240","164","164","240","240","164","trueblood","0","w","240","164","164","240","240","164","39360","39360","39360","td","null","null","null","null","null","null","[1,3]","497.39280787389123","452.2967817980285","516.2554144128295"
"","canvas-keyboard-response","191","549866","0.0-6.0-3.26","545","","","","","rectangles with change","null","null","","","critical","t","c","d","240","164","164","240","240","164","trueblood","0","w","240","164","164","240","240","164","39360","39360","39360","td","null","null","null","null","null","null","[1,3]","497.39280787389123","452.2967817980285","516.2554144128295"
"","canvas-keyboard-response","192","549888","0.0-6.0-4.26","545","","","","","clear_screen","null","null","","","critical","t","c","d","240","164","164","240","240","164","trueblood","0","w","240","164","164","240","240","164","39360","39360","39360","td","null","null","null","null","null","null","[1,3]","497.39280787389123","452.2967817980285","516.2554144128295"
"","canvas-keyboard-response","193","550266","0.0-6.0-5.26","545","","","","","make choice","373","1","","","critical","t","c","d","240","164","164","240","240","164","trueblood","0","w","240","164","164","240","240","164","39360","39360","39360","td","null","null","null","null","null","null","[1,3]","","",""
"","canvas-keyboard-response","194","550282","0.0-6.0-6.26","545","","","","","clear_screen","null","null","","","critical","t","c","d","240","164","164","240","240","164","trueblood","0","w","240","164","164","240","240","164","39360","39360","39360","td","null","null","null","null","null","null","[1,3]","","",""
"","canvas-keyboard-response","195","550484","0.0-6.0-0.27","545","","","","","pre trial waiting period","null","null","","","critical","d","c","t","160.6713","232.8713","240","164","164","240","trueblood","0.05","h","164","240","240","164","160.6713","232.8713","39360","39360","37415.7294","td","null","null","null","null","null","null","[3,1]","435.93051297949734","484.6796899691306","457.39880025178616"
"","canvas-keyboard-response","196","550503","0.0-6.0-1.27","545","","","","","clear_screen","null","null","","","critical","d","c","t","160.6713","232.8713","240","164","164","240","trueblood","0.05","h","164","240","240","164","160.6713","232.8713","39360","39360","37415.7294","td","null","null","null","null","null","null","[3,1]","435.93051297949734","484.6796899691306","457.39880025178616"
"","canvas-keyboard-response","197","551008","0.0-6.0-2.27","545","","","","","rectangles no change","null","null","","","critical","d","c","t","160.6713","232.8713","240","164","164","240","trueblood","0.05","h","164","240","240","164","160.6713","232.8713","39360","39360","37415.7294","td","null","null","null","null","null","null","[3,1]","435.93051297949734","484.6796899691306","457.39880025178616"
"","canvas-keyboard-response","198","552345","0.0-6.0-3.27","545","","","","","rectangles with change","null","null","","","critical","d","c","t","160.6713","232.8713","240","164","164","240","trueblood","0.05","h","164","240","240","164","160.6713","232.8713","39360","39360","37415.7294","td","null","null","null","null","null","null","[3,1]","435.93051297949734","484.6796899691306","457.39880025178616"
"","canvas-keyboard-response","199","552362","0.0-6.0-4.27","545","","","","","clear_screen","null","null","","","critical","d","c","t","160.6713","232.8713","240","164","164","240","trueblood","0.05","h","164","240","240","164","160.6713","232.8713","39360","39360","37415.7294","td","null","null","null","null","null","null","[3,1]","435.93051297949734","484.6796899691306","457.39880025178616"
"","canvas-keyboard-response","200","552795","0.0-6.0-5.27","545","","","","","make choice","427","3","","","critical","d","c","t","160.6713","232.8713","240","164","164","240","trueblood","0.05","h","164","240","240","164","160.6713","232.8713","39360","39360","37415.7294","td","null","null","null","null","null","null","[3,1]","","",""
"","canvas-keyboard-response","201","552816","0.0-6.0-6.27","545","","","","","clear_screen","null","null","","","critical","d","c","t","160.6713","232.8713","240","164","164","240","trueblood","0.05","h","164","240","240","164","160.6713","232.8713","39360","39360","37415.7294","td","null","null","null","null","null","null","[3,1]","","",""
"","canvas-keyboard-response","202","553017","0.0-6.0-0.28","545","","","","","pre trial waiting period","null","null","","","critical","d","t","c","154.6796","220.0396","164","240","240","164","spektor","0.14","h","164","240","240","164","154.6796","220.0396","39360","39360","34035.6388","td","null","null","null","null","null","null","[2,1]","501.6626353840976","115.90184553316624","535.1420025060179"
"","canvas-keyboard-response","203","553037","0.0-6.0-1.28","545","","","","","clear_screen","null","null","","","critical","d","t","c","154.6796","220.0396","164","240","240","164","spektor","0.14","h","164","240","240","164","154.6796","220.0396","39360","39360","34035.6388","td","null","null","null","null","null","null","[2,1]","501.6626353840976","115.90184553316624","535.1420025060179"
"","canvas-keyboard-response","204","553548","0.0-6.0-2.28","545","","","","","rectangles no change","null","null","","","critical","d","t","c","154.6796","220.0396","164","240","240","164","spektor","0.14","h","164","240","240","164","154.6796","220.0396","39360","39360","34035.6388","td","null","null","null","null","null","null","[2,1]","501.6626353840976","115.90184553316624","535.1420025060179"
"","canvas-keyboard-response","205","554885","0.0-6.0-3.28","545","","","","","rectangles with change","null","null","","","critical","d","t","c","154.6796","220.0396","164","240","240","164","spektor","0.14","h","164","240","240","164","154.6796","220.0396","39360","39360","34035.6388","td","null","null","null","null","null","null","[2,1]","501.6626353840976","115.90184553316624","535.1420025060179"
"","canvas-keyboard-response","206","554908","0.0-6.0-4.28","545","","","","","clear_screen","null","null","","","critical","d","t","c","154.6796","220.0396","164","240","240","164","spektor","0.14","h","164","240","240","164","154.6796","220.0396","39360","39360","34035.6388","td","null","null","null","null","null","null","[2,1]","501.6626353840976","115.90184553316624","535.1420025060179"
"","canvas-keyboard-response","207","555387","0.0-6.0-5.28","545","","","","","make choice","472","2","","","critical","d","t","c","154.6796","220.0396","164","240","240","164","spektor","0.14","h","164","240","240","164","154.6796","220.0396","39360","39360","34035.6388","td","null","null","null","null","null","null","[2,1]","","",""
"","canvas-keyboard-response","208","555407","0.0-6.0-6.28","545","","","","","clear_screen","null","null","","","critical","d","t","c","154.6796","220.0396","164","240","240","164","spektor","0.14","h","164","240","240","164","154.6796","220.0396","39360","39360","34035.6388","td","null","null","null","null","null","null","[2,1]","","",""
"","canvas-keyboard-response","209","555608","0.0-6.0-0.29","545","","","","","pre trial waiting period","null","null","","","critical","d","c","t","160.6713","232.8713","240","164","164","240","spektor","0.05","h","164","240","240","164","160.6713","232.8713","39360","39360","37415.7294","tc","null","null","null","null","null","null","[3,2]","496.4214937884179","190.83680640269174","458.22305986977204"
"","canvas-keyboard-response","210","555631","0.0-6.0-1.29","545","","","","","clear_screen","null","null","","","critical","d","c","t","160.6713","232.8713","240","164","164","240","spektor","0.05","h","164","240","240","164","160.6713","232.8713","39360","39360","37415.7294","tc","null","null","null","null","null","null","[3,2]","496.4214937884179","190.83680640269174","458.22305986977204"
"","canvas-keyboard-response","211","556137","0.0-6.0-2.29","545","","","","","rectangles no change","null","null","","","critical","d","c","t","160.6713","232.8713","240","164","164","240","spektor","0.05","h","164","240","240","164","160.6713","232.8713","39360","39360","37415.7294","tc","null","null","null","null","null","null","[3,2]","496.4214937884179","190.83680640269174","458.22305986977204"
"","canvas-keyboard-response","212","557474","0.0-6.0-3.29","545","","","","","rectangles with change","null","null","","","critical","d","c","t","160.6713","232.8713","240","164","164","240","spektor","0.05","h","164","240","240","164","160.6713","232.8713","39360","39360","37415.7294","tc","null","null","null","null","null","null","[3,2]","496.4214937884179","190.83680640269174","458.22305986977204"
"","canvas-keyboard-response","213","557496","0.0-6.0-4.29","545","","","","","clear_screen","null","null","","","critical","d","c","t","160.6713","232.8713","240","164","164","240","spektor","0.05","h","164","240","240","164","160.6713","232.8713","39360","39360","37415.7294","tc","null","null","null","null","null","null","[3,2]","496.4214937884179","190.83680640269174","458.22305986977204"
"","canvas-keyboard-response","214","558091","0.0-6.0-5.29","545","","","","","make choice","590","2","","","critical","d","c","t","160.6713","232.8713","240","164","164","240","spektor","0.05","h","164","240","240","164","160.6713","232.8713","39360","39360","37415.7294","tc","null","null","null","null","null","null","[3,2]","","",""
"","canvas-keyboard-response","215","558109","0.0-6.0-6.29","545","","","","","clear_screen","null","null","","","critical","d","c","t","160.6713","232.8713","240","164","164","240","spektor","0.05","h","164","240","240","164","160.6713","232.8713","39360","39360","37415.7294","tc","null","null","null","null","null","null","[3,2]","","",""
"","canvas-keyboard-response","216","558310","0.0-6.0-0.30","545","","","","","pre trial waiting period","null","null","","","critical","t","d","c","164","240","158.0083","227.1683","240","164","spektor","0.09","h","164","240","240","164","158.0083","227.1683","39360","39360","35894.4834","tc","null","null","null","null","null","null","[1,3]","496.15633767372054","139.73637967001403","518.2340310321594"
"","canvas-keyboard-response","217","558331","0.0-6.0-1.30","545","","","","","clear_screen","null","null","","","critical","t","d","c","164","240","158.0083","227.1683","240","164","spektor","0.09","h","164","240","240","164","158.0083","227.1683","39360","39360","35894.4834","tc","null","null","null","null","null","null","[1,3]","496.15633767372054","139.73637967001403","518.2340310321594"
"","canvas-keyboard-response","218","558838","0.0-6.0-2.30","545","","","","","rectangles no change","null","null","","","critical","t","d","c","164","240","158.0083","227.1683","240","164","spektor","0.09","h","164","240","240","164","158.0083","227.1683","39360","39360","35894.4834","tc","null","null","null","null","null","null","[1,3]","496.15633767372054","139.73637967001403","518.2340310321594"
"","canvas-keyboard-response","219","560172","0.0-6.0-3.30","545","","","","","rectangles with change","null","null","","","critical","t","d","c","164","240","158.0083","227.1683","240","164","spektor","0.09","h","164","240","240","164","158.0083","227.1683","39360","39360","35894.4834","tc","null","null","null","null","null","null","[1,3]","496.15633767372054","139.73637967001403","518.2340310321594"
"","canvas-keyboard-response","220","560193","0.0-6.0-4.30","545","","","","","clear_screen","null","null","","","critical","t","d","c","164","240","158.0083","227.1683","240","164","spektor","0.09","h","164","240","240","164","158.0083","227.1683","39360","39360","35894.4834","tc","null","null","null","null","null","null","[1,3]","496.15633767372054","139.73637967001403","518.2340310321594"
"","canvas-keyboard-response","221","560658","0.0-6.0-5.30","545","","","","","make choice","457","3","","","critical","t","d","c","164","240","158.0083","227.1683","240","164","spektor","0.09","h","164","240","240","164","158.0083","227.1683","39360","39360","35894.4834","tc","null","null","null","null","null","null","[1,3]","","",""
"","canvas-keyboard-response","222","560677","0.0-6.0-6.30","545","","","","","clear_screen","null","null","","","critical","t","d","c","164","240","158.0083","227.1683","240","164","spektor","0.09","h","164","240","240","164","158.0083","227.1683","39360","39360","35894.4834","tc","null","null","null","null","null","null","[1,3]","","",""
"","canvas-keyboard-response","223","560877","0.0-6.0-0.31","545","","","","","pre trial waiting period","null","null","","","critical","d","c","t","158.0083","227.1683","240","164","164","240","trueblood","0.09","h","164","240","240","164","158.0083","227.1683","39360","39360","35894.4834","dc","null","null","null","null","null","null","[1,2]","456.062900368281","469.26708557738806","433.72867194085796"
"","canvas-keyboard-response","224","560900","0.0-6.0-1.31","545","","","","","clear_screen","null","null","","","critical","d","c","t","158.0083","227.1683","240","164","164","240","trueblood","0.09","h","164","240","240","164","158.0083","227.1683","39360","39360","35894.4834","dc","null","null","null","null","null","null","[1,2]","456.062900368281","469.26708557738806","433.72867194085796"
"","canvas-keyboard-response","225","561408","0.0-6.0-2.31","545","","","","","rectangles no change","null","null","","","critical","d","c","t","158.0083","227.1683","240","164","164","240","trueblood","0.09","h","164","240","240","164","158.0083","227.1683","39360","39360","35894.4834","dc","null","null","null","null","null","null","[1,2]","456.062900368281","469.26708557738806","433.72867194085796"
"","canvas-keyboard-response","226","562744","0.0-6.0-3.31","545","","","","","rectangles with change","null","null","","","critical","d","c","t","158.0083","227.1683","240","164","164","240","trueblood","0.09","h","164","240","240","164","158.0083","227.1683","39360","39360","35894.4834","dc","null","null","null","null","null","null","[1,2]","456.062900368281","469.26708557738806","433.72867194085796"
"","canvas-keyboard-response","227","562764","0.0-6.0-4.31","545","","","","","clear_screen","null","null","","","critical","d","c","t","158.0083","227.1683","240","164","164","240","trueblood","0.09","h","164","240","240","164","158.0083","227.1683","39360","39360","35894.4834","dc","null","null","null","null","null","null","[1,2]","456.062900368281","469.26708557738806","433.72867194085796"
"","canvas-keyboard-response","228","563187","0.0-6.0-5.31","545","","","","","make choice","415","1","","","critical","d","c","t","158.0083","227.1683","240","164","164","240","trueblood","0.09","h","164","240","240","164","158.0083","227.1683","39360","39360","35894.4834","dc","null","null","null","null","null","null","[1,2]","","",""
"","canvas-keyboard-response","229","563207","0.0-6.0-6.31","545","","","","","clear_screen","null","null","","","critical","d","c","t","158.0083","227.1683","240","164","164","240","trueblood","0.09","h","164","240","240","164","158.0083","227.1683","39360","39360","35894.4834","dc","null","null","null","null","null","null","[1,2]","","",""
"","canvas-keyboard-response","230","563408","0.0-6.0-0.32","545","","","","","pre trial waiting period","null","null","","","critical","c","t","d","240","164","164","240","154.6796","220.0396","trueblood","0.14","h","164","240","240","164","154.6796","220.0396","39360","39360","34035.6388","tc","null","null","null","null","null","null","[2,1]","487.42742242190116","423.32988594734644","458.967274511478"
"","canvas-keyboard-response","231","563427","0.0-6.0-1.32","545","","","","","clear_screen","null","null","","","critical","c","t","d","240","164","164","240","154.6796","220.0396","trueblood","0.14","h","164","240","240","164","154.6796","220.0396","39360","39360","34035.6388","tc","null","null","null","null","null","null","[2,1]","487.42742242190116","423.32988594734644","458.967274511478"
"","canvas-keyboard-response","232","563934","0.0-6.0-2.32","545","","","","","rectangles no change","null","null","","","critical","c","t","d","240","164","164","240","154.6796","220.0396","trueblood","0.14","h","164","240","240","164","154.6796","220.0396","39360","39360","34035.6388","tc","null","null","null","null","null","null","[2,1]","487.42742242190116","423.32988594734644","458.967274511478"
"","canvas-keyboard-response","233","565273","0.0-6.0-3.32","545","","","","","rectangles with change","null","null","","","critical","c","t","d","240","164","164","240","154.6796","220.0396","trueblood","0.14","h","164","240","240","164","154.6796","220.0396","39360","39360","34035.6388","tc","null","null","null","null","null","null","[2,1]","487.42742242190116","423.32988594734644","458.967274511478"
"","canvas-keyboard-response","234","565287","0.0-6.0-4.32","545","","","","","clear_screen","null","null","","","critical","c","t","d","240","164","164","240","154.6796","220.0396","trueblood","0.14","h","164","240","240","164","154.6796","220.0396","39360","39360","34035.6388","tc","null","null","null","null","null","null","[2,1]","487.42742242190116","423.32988594734644","458.967274511478"
"","canvas-keyboard-response","235","566547","0.0-6.0-5.32","545","","","","","make choice","1255","1","","","critical","c","t","d","240","164","164","240","154.6796","220.0396","trueblood","0.14","h","164","240","240","164","154.6796","220.0396","39360","39360","34035.6388","tc","null","null","null","null","null","null","[2,1]","","",""
"","canvas-keyboard-response","236","566569","0.0-6.0-6.32","545","","","","","clear_screen","null","null","","","critical","c","t","d","240","164","164","240","154.6796","220.0396","trueblood","0.14","h","164","240","240","164","154.6796","220.0396","39360","39360","34035.6388","tc","null","null","null","null","null","null","[2,1]","","",""
"","canvas-keyboard-response","237","566771","0.0-6.0-0.33","545","","","","","pre trial waiting period","null","null","","","critical","c","t","d","240","164","164","240","164","240","spektor","0","h","164","240","240","164","164","240","39360","39360","39360","td","null","null","null","null","null","null","[2,3]","534.5077989706313","109.06182243131126","474.9779157140012"
"","canvas-keyboard-response","238","566791","0.0-6.0-1.33","545","","","","","clear_screen","null","null","","","critical","c","t","d","240","164","164","240","164","240","spektor","0","h","164","240","240","164","164","240","39360","39360","39360","td","null","null","null","null","null","null","[2,3]","534.5077989706313","109.06182243131126","474.9779157140012"
"","canvas-keyboard-response","239","567295","0.0-6.0-2.33","545","","","","","rectangles no change","null","null","","","critical","c","t","d","240","164","164","240","164","240","spektor","0","h","164","240","240","164","164","240","39360","39360","39360","td","null","null","null","null","null","null","[2,3]","534.5077989706313","109.06182243131126","474.9779157140012"
"","canvas-keyboard-response","240","568628","0.0-6.0-3.33","545","","","","","rectangles with change","null","null","","","critical","c","t","d","240","164","164","240","164","240","spektor","0","h","164","240","240","164","164","240","39360","39360","39360","td","null","null","null","null","null","null","[2,3]","534.5077989706313","109.06182243131126","474.9779157140012"
"","canvas-keyboard-response","241","568650","0.0-6.0-4.33","545","","","","","clear_screen","null","null","","","critical","c","t","d","240","164","164","240","164","240","spektor","0","h","164","240","240","164","164","240","39360","39360","39360","td","null","null","null","null","null","null","[2,3]","534.5077989706313","109.06182243131126","474.9779157140012"
"","canvas-keyboard-response","242","569026","0.0-6.0-5.33","545","","","","","make choice","372","3","","","critical","c","t","d","240","164","164","240","164","240","spektor","0","h","164","240","240","164","164","240","39360","39360","39360","td","null","null","null","null","null","null","[2,3]","","",""
"","canvas-keyboard-response","243","569046","0.0-6.0-6.33","545","","","","","clear_screen","null","null","","","critical","c","t","d","240","164","164","240","164","240","spektor","0","h","164","240","240","164","164","240","39360","39360","39360","td","null","null","null","null","null","null","[2,3]","","",""
"","canvas-keyboard-response","244","569247","0.0-6.0-0.34","545","","","","","pre trial waiting period","null","null","","","catch","sw","sh","l","180","200","178","144","284","215","trueblood","null","null","null","null","null","null","null","null","null","null","null","","180","200","260","200","36000","52000","[1,3]","491.93005635354854","524.9665129315008","436.46959357270754"
"","canvas-keyboard-response","245","569265","0.0-6.0-1.34","545","","","","","clear_screen","null","null","","","catch","sw","sh","l","180","200","178","144","284","215","trueblood","null","null","null","null","null","null","null","null","null","null","null","","180","200","260","200","36000","52000","[1,3]","491.93005635354854","524.9665129315008","436.46959357270754"
"","canvas-keyboard-response","246","569774","0.0-6.0-2.34","545","","","","","rectangles no change","null","null","","","catch","sw","sh","l","180","200","178","144","284","215","trueblood","null","null","null","null","null","null","null","null","null","null","null","","180","200","260","200","36000","52000","[1,3]","491.93005635354854","524.9665129315008","436.46959357270754"
"","canvas-keyboard-response","247","571114","0.0-6.0-3.34","545","","","","","rectangles with change","null","null","","","catch","sw","sh","l","180","200","178","144","284","215","trueblood","null","null","null","null","null","null","null","null","null","null","null","","180","200","260","200","36000","52000","[1,3]","491.93005635354854","524.9665129315008","436.46959357270754"
"","canvas-keyboard-response","248","571137","0.0-6.0-4.34","545","","","","","clear_screen","null","null","","","catch","sw","sh","l","180","200","178","144","284","215","trueblood","null","null","null","null","null","null","null","null","null","null","null","","180","200","260","200","36000","52000","[1,3]","491.93005635354854","524.9665129315008","436.46959357270754"
"","canvas-keyboard-response","249","571818","0.0-6.0-5.34","545","","","","","make choice","675","3","","","catch","sw","sh","l","180","200","178","144","284","215","trueblood","null","null","null","null","null","null","null","null","null","null","null","","180","200","260","200","36000","52000","[1,3]","","",""
"","canvas-keyboard-response","250","571838","0.0-6.0-6.34","545","","","","","clear_screen","null","null","","","catch","sw","sh","l","180","200","178","144","284","215","trueblood","null","null","null","null","null","null","null","null","null","null","null","","180","200","260","200","36000","52000","[1,3]","","",""
"","canvas-keyboard-response","251","572039","0.0-6.0-0.35","545","","","","","pre trial waiting period","null","null","","","catch","sw","sh","l","180","200","182","168","174","234","spektor","null","null","null","null","null","null","null","null","null","null","null","","180","200","260","200","36000","52000","[2,3]","483.57301711842206","196.99171402141198","467.2603638344982"
"","canvas-keyboard-response","252","572062","0.0-6.0-1.35","545","","","","","clear_screen","null","null","","","catch","sw","sh","l","180","200","182","168","174","234","spektor","null","null","null","null","null","null","null","null","null","null","null","","180","200","260","200","36000","52000","[2,3]","483.57301711842206","196.99171402141198","467.2603638344982"
"","canvas-keyboard-response","253","572574","0.0-6.0-2.35","545","","","","","rectangles no change","null","null","","","catch","sw","sh","l","180","200","182","168","174","234","spektor","null","null","null","null","null","null","null","null","null","null","null","","180","200","260","200","36000","52000","[2,3]","483.57301711842206","196.99171402141198","467.2603638344982"
"","canvas-keyboard-response","254","573908","0.0-6.0-3.35","545","","","","","rectangles with change","null","null","","","catch","sw","sh","l","180","200","182","168","174","234","spektor","null","null","null","null","null","null","null","null","null","null","null","","180","200","260","200","36000","52000","[2,3]","483.57301711842206","196.99171402141198","467.2603638344982"
"","canvas-keyboard-response","255","573926","0.0-6.0-4.35","545","","","","","clear_screen","null","null","","","catch","sw","sh","l","180","200","182","168","174","234","spektor","null","null","null","null","null","null","null","null","null","null","null","","180","200","260","200","36000","52000","[2,3]","483.57301711842206","196.99171402141198","467.2603638344982"
"","canvas-keyboard-response","256","574931","0.0-6.0-5.35","545","","","","","make choice","999","3","","","catch","sw","sh","l","180","200","182","168","174","234","spektor","null","null","null","null","null","null","null","null","null","null","null","","180","200","260","200","36000","52000","[2,3]","","",""
"","canvas-keyboard-response","257","574950","0.0-6.0-6.35","545","","","","","clear_screen","null","null","","","catch","sw","sh","l","180","200","182","168","174","234","spektor","null","null","null","null","null","null","null","null","null","null","null","","180","200","260","200","36000","52000","[2,3]","","",""
"","canvas-keyboard-response","258","575151","0.0-6.0-0.36","545","","","","","pre trial waiting period","null","null","","","critical","t","c","d","164","240","240","164","160.6713","232.8713","trueblood","0.05","h","164","240","240","164","160.6713","232.8713","39360","39360","37415.7294","dc","null","null","null","null","null","null","[3,2]","458.5381945307823","507.0616530636673","423.7353786399555"
"","canvas-keyboard-response","259","575170","0.0-6.0-1.36","545","","","","","clear_screen","null","null","","","critical","t","c","d","164","240","240","164","160.6713","232.8713","trueblood","0.05","h","164","240","240","164","160.6713","232.8713","39360","39360","37415.7294","dc","null","null","null","null","null","null","[3,2]","458.5381945307823","507.0616530636673","423.7353786399555"
"","canvas-keyboard-response","260","575677","0.0-6.0-2.36","545","","","","","rectangles no change","null","null","","","critical","t","c","d","164","240","240","164","160.6713","232.8713","trueblood","0.05","h","164","240","240","164","160.6713","232.8713","39360","39360","37415.7294","dc","null","null","null","null","null","null","[3,2]","458.5381945307823","507.0616530636673","423.7353786399555"
"","canvas-keyboard-response","261","577014","0.0-6.0-3.36","545","","","","","rectangles with change","null","null","","","critical","t","c","d","164","240","240","164","160.6713","232.8713","trueblood","0.05","h","164","240","240","164","160.6713","232.8713","39360","39360","37415.7294","dc","null","null","null","null","null","null","[3,2]","458.5381945307823","507.0616530636673","423.7353786399555"
"","canvas-keyboard-response","262","577038","0.0-6.0-4.36","545","","","","","clear_screen","null","null","","","critical","t","c","d","164","240","240","164","160.6713","232.8713","trueblood","0.05","h","164","240","240","164","160.6713","232.8713","39360","39360","37415.7294","dc","null","null","null","null","null","null","[3,2]","458.5381945307823","507.0616530636673","423.7353786399555"
"","canvas-keyboard-response","263","577723","0.0-6.0-5.36","545","","","","","make choice","680","2","","","critical","t","c","d","164","240","240","164","160.6713","232.8713","trueblood","0.05","h","164","240","240","164","160.6713","232.8713","39360","39360","37415.7294","dc","null","null","null","null","null","null","[3,2]","","",""
"","canvas-keyboard-response","264","577742","0.0-6.0-6.36","545","","","","","clear_screen","null","null","","","critical","t","c","d","164","240","240","164","160.6713","232.8713","trueblood","0.05","h","164","240","240","164","160.6713","232.8713","39360","39360","37415.7294","dc","null","null","null","null","null","null","[3,2]","","",""
"","canvas-keyboard-response","265","577943","0.0-6.0-0.37","545","","","","","pre trial waiting period","null","null","","","critical","c","d","t","240","164","154.6796","220.0396","164","240","trueblood","0.14","h","164","240","240","164","154.6796","220.0396","39360","39360","34035.6388","dc","null","null","null","null","null","null","[2,1]","511.9302269152345","434.066019688417","430.71703573530056"
"","canvas-keyboard-response","266","577966","0.0-6.0-1.37","545","","","","","clear_screen","null","null","","","critical","c","d","t","240","164","154.6796","220.0396","164","240","trueblood","0.14","h","164","240","240","164","154.6796","220.0396","39360","39360","34035.6388","dc","null","null","null","null","null","null","[2,1]","511.9302269152345","434.066019688417","430.71703573530056"
"","canvas-keyboard-response","267","578473","0.0-6.0-2.37","545","","","","","rectangles no change","null","null","","","critical","c","d","t","240","164","154.6796","220.0396","164","240","trueblood","0.14","h","164","240","240","164","154.6796","220.0396","39360","39360","34035.6388","dc","null","null","null","null","null","null","[2,1]","511.9302269152345","434.066019688417","430.71703573530056"
