"success","trial_type","trial_index","time_elapsed","internal_node_id","sub_n","timeout","failed_images","failed_audio","failed_video","screen_id","rt","response","stimulus","view_history","trial","r1","r2","r3","w1","h1","w2","h2","w3","h3","display","tdd","tdo","tw","th","cw","ch","dw","dh","ta","ca","da","probe","csls","csss","clls","clss","sa","la","probe_rects","r1yloc","r2yloc","r3yloc"
"true","fullscreen","0","2339","0.0-0.0","555","","","","","","","","","","","","","","","","","","","","","","","","","","","","","","","","","","","","","","","","","",""
"true","preload","1","2357","0.0-1.0","555","false","[]","[]","[]","img preload","","","","","","","","","","","","","","","","","","","","","","","","","","","","","","","","","","","","",""
"","survey-html-form","2","5716","0.0-2.0","555","","","","","enter-sub-number","3352","{""response"":""555""}","","","","","","","","","","","","","","","","","","","","","","","","","","","","","","","","","","",""
"","image-button-response","3","20685","0.0-3.0","555","","","","","","14906","0","consent.png","","","","","","","","","","","","","","","","","","","","","","","","","","","","","","","","","",""
"","html-button-response","4","22477","0.0-4.0","555","","","","","intro mssg","1788","0","<div style= ""font-size:25px;"" <p> <strong> Welcome! </strong><br> <p style=""color:#8B0000; font-size:25px;""><strong> Please do NOT exit full screen until you are done with the experiment. </strong> </p><p style=""font-size:25px;color:#8B0000;""> <strong> Your data will be lost <br> if you try to go back or refresh the page after the experiment starts. Feel free to click ""previous"" during the instructions, however.</strong> </p><br><p> <strong> Thanks in advance for your contribution to our research! </strong></p>","","","","","","","","","","","","","","","","","","","","","","","","","","","","","","","","","",""
"","instructions","5","76677","0.0-5.0","555","","","","","instructions","54195","","","[{""page_index"":0,""viewing_time"":7666},{""page_index"":1,""viewing_time"":10840},{""page_index"":2,""viewing_time"":4311},{""page_index"":3,""viewing_time"":16912},{""page_index"":4,""viewing_time"":7449},{""page_index"":5,""viewing_time"":3047},{""page_index"":6,""viewing_time"":2779},{""page_index"":7,""viewing_time"":1191}]","","","","","","","","","","","","","","","","","","","","","","","","","","","","","","","","",""
"","canvas-keyboard-response","6","76884","0.0-6.0-0.0","555","","","","","pre trial waiting period","null","null","","","catch","l","sh","sw","223","278","212","170","190","237","trueblood","null","null","null","null","null","null","null","null","null","null","null","","180","200","260","200","36000","52000","[1,2]","402.4389359610423","482.215534217013","431.8594652442201"
"","canvas-keyboard-response","7","76905","0.0-6.0-1.0","555","","","","","clear_screen","null","null","","","catch","l","sh","sw","223","278","212","170","190","237","trueblood","null","null","null","null","null","null","null","null","null","null","null","","180","200","260","200","36000","52000","[1,2]","402.4389359610423","482.215534217013","431.8594652442201"
"","canvas-keyboard-response","8","77416","0.0-6.0-2.0","555","","","","","rectangles no change","null","null","","","catch","l","sh","sw","223","278","212","170","190","237","trueblood","null","null","null","null","null","null","null","null","null","null","null","","180","200","260","200","36000","52000","[1,2]","402.4389359610423","482.215534217013","431.8594652442201"
"","canvas-keyboard-response","9","78755","0.0-6.0-3.0","555","","","","","rectangles with change","null","null","","","catch","l","sh","sw","223","278","212","170","190","237","trueblood","null","null","null","null","null","null","null","null","null","null","null","","180","200","260","200","36000","52000","[1,2]","402.4389359610423","482.215534217013","431.8594652442201"
"","canvas-keyboard-response","10","78774","0.0-6.0-4.0","555","","","","","clear_screen","null","null","","","catch","l","sh","sw","223","278","212","170","190","237","trueblood","null","null","null","null","null","null","null","null","null","null","null","","180","200","260","200","36000","52000","[1,2]","402.4389359610423","482.215534217013","431.8594652442201"
"","canvas-keyboard-response","11","81812","0.0-6.0-5.0","555","","","","","make choice","3029","1","","","catch","l","sh","sw","223","278","212","170","190","237","trueblood","null","null","null","null","null","null","null","null","null","null","null","","180","200","260","200","36000","52000","[1,2]","","",""
"","canvas-keyboard-response","12","81834","0.0-6.0-6.0","555","","","","","clear_screen","null","null","","","catch","l","sh","sw","223","278","212","170","190","237","trueblood","null","null","null","null","null","null","null","null","null","null","null","","180","200","260","200","36000","52000","[1,2]","","",""
"","canvas-keyboard-response","13","82035","0.0-6.0-0.1","555","","","","","pre trial waiting period","null","null","","","catch","sh","l","sw","181","217","228","225","182","226","trueblood","null","null","null","null","null","null","null","null","null","null","null","","180","200","260","200","36000","52000","[2,3]","479.5433771611698","457.0475712534485","439.4569430526397"
"","canvas-keyboard-response","14","82057","0.0-6.0-1.1","555","","","","","clear_screen","null","null","","","catch","sh","l","sw","181","217","228","225","182","226","trueblood","null","null","null","null","null","null","null","null","null","null","null","","180","200","260","200","36000","52000","[2,3]","479.5433771611698","457.0475712534485","439.4569430526397"
"","canvas-keyboard-response","15","82562","0.0-6.0-2.1","555","","","","","rectangles no change","null","null","","","catch","sh","l","sw","181","217","228","225","182","226","trueblood","null","null","null","null","null","null","null","null","null","null","null","","180","200","260","200","36000","52000","[2,3]","479.5433771611698","457.0475712534485","439.4569430526397"
"","canvas-keyboard-response","16","83897","0.0-6.0-3.1","555","","","","","rectangles with change","null","null","","","catch","sh","l","sw","181","217","228","225","182","226","trueblood","null","null","null","null","null","null","null","null","null","null","null","","180","200","260","200","36000","52000","[2,3]","479.5433771611698","457.0475712534485","439.4569430526397"
"","canvas-keyboard-response","17","83921","0.0-6.0-4.1","555","","","","","clear_screen","null","null","","","catch","sh","l","sw","181","217","228","225","182","226","trueblood","null","null","null","null","null","null","null","null","null","null","null","","180","200","260","200","36000","52000","[2,3]","479.5433771611698","457.0475712534485","439.4569430526397"
"","canvas-keyboard-response","18","85229","0.0-6.0-5.1","555","","","","","make choice","1296","3","","","catch","sh","l","sw","181","217","228","225","182","226","trueblood","null","null","null","null","null","null","null","null","null","null","null","","180","200","260","200","36000","52000","[2,3]","","",""
"","canvas-keyboard-response","19","85248","0.0-6.0-6.1","555","","","","","clear_screen","null","null","","","catch","sh","l","sw","181","217","228","225","182","226","trueblood","null","null","null","null","null","null","null","null","null","null","null","","180","200","260","200","36000","52000","[2,3]","","",""
"","canvas-keyboard-response","20","85449","0.0-6.0-0.2","555","","","","","pre trial waiting period","null","null","","","critical","d","t","c","158.0083","227.1683","164","240","240","164","spektor","0.09","h","164","240","240","164","158.0083","227.1683","39360","39360","35894.4834","td","null","null","null","null","null","null","[2,1]","476.1659159027404","121.55064220630527","498.2051395840309"
"","canvas-keyboard-response","21","85469","0.0-6.0-1.2","555","","","","","clear_screen","null","null","","","critical","d","t","c","158.0083","227.1683","164","240","240","164","spektor","0.09","h","164","240","240","164","158.0083","227.1683","39360","39360","35894.4834","td","null","null","null","null","null","null","[2,1]","476.1659159027404","121.55064220630527","498.2051395840309"
"","canvas-keyboard-response","22","85977","0.0-6.0-2.2","555","","","","","rectangles no change","null","null","","","critical","d","t","c","158.0083","227.1683","164","240","240","164","spektor","0.09","h","164","240","240","164","158.0083","227.1683","39360","39360","35894.4834","td","null","null","null","null","null","null","[2,1]","476.1659159027404","121.55064220630527","498.2051395840309"
"","canvas-keyboard-response","23","87317","0.0-6.0-3.2","555","","","","","rectangles with change","null","null","","","critical","d","t","c","158.0083","227.1683","164","240","240","164","spektor","0.09","h","164","240","240","164","158.0083","227.1683","39360","39360","35894.4834","td","null","null","null","null","null","null","[2,1]","476.1659159027404","121.55064220630527","498.2051395840309"
"","canvas-keyboard-response","24","87339","0.0-6.0-4.2","555","","","","","clear_screen","null","null","","","critical","d","t","c","158.0083","227.1683","164","240","240","164","spektor","0.09","h","164","240","240","164","158.0083","227.1683","39360","39360","35894.4834","td","null","null","null","null","null","null","[2,1]","476.1659159027404","121.55064220630527","498.2051395840309"
"","canvas-keyboard-response","25","87707","0.0-6.0-5.2","555","","","","","make choice","364","2","","","critical","d","t","c","158.0083","227.1683","164","240","240","164","spektor","0.09","h","164","240","240","164","158.0083","227.1683","39360","39360","35894.4834","td","null","null","null","null","null","null","[2,1]","","",""
"","canvas-keyboard-response","26","87724","0.0-6.0-6.2","555","","","","","clear_screen","null","null","","","critical","d","t","c","158.0083","227.1683","164","240","240","164","spektor","0.09","h","164","240","240","164","158.0083","227.1683","39360","39360","35894.4834","td","null","null","null","null","null","null","[2,1]","","",""
"","canvas-keyboard-response","27","87926","0.0-6.0-0.3","555","","","","","pre trial waiting period","null","null","","","catch","sh","sw","l","163","167","202","187","224","230","trueblood","null","null","null","null","null","null","null","null","null","null","null","","180","200","260","200","36000","52000","[2,3]","489.4210803668511","479.4354764421054","456.3604125006051"
"","canvas-keyboard-response","28","87948","0.0-6.0-1.3","555","","","","","clear_screen","null","null","","","catch","sh","sw","l","163","167","202","187","224","230","trueblood","null","null","null","null","null","null","null","null","null","null","null","","180","200","260","200","36000","52000","[2,3]","489.4210803668511","479.4354764421054","456.3604125006051"
"","canvas-keyboard-response","29","88456","0.0-6.0-2.3","555","","","","","rectangles no change","null","null","","","catch","sh","sw","l","163","167","202","187","224","230","trueblood","null","null","null","null","null","null","null","null","null","null","null","","180","200","260","200","36000","52000","[2,3]","489.4210803668511","479.4354764421054","456.3604125006051"
"","canvas-keyboard-response","30","89790","0.0-6.0-3.3","555","","","","","rectangles with change","null","null","","","catch","sh","sw","l","163","167","202","187","224","230","trueblood","null","null","null","null","null","null","null","null","null","null","null","","180","200","260","200","36000","52000","[2,3]","489.4210803668511","479.4354764421054","456.3604125006051"
"","canvas-keyboard-response","31","89808","0.0-6.0-4.3","555","","","","","clear_screen","null","null","","","catch","sh","sw","l","163","167","202","187","224","230","trueblood","null","null","null","null","null","null","null","null","null","null","null","","180","200","260","200","36000","52000","[2,3]","489.4210803668511","479.4354764421054","456.3604125006051"
"","canvas-keyboard-response","32","91436","0.0-6.0-5.3","555","","","","","make choice","1621","3","","","catch","sh","sw","l","163","167","202","187","224","230","trueblood","null","null","null","null","null","null","null","null","null","null","null","","180","200","260","200","36000","52000","[2,3]","","",""
"","canvas-keyboard-response","33","91456","0.0-6.0-6.3","555","","","","","clear_screen","null","null","","","catch","sh","sw","l","163","167","202","187","224","230","trueblood","null","null","null","null","null","null","null","null","null","null","null","","180","200","260","200","36000","52000","[2,3]","","",""
"","canvas-keyboard-response","34","91657","0.0-6.0-0.4","555","","","","","pre trial waiting period","null","null","","","critical","d","c","t","162.6685","237.1485","240","164","164","240","spektor","0.02","h","164","240","240","164","162.6685","237.1485","39360","39360","38576.5967","dc","null","null","null","null","null","null","[1,2]","459.22532560972866","159.25973619202392","493.6788563734791"
"","canvas-keyboard-response","35","91678","0.0-6.0-1.4","555","","","","","clear_screen","null","null","","","critical","d","c","t","162.6685","237.1485","240","164","164","240","spektor","0.02","h","164","240","240","164","162.6685","237.1485","39360","39360","38576.5967","dc","null","null","null","null","null","null","[1,2]","459.22532560972866","159.25973619202392","493.6788563734791"
"","canvas-keyboard-response","36","92187","0.0-6.0-2.4","555","","","","","rectangles no change","null","null","","","critical","d","c","t","162.6685","237.1485","240","164","164","240","spektor","0.02","h","164","240","240","164","162.6685","237.1485","39360","39360","38576.5967","dc","null","null","null","null","null","null","[1,2]","459.22532560972866","159.25973619202392","493.6788563734791"
"","canvas-keyboard-response","37","93522","0.0-6.0-3.4","555","","","","","rectangles with change","null","null","","","critical","d","c","t","162.6685","237.1485","240","164","164","240","spektor","0.02","h","164","240","240","164","162.6685","237.1485","39360","39360","38576.5967","dc","null","null","null","null","null","null","[1,2]","459.22532560972866","159.25973619202392","493.6788563734791"
"","canvas-keyboard-response","38","93544","0.0-6.0-4.4","555","","","","","clear_screen","null","null","","","critical","d","c","t","162.6685","237.1485","240","164","164","240","spektor","0.02","h","164","240","240","164","162.6685","237.1485","39360","39360","38576.5967","dc","null","null","null","null","null","null","[1,2]","459.22532560972866","159.25973619202392","493.6788563734791"
"","canvas-keyboard-response","39","93714","0.0-6.0-5.4","555","","","","","make choice","163","2","","","critical","d","c","t","162.6685","237.1485","240","164","164","240","spektor","0.02","h","164","240","240","164","162.6685","237.1485","39360","39360","38576.5967","dc","null","null","null","null","null","null","[1,2]","","",""
"","canvas-keyboard-response","40","93729","0.0-6.0-6.4","555","","","","","clear_screen","null","null","","","critical","d","c","t","162.6685","237.1485","240","164","164","240","spektor","0.02","h","164","240","240","164","162.6685","237.1485","39360","39360","38576.5967","dc","null","null","null","null","null","null","[1,2]","","",""
"","canvas-keyboard-response","41","93930","0.0-6.0-0.5","555","","","","","pre trial waiting period","null","null","","","critical","c","d","t","164","240","220.0396","154.6796","240","164","spektor","0.14","w","240","164","164","240","220.0396","154.6796","39360","39360","34035.6388","dc","null","null","null","null","null","null","[2,1]","463.03503190846595","218.16996042357152","527.8685066749193"
"","canvas-keyboard-response","42","93949","0.0-6.0-1.5","555","","","","","clear_screen","null","null","","","critical","c","d","t","164","240","220.0396","154.6796","240","164","spektor","0.14","w","240","164","164","240","220.0396","154.6796","39360","39360","34035.6388","dc","null","null","null","null","null","null","[2,1]","463.03503190846595","218.16996042357152","527.8685066749193"
"","canvas-keyboard-response","43","94461","0.0-6.0-2.5","555","","","","","rectangles no change","null","null","","","critical","c","d","t","164","240","220.0396","154.6796","240","164","spektor","0.14","w","240","164","164","240","220.0396","154.6796","39360","39360","34035.6388","dc","null","null","null","null","null","null","[2,1]","463.03503190846595","218.16996042357152","527.8685066749193"
"","canvas-keyboard-response","44","95795","0.0-6.0-3.5","555","","","","","rectangles with change","null","null","","","critical","c","d","t","164","240","220.0396","154.6796","240","164","spektor","0.14","w","240","164","164","240","220.0396","154.6796","39360","39360","34035.6388","dc","null","null","null","null","null","null","[2,1]","463.03503190846595","218.16996042357152","527.8685066749193"
"","canvas-keyboard-response","45","95815","0.0-6.0-4.5","555","","","","","clear_screen","null","null","","","critical","c","d","t","164","240","220.0396","154.6796","240","164","spektor","0.14","w","240","164","164","240","220.0396","154.6796","39360","39360","34035.6388","dc","null","null","null","null","null","null","[2,1]","463.03503190846595","218.16996042357152","527.8685066749193"
"","canvas-keyboard-response","46","97180","0.0-6.0-5.5","555","","","","","make choice","1359","2","","","critical","c","d","t","164","240","220.0396","154.6796","240","164","spektor","0.14","w","240","164","164","240","220.0396","154.6796","39360","39360","34035.6388","dc","null","null","null","null","null","null","[2,1]","","",""
"","canvas-keyboard-response","47","97198","0.0-6.0-6.5","555","","","","","clear_screen","null","null","","","critical","c","d","t","164","240","220.0396","154.6796","240","164","spektor","0.14","w","240","164","164","240","220.0396","154.6796","39360","39360","34035.6388","dc","null","null","null","null","null","null","[2,1]","","",""
"","canvas-keyboard-response","48","97399","0.0-6.0-0.6","555","","","","","pre trial waiting period","null","null","","","critical","c","t","d","240","164","164","240","162.6685","237.1485","trueblood","0.02","h","164","240","240","164","162.6685","237.1485","39360","39360","38576.5967","tc","null","null","null","null","null","null","[2,1]","486.3484688302002","447.00529456551186","461.43263431967847"
"","canvas-keyboard-response","49","97418","0.0-6.0-1.6","555","","","","","clear_screen","null","null","","","critical","c","t","d","240","164","164","240","162.6685","237.1485","trueblood","0.02","h","164","240","240","164","162.6685","237.1485","39360","39360","38576.5967","tc","null","null","null","null","null","null","[2,1]","486.3484688302002","447.00529456551186","461.43263431967847"
"","canvas-keyboard-response","50","97928","0.0-6.0-2.6","555","","","","","rectangles no change","null","null","","","critical","c","t","d","240","164","164","240","162.6685","237.1485","trueblood","0.02","h","164","240","240","164","162.6685","237.1485","39360","39360","38576.5967","tc","null","null","null","null","null","null","[2,1]","486.3484688302002","447.00529456551186","461.43263431967847"
"","canvas-keyboard-response","51","99267","0.0-6.0-3.6","555","","","","","rectangles with change","null","null","","","critical","c","t","d","240","164","164","240","162.6685","237.1485","trueblood","0.02","h","164","240","240","164","162.6685","237.1485","39360","39360","38576.5967","tc","null","null","null","null","null","null","[2,1]","486.3484688302002","447.00529456551186","461.43263431967847"
"","canvas-keyboard-response","52","99285","0.0-6.0-4.6","555","","","","","clear_screen","null","null","","","critical","c","t","d","240","164","164","240","162.6685","237.1485","trueblood","0.02","h","164","240","240","164","162.6685","237.1485","39360","39360","38576.5967","tc","null","null","null","null","null","null","[2,1]","486.3484688302002","447.00529456551186","461.43263431967847"
"","canvas-keyboard-response","53","99668","0.0-6.0-5.6","555","","","","","make choice","377","1","","","critical","c","t","d","240","164","164","240","162.6685","237.1485","trueblood","0.02","h","164","240","240","164","162.6685","237.1485","39360","39360","38576.5967","tc","null","null","null","null","null","null","[2,1]","","",""
"","canvas-keyboard-response","54","99687","0.0-6.0-6.6","555","","","","","clear_screen","null","null","","","critical","c","t","d","240","164","164","240","162.6685","237.1485","trueblood","0.02","h","164","240","240","164","162.6685","237.1485","39360","39360","38576.5967","tc","null","null","null","null","null","null","[2,1]","","",""
"","canvas-keyboard-response","55","99889","0.0-6.0-0.7","555","","","","","pre trial waiting period","null","null","","","critical","d","c","t","227.1683","158.0083","164","240","240","164","trueblood","0.09","w","240","164","164","240","227.1683","158.0083","39360","39360","35894.4834","td","null","null","null","null","null","null","[3,1]","486.4411946176228","465.48635972625243","478.1577893401448"
"","canvas-keyboard-response","56","99908","0.0-6.0-1.7","555","","","","","clear_screen","null","null","","","critical","d","c","t","227.1683","158.0083","164","240","240","164","trueblood","0.09","w","240","164","164","240","227.1683","158.0083","39360","39360","35894.4834","td","null","null","null","null","null","null","[3,1]","486.4411946176228","465.48635972625243","478.1577893401448"
"","canvas-keyboard-response","57","100415","0.0-6.0-2.7","555","","","","","rectangles no change","null","null","","","critical","d","c","t","227.1683","158.0083","164","240","240","164","trueblood","0.09","w","240","164","164","240","227.1683","158.0083","39360","39360","35894.4834","td","null","null","null","null","null","null","[3,1]","486.4411946176228","465.48635972625243","478.1577893401448"
"","canvas-keyboard-response","58","101752","0.0-6.0-3.7","555","","","","","rectangles with change","null","null","","","critical","d","c","t","227.1683","158.0083","164","240","240","164","trueblood","0.09","w","240","164","164","240","227.1683","158.0083","39360","39360","35894.4834","td","null","null","null","null","null","null","[3,1]","486.4411946176228","465.48635972625243","478.1577893401448"
"","canvas-keyboard-response","59","101774","0.0-6.0-4.7","555","","","","","clear_screen","null","null","","","critical","d","c","t","227.1683","158.0083","164","240","240","164","trueblood","0.09","w","240","164","164","240","227.1683","158.0083","39360","39360","35894.4834","td","null","null","null","null","null","null","[3,1]","486.4411946176228","465.48635972625243","478.1577893401448"
"","canvas-keyboard-response","60","102060","0.0-6.0-5.7","555","","","","","make choice","281","3","","","critical","d","c","t","227.1683","158.0083","164","240","240","164","trueblood","0.09","w","240","164","164","240","227.1683","158.0083","39360","39360","35894.4834","td","null","null","null","null","null","null","[3,1]","","",""
"","canvas-keyboard-response","61","102078","0.0-6.0-6.7","555","","","","","clear_screen","null","null","","","critical","d","c","t","227.1683","158.0083","164","240","240","164","trueblood","0.09","w","240","164","164","240","227.1683","158.0083","39360","39360","35894.4834","td","null","null","null","null","null","null","[3,1]","","",""
"","canvas-keyboard-response","62","102279","0.0-6.0-0.8","555","","","","","pre trial waiting period","null","null","","","critical","t","c","d","240","164","164","240","232.8713","160.6713","spektor","0.05","w","240","164","164","240","232.8713","160.6713","39360","39360","37415.7294","dc","null","null","null","null","null","null","[3,2]","494.6540434873389","119.21660480207782","528.3333500408205"
"","canvas-keyboard-response","63","102299","0.0-6.0-1.8","555","","","","","clear_screen","null","null","","","critical","t","c","d","240","164","164","240","232.8713","160.6713","spektor","0.05","w","240","164","164","240","232.8713","160.6713","39360","39360","37415.7294","dc","null","null","null","null","null","null","[3,2]","494.6540434873389","119.21660480207782","528.3333500408205"
"","canvas-keyboard-response","64","102807","0.0-6.0-2.8","555","","","","","rectangles no change","null","null","","","critical","t","c","d","240","164","164","240","232.8713","160.6713","spektor","0.05","w","240","164","164","240","232.8713","160.6713","39360","39360","37415.7294","dc","null","null","null","null","null","null","[3,2]","494.6540434873389","119.21660480207782","528.3333500408205"
"","canvas-keyboard-response","65","104142","0.0-6.0-3.8","555","","","","","rectangles with change","null","null","","","critical","t","c","d","240","164","164","240","232.8713","160.6713","spektor","0.05","w","240","164","164","240","232.8713","160.6713","39360","39360","37415.7294","dc","null","null","null","null","null","null","[3,2]","494.6540434873389","119.21660480207782","528.3333500408205"
"","canvas-keyboard-response","66","104159","0.0-6.0-4.8","555","","","","","clear_screen","null","null","","","critical","t","c","d","240","164","164","240","232.8713","160.6713","spektor","0.05","w","240","164","164","240","232.8713","160.6713","39360","39360","37415.7294","dc","null","null","null","null","null","null","[3,2]","494.6540434873389","119.21660480207782","528.3333500408205"
"","canvas-keyboard-response","67","105788","0.0-6.0-5.8","555","","","","","make choice","1621","2","","","critical","t","c","d","240","164","164","240","232.8713","160.6713","spektor","0.05","w","240","164","164","240","232.8713","160.6713","39360","39360","37415.7294","dc","null","null","null","null","null","null","[3,2]","","",""
"","canvas-keyboard-response","68","105810","0.0-6.0-6.8","555","","","","","clear_screen","null","null","","","critical","t","c","d","240","164","164","240","232.8713","160.6713","spektor","0.05","w","240","164","164","240","232.8713","160.6713","39360","39360","37415.7294","dc","null","null","null","null","null","null","[3,2]","","",""
"","canvas-keyboard-response","69","106010","0.0-6.0-0.9","555","","","","","pre trial waiting period","null","null","","","catch","sh","sw","l","169","140","161","188","270","236","spektor","null","null","null","null","null","null","null","null","null","null","null","","180","200","260","200","36000","52000","[1,3]","530.2966161411936","192.93658343729777","474.40881221587756"
"","canvas-keyboard-response","70","106031","0.0-6.0-1.9","555","","","","","clear_screen","null","null","","","catch","sh","sw","l","169","140","161","188","270","236","spektor","null","null","null","null","null","null","null","null","null","null","null","","180","200","260","200","36000","52000","[1,3]","530.2966161411936","192.93658343729777","474.40881221587756"
"","canvas-keyboard-response","71","106536","0.0-6.0-2.9","555","","","","","rectangles no change","null","null","","","catch","sh","sw","l","169","140","161","188","270","236","spektor","null","null","null","null","null","null","null","null","null","null","null","","180","200","260","200","36000","52000","[1,3]","530.2966161411936","192.93658343729777","474.40881221587756"
"","canvas-keyboard-response","72","107874","0.0-6.0-3.9","555","","","","","rectangles with change","null","null","","","catch","sh","sw","l","169","140","161","188","270","236","spektor","null","null","null","null","null","null","null","null","null","null","null","","180","200","260","200","36000","52000","[1,3]","530.2966161411936","192.93658343729777","474.40881221587756"
"","canvas-keyboard-response","73","107893","0.0-6.0-4.9","555","","","","","clear_screen","null","null","","","catch","sh","sw","l","169","140","161","188","270","236","spektor","null","null","null","null","null","null","null","null","null","null","null","","180","200","260","200","36000","52000","[1,3]","530.2966161411936","192.93658343729777","474.40881221587756"
"","canvas-keyboard-response","74","108212","0.0-6.0-5.9","555","","","","","make choice","315","3","","","catch","sh","sw","l","169","140","161","188","270","236","spektor","null","null","null","null","null","null","null","null","null","null","null","","180","200","260","200","36000","52000","[1,3]","","",""
"","canvas-keyboard-response","75","108230","0.0-6.0-6.9","555","","","","","clear_screen","null","null","","","catch","sh","sw","l","169","140","161","188","270","236","spektor","null","null","null","null","null","null","null","null","null","null","null","","180","200","260","200","36000","52000","[1,3]","","",""
"","canvas-keyboard-response","76","108430","0.0-6.0-0.10","555","","","","","pre trial waiting period","null","null","","","catch","l","sw","sh","200","286","204","200","191","219","trueblood","null","null","null","null","null","null","null","null","null","null","null","","180","200","260","200","36000","52000","[1,3]","403.1470058367859","476.554634667315","452.0349048626199"
"","canvas-keyboard-response","77","108450","0.0-6.0-1.10","555","","","","","clear_screen","null","null","","","catch","l","sw","sh","200","286","204","200","191","219","trueblood","null","null","null","null","null","null","null","null","null","null","null","","180","200","260","200","36000","52000","[1,3]","403.1470058367859","476.554634667315","452.0349048626199"
"","canvas-keyboard-response","78","108959","0.0-6.0-2.10","555","","","","","rectangles no change","null","null","","","catch","l","sw","sh","200","286","204","200","191","219","trueblood","null","null","null","null","null","null","null","null","null","null","null","","180","200","260","200","36000","52000","[1,3]","403.1470058367859","476.554634667315","452.0349048626199"
"","canvas-keyboard-response","79","110292","0.0-6.0-3.10","555","","","","","rectangles with change","null","null","","","catch","l","sw","sh","200","286","204","200","191","219","trueblood","null","null","null","null","null","null","null","null","null","null","null","","180","200","260","200","36000","52000","[1,3]","403.1470058367859","476.554634667315","452.0349048626199"
"","canvas-keyboard-response","80","110309","0.0-6.0-4.10","555","","","","","clear_screen","null","null","","","catch","l","sw","sh","200","286","204","200","191","219","trueblood","null","null","null","null","null","null","null","null","null","null","null","","180","200","260","200","36000","52000","[1,3]","403.1470058367859","476.554634667315","452.0349048626199"
"","canvas-keyboard-response","81","110986","0.0-6.0-5.10","555","","","","","make choice","673","1","","","catch","l","sw","sh","200","286","204","200","191","219","trueblood","null","null","null","null","null","null","null","null","null","null","null","","180","200","260","200","36000","52000","[1,3]","","",""
"","canvas-keyboard-response","82","111000","0.0-6.0-6.10","555","","","","","clear_screen","null","null","","","catch","l","sw","sh","200","286","204","200","191","219","trueblood","null","null","null","null","null","null","null","null","null","null","null","","180","200","260","200","36000","52000","[1,3]","","",""
"","canvas-keyboard-response","83","111201","0.0-6.0-0.11","555","","","","","pre trial waiting period","null","null","","","critical","t","c","d","164","240","240","164","158.0083","227.1683","spektor","0.09","h","164","240","240","164","158.0083","227.1683","39360","39360","35894.4834","tc","null","null","null","null","null","null","[1,2]","474.20320067476104","151.15835067178526","479.2420049481664"
"","canvas-keyboard-response","84","111220","0.0-6.0-1.11","555","","","","","clear_screen","null","null","","","critical","t","c","d","164","240","240","164","158.0083","227.1683","spektor","0.09","h","164","240","240","164","158.0083","227.1683","39360","39360","35894.4834","tc","null","null","null","null","null","null","[1,2]","474.20320067476104","151.15835067178526","479.2420049481664"
"","canvas-keyboard-response","85","111730","0.0-6.0-2.11","555","","","","","rectangles no change","null","null","","","critical","t","c","d","164","240","240","164","158.0083","227.1683","spektor","0.09","h","164","240","240","164","158.0083","227.1683","39360","39360","35894.4834","tc","null","null","null","null","null","null","[1,2]","474.20320067476104","151.15835067178526","479.2420049481664"
"","canvas-keyboard-response","86","113068","0.0-6.0-3.11","555","","","","","rectangles with change","null","null","","","critical","t","c","d","164","240","240","164","158.0083","227.1683","spektor","0.09","h","164","240","240","164","158.0083","227.1683","39360","39360","35894.4834","tc","null","null","null","null","null","null","[1,2]","474.20320067476104","151.15835067178526","479.2420049481664"
"","canvas-keyboard-response","87","113090","0.0-6.0-4.11","555","","","","","clear_screen","null","null","","","critical","t","c","d","164","240","240","164","158.0083","227.1683","spektor","0.09","h","164","240","240","164","158.0083","227.1683","39360","39360","35894.4834","tc","null","null","null","null","null","null","[1,2]","474.20320067476104","151.15835067178526","479.2420049481664"
"","canvas-keyboard-response","88","113404","0.0-6.0-5.11","555","","","","","make choice","308","2","","","critical","t","c","d","164","240","240","164","158.0083","227.1683","spektor","0.09","h","164","240","240","164","158.0083","227.1683","39360","39360","35894.4834","tc","null","null","null","null","null","null","[1,2]","","",""
"","canvas-keyboard-response","89","113424","0.0-6.0-6.11","555","","","","","clear_screen","null","null","","","critical","t","c","d","164","240","240","164","158.0083","227.1683","spektor","0.09","h","164","240","240","164","158.0083","227.1683","39360","39360","35894.4834","tc","null","null","null","null","null","null","[1,2]","","",""
"","canvas-keyboard-response","90","113626","0.0-6.0-0.12","555","","","","","pre trial waiting period","null","null","","","critical","t","c","d","164","240","240","164","154.6796","220.0396","spektor","0.14","h","164","240","240","164","154.6796","220.0396","39360","39360","34035.6388","td","null","null","null","null","null","null","[1,3]","472.5910190716042","189.53027598876474","478.4426771544613"
"","canvas-keyboard-response","91","113644","0.0-6.0-1.12","555","","","","","clear_screen","null","null","","","critical","t","c","d","164","240","240","164","154.6796","220.0396","spektor","0.14","h","164","240","240","164","154.6796","220.0396","39360","39360","34035.6388","td","null","null","null","null","null","null","[1,3]","472.5910190716042","189.53027598876474","478.4426771544613"
"","canvas-keyboard-response","92","114156","0.0-6.0-2.12","555","","","","","rectangles no change","null","null","","","critical","t","c","d","164","240","240","164","154.6796","220.0396","spektor","0.14","h","164","240","240","164","154.6796","220.0396","39360","39360","34035.6388","td","null","null","null","null","null","null","[1,3]","472.5910190716042","189.53027598876474","478.4426771544613"
"","canvas-keyboard-response","93","115492","0.0-6.0-3.12","555","","","","","rectangles with change","null","null","","","critical","t","c","d","164","240","240","164","154.6796","220.0396","spektor","0.14","h","164","240","240","164","154.6796","220.0396","39360","39360","34035.6388","td","null","null","null","null","null","null","[1,3]","472.5910190716042","189.53027598876474","478.4426771544613"
"","canvas-keyboard-response","94","115511","0.0-6.0-4.12","555","","","","","clear_screen","null","null","","","critical","t","c","d","164","240","240","164","154.6796","220.0396","spektor","0.14","h","164","240","240","164","154.6796","220.0396","39360","39360","34035.6388","td","null","null","null","null","null","null","[1,3]","472.5910190716042","189.53027598876474","478.4426771544613"
"","canvas-keyboard-response","95","115604","0.0-6.0-5.12","555","","","","","make choice","89","1","","","critical","t","c","d","164","240","240","164","154.6796","220.0396","spektor","0.14","h","164","240","240","164","154.6796","220.0396","39360","39360","34035.6388","td","null","null","null","null","null","null","[1,3]","","",""
"","canvas-keyboard-response","96","115622","0.0-6.0-6.12","555","","","","","clear_screen","null","null","","","critical","t","c","d","164","240","240","164","154.6796","220.0396","spektor","0.14","h","164","240","240","164","154.6796","220.0396","39360","39360","34035.6388","td","null","null","null","null","null","null","[1,3]","","",""
"","canvas-keyboard-response","97","115823","0.0-6.0-0.13","555","","","","","pre trial waiting period","null","null","","","critical","c","t","d","240","164","164","240","164","240","spektor","0","h","164","240","240","164","164","240","39360","39360","39360","tc","null","null","null","null","null","null","[2,1]","513.2392974085326","97.59401730065485","469.6068010626591"
"","canvas-keyboard-response","98","115843","0.0-6.0-1.13","555","","","","","clear_screen","null","null","","","critical","c","t","d","240","164","164","240","164","240","spektor","0","h","164","240","240","164","164","240","39360","39360","39360","tc","null","null","null","null","null","null","[2,1]","513.2392974085326","97.59401730065485","469.6068010626591"
"","canvas-keyboard-response","99","116350","0.0-6.0-2.13","555","","","","","rectangles no change","null","null","","","critical","c","t","d","240","164","164","240","164","240","spektor","0","h","164","240","240","164","164","240","39360","39360","39360","tc","null","null","null","null","null","null","[2,1]","513.2392974085326","97.59401730065485","469.6068010626591"
"","canvas-keyboard-response","100","117689","0.0-6.0-3.13","555","","","","","rectangles with change","null","null","","","critical","c","t","d","240","164","164","240","164","240","spektor","0","h","164","240","240","164","164","240","39360","39360","39360","tc","null","null","null","null","null","null","[2,1]","513.2392974085326","97.59401730065485","469.6068010626591"
"","canvas-keyboard-response","101","117712","0.0-6.0-4.13","555","","","","","clear_screen","null","null","","","critical","c","t","d","240","164","164","240","164","240","spektor","0","h","164","240","240","164","164","240","39360","39360","39360","tc","null","null","null","null","null","null","[2,1]","513.2392974085326","97.59401730065485","469.6068010626591"
"","canvas-keyboard-response","102","118035","0.0-6.0-5.13","555","","","","","make choice","320","1","","","critical","c","t","d","240","164","164","240","164","240","spektor","0","h","164","240","240","164","164","240","39360","39360","39360","tc","null","null","null","null","null","null","[2,1]","","",""
"","canvas-keyboard-response","103","118053","0.0-6.0-6.13","555","","","","","clear_screen","null","null","","","critical","c","t","d","240","164","164","240","164","240","spektor","0","h","164","240","240","164","164","240","39360","39360","39360","tc","null","null","null","null","null","null","[2,1]","","",""
"","canvas-keyboard-response","104","118255","0.0-6.0-0.14","555","","","","","pre trial waiting period","null","null","","","critical","c","d","t","240","164","160.6713","232.8713","164","240","spektor","0.05","h","164","240","240","164","160.6713","232.8713","39360","39360","37415.7294","td","null","null","null","null","null","null","[3,2]","530.1084177828153","145.52953261707307","478.9976833032065"
"","canvas-keyboard-response","105","118275","0.0-6.0-1.14","555","","","","","clear_screen","null","null","","","critical","c","d","t","240","164","160.6713","232.8713","164","240","spektor","0.05","h","164","240","240","164","160.6713","232.8713","39360","39360","37415.7294","td","null","null","null","null","null","null","[3,2]","530.1084177828153","145.52953261707307","478.9976833032065"
"","canvas-keyboard-response","106","118782","0.0-6.0-2.14","555","","","","","rectangles no change","null","null","","","critical","c","d","t","240","164","160.6713","232.8713","164","240","spektor","0.05","h","164","240","240","164","160.6713","232.8713","39360","39360","37415.7294","td","null","null","null","null","null","null","[3,2]","530.1084177828153","145.52953261707307","478.9976833032065"
"","canvas-keyboard-response","107","120121","0.0-6.0-3.14","555","","","","","rectangles with change","null","null","","","critical","c","d","t","240","164","160.6713","232.8713","164","240","spektor","0.05","h","164","240","240","164","160.6713","232.8713","39360","39360","37415.7294","td","null","null","null","null","null","null","[3,2]","530.1084177828153","145.52953261707307","478.9976833032065"
"","canvas-keyboard-response","108","120141","0.0-6.0-4.14","555","","","","","clear_screen","null","null","","","critical","c","d","t","240","164","160.6713","232.8713","164","240","spektor","0.05","h","164","240","240","164","160.6713","232.8713","39360","39360","37415.7294","td","null","null","null","null","null","null","[3,2]","530.1084177828153","145.52953261707307","478.9976833032065"
"","canvas-keyboard-response","109","120555","0.0-6.0-5.14","555","","","","","make choice","408","3","","","critical","c","d","t","240","164","160.6713","232.8713","164","240","spektor","0.05","h","164","240","240","164","160.6713","232.8713","39360","39360","37415.7294","td","null","null","null","null","null","null","[3,2]","","",""
"","canvas-keyboard-response","110","120573","0.0-6.0-6.14","555","","","","","clear_screen","null","null","","","critical","c","d","t","240","164","160.6713","232.8713","164","240","spektor","0.05","h","164","240","240","164","160.6713","232.8713","39360","39360","37415.7294","td","null","null","null","null","null","null","[3,2]","","",""
"","canvas-keyboard-response","111","120774","0.0-6.0-0.15","555","","","","","pre trial waiting period","null","null","","","critical","t","d","c","240","164","232.8713","160.6713","164","240","trueblood","0.05","w","240","164","164","240","232.8713","160.6713","39360","39360","37415.7294","td","null","null","null","null","null","null","[1,2]","477.5686367706249","487.3509878368587","454.84993679327573"
"","canvas-keyboard-response","112","120795","0.0-6.0-1.15","555","","","","","clear_screen","null","null","","","critical","t","d","c","240","164","232.8713","160.6713","164","240","trueblood","0.05","w","240","164","164","240","232.8713","160.6713","39360","39360","37415.7294","td","null","null","null","null","null","null","[1,2]","477.5686367706249","487.3509878368587","454.84993679327573"
"","canvas-keyboard-response","113","121301","0.0-6.0-2.15","555","","","","","rectangles no change","null","null","","","critical","t","d","c","240","164","232.8713","160.6713","164","240","trueblood","0.05","w","240","164","164","240","232.8713","160.6713","39360","39360","37415.7294","td","null","null","null","null","null","null","[1,2]","477.5686367706249","487.3509878368587","454.84993679327573"
"","canvas-keyboard-response","114","122641","0.0-6.0-3.15","555","","","","","rectangles with change","null","null","","","critical","t","d","c","240","164","232.8713","160.6713","164","240","trueblood","0.05","w","240","164","164","240","232.8713","160.6713","39360","39360","37415.7294","td","null","null","null","null","null","null","[1,2]","477.5686367706249","487.3509878368587","454.84993679327573"
"","canvas-keyboard-response","115","122662","0.0-6.0-4.15","555","","","","","clear_screen","null","null","","","critical","t","d","c","240","164","232.8713","160.6713","164","240","trueblood","0.05","w","240","164","164","240","232.8713","160.6713","39360","39360","37415.7294","td","null","null","null","null","null","null","[1,2]","477.5686367706249","487.3509878368587","454.84993679327573"
"","canvas-keyboard-response","116","122771","0.0-6.0-5.15","555","","","","","make choice","102","2","","","critical","t","d","c","240","164","232.8713","160.6713","164","240","trueblood","0.05","w","240","164","164","240","232.8713","160.6713","39360","39360","37415.7294","td","null","null","null","null","null","null","[1,2]","","",""
"","canvas-keyboard-response","117","122787","0.0-6.0-6.15","555","","","","","clear_screen","null","null","","","critical","t","d","c","240","164","232.8713","160.6713","164","240","trueblood","0.05","w","240","164","164","240","232.8713","160.6713","39360","39360","37415.7294","td","null","null","null","null","null","null","[1,2]","","",""
"","canvas-keyboard-response","118","122987","0.0-6.0-0.16","555","","","","","pre trial waiting period","null","null","","","critical","d","t","c","240","164","240","164","164","240","spektor","0","w","240","164","164","240","240","164","39360","39360","39360","td","null","null","null","null","null","null","[2,1]","518.9374262892727","194.76187196151432","468.89087041037595"
"","canvas-keyboard-response","119","123002","0.0-6.0-1.16","555","","","","","clear_screen","null","null","","","critical","d","t","c","240","164","240","164","164","240","spektor","0","w","240","164","164","240","240","164","39360","39360","39360","td","null","null","null","null","null","null","[2,1]","518.9374262892727","194.76187196151432","468.89087041037595"
"","canvas-keyboard-response","120","123507","0.0-6.0-2.16","555","","","","","rectangles no change","null","null","","","critical","d","t","c","240","164","240","164","164","240","spektor","0","w","240","164","164","240","240","164","39360","39360","39360","td","null","null","null","null","null","null","[2,1]","518.9374262892727","194.76187196151432","468.89087041037595"
"","canvas-keyboard-response","121","124844","0.0-6.0-3.16","555","","","","","rectangles with change","null","null","","","critical","d","t","c","240","164","240","164","164","240","spektor","0","w","240","164","164","240","240","164","39360","39360","39360","td","null","null","null","null","null","null","[2,1]","518.9374262892727","194.76187196151432","468.89087041037595"
"","canvas-keyboard-response","122","124864","0.0-6.0-4.16","555","","","","","clear_screen","null","null","","","critical","d","t","c","240","164","240","164","164","240","spektor","0","w","240","164","164","240","240","164","39360","39360","39360","td","null","null","null","null","null","null","[2,1]","518.9374262892727","194.76187196151432","468.89087041037595"
"","canvas-keyboard-response","123","125052","0.0-6.0-5.16","555","","","","","make choice","184","1","","","critical","d","t","c","240","164","240","164","164","240","spektor","0","w","240","164","164","240","240","164","39360","39360","39360","td","null","null","null","null","null","null","[2,1]","","",""
"","canvas-keyboard-response","124","125073","0.0-6.0-6.16","555","","","","","clear_screen","null","null","","","critical","d","t","c","240","164","240","164","164","240","spektor","0","w","240","164","164","240","240","164","39360","39360","39360","td","null","null","null","null","null","null","[2,1]","","",""
"","canvas-keyboard-response","125","125275","0.0-6.0-0.17","555","","","","","pre trial waiting period","null","null","","","critical","t","c","d","240","164","164","240","227.1683","158.0083","spektor","0.09","w","240","164","164","240","227.1683","158.0083","39360","39360","35894.4834","dc","null","null","null","null","null","null","[3,2]","526.0708288974329","126.38309083550561","496.7503159244138"
"","canvas-keyboard-response","126","125293","0.0-6.0-1.17","555","","","","","clear_screen","null","null","","","critical","t","c","d","240","164","164","240","227.1683","158.0083","spektor","0.09","w","240","164","164","240","227.1683","158.0083","39360","39360","35894.4834","dc","null","null","null","null","null","null","[3,2]","526.0708288974329","126.38309083550561","496.7503159244138"
"","canvas-keyboard-response","127","125801","0.0-6.0-2.17","555","","","","","rectangles no change","null","null","","","critical","t","c","d","240","164","164","240","227.1683","158.0083","spektor","0.09","w","240","164","164","240","227.1683","158.0083","39360","39360","35894.4834","dc","null","null","null","null","null","null","[3,2]","526.0708288974329","126.38309083550561","496.7503159244138"
"","canvas-keyboard-response","128","127140","0.0-6.0-3.17","555","","","","","rectangles with change","null","null","","","critical","t","c","d","240","164","164","240","227.1683","158.0083","spektor","0.09","w","240","164","164","240","227.1683","158.0083","39360","39360","35894.4834","dc","null","null","null","null","null","null","[3,2]","526.0708288974329","126.38309083550561","496.7503159244138"
"","canvas-keyboard-response","129","127163","0.0-6.0-4.17","555","","","","","clear_screen","null","null","","","critical","t","c","d","240","164","164","240","227.1683","158.0083","spektor","0.09","w","240","164","164","240","227.1683","158.0083","39360","39360","35894.4834","dc","null","null","null","null","null","null","[3,2]","526.0708288974329","126.38309083550561","496.7503159244138"
"","canvas-keyboard-response","130","128804","0.0-6.0-5.17","555","","","","","make choice","1635","3","","","critical","t","c","d","240","164","164","240","227.1683","158.0083","spektor","0.09","w","240","164","164","240","227.1683","158.0083","39360","39360","35894.4834","dc","null","null","null","null","null","null","[3,2]","","",""
"","canvas-keyboard-response","131","128825","0.0-6.0-6.17","555","","","","","clear_screen","null","null","","","critical","t","c","d","240","164","164","240","227.1683","158.0083","spektor","0.09","w","240","164","164","240","227.1683","158.0083","39360","39360","35894.4834","dc","null","null","null","null","null","null","[3,2]","","",""
"","canvas-keyboard-response","132","129026","0.0-6.0-0.18","555","","","","","pre trial waiting period","null","null","","","critical","t","d","c","164","240","160.6713","232.8713","240","164","spektor","0.05","h","164","240","240","164","160.6713","232.8713","39360","39360","37415.7294","dc","null","null","null","null","null","null","[2,3]","465.23401735949574","133.37988221577982","499.3064984000801"
"","canvas-keyboard-response","133","129043","0.0-6.0-1.18","555","","","","","clear_screen","null","null","","","critical","t","d","c","164","240","160.6713","232.8713","240","164","spektor","0.05","h","164","240","240","164","160.6713","232.8713","39360","39360","37415.7294","dc","null","null","null","null","null","null","[2,3]","465.23401735949574","133.37988221577982","499.3064984000801"
"","canvas-keyboard-response","134","129553","0.0-6.0-2.18","555","","","","","rectangles no change","null","null","","","critical","t","d","c","164","240","160.6713","232.8713","240","164","spektor","0.05","h","164","240","240","164","160.6713","232.8713","39360","39360","37415.7294","dc","null","null","null","null","null","null","[2,3]","465.23401735949574","133.37988221577982","499.3064984000801"
"","canvas-keyboard-response","135","130893","0.0-6.0-3.18","555","","","","","rectangles with change","null","null","","","critical","t","d","c","164","240","160.6713","232.8713","240","164","spektor","0.05","h","164","240","240","164","160.6713","232.8713","39360","39360","37415.7294","dc","null","null","null","null","null","null","[2,3]","465.23401735949574","133.37988221577982","499.3064984000801"
"","canvas-keyboard-response","136","130915","0.0-6.0-4.18","555","","","","","clear_screen","null","null","","","critical","t","d","c","164","240","160.6713","232.8713","240","164","spektor","0.05","h","164","240","240","164","160.6713","232.8713","39360","39360","37415.7294","dc","null","null","null","null","null","null","[2,3]","465.23401735949574","133.37988221577982","499.3064984000801"
"","canvas-keyboard-response","137","131260","0.0-6.0-5.18","555","","","","","make choice","339","3","","","critical","t","d","c","164","240","160.6713","232.8713","240","164","spektor","0.05","h","164","240","240","164","160.6713","232.8713","39360","39360","37415.7294","dc","null","null","null","null","null","null","[2,3]","","",""
"","canvas-keyboard-response","138","131279","0.0-6.0-6.18","555","","","","","clear_screen","null","null","","","critical","t","d","c","164","240","160.6713","232.8713","240","164","spektor","0.05","h","164","240","240","164","160.6713","232.8713","39360","39360","37415.7294","dc","null","null","null","null","null","null","[2,3]","","",""
"","canvas-keyboard-response","139","131479","0.0-6.0-0.19","555","","","","","pre trial waiting period","null","null","","","catch","l","sh","sw","163","268","218","178","175","231","trueblood","null","null","null","null","null","null","null","null","null","null","null","","180","200","260","200","36000","52000","[1,2]","448.25537789775524","482.0379147499664","425.5044297783377"
"","canvas-keyboard-response","140","131497","0.0-6.0-1.19","555","","","","","clear_screen","null","null","","","catch","l","sh","sw","163","268","218","178","175","231","trueblood","null","null","null","null","null","null","null","null","null","null","null","","180","200","260","200","36000","52000","[1,2]","448.25537789775524","482.0379147499664","425.5044297783377"
"","canvas-keyboard-response","141","132006","0.0-6.0-2.19","555","","","","","rectangles no change","null","null","","","catch","l","sh","sw","163","268","218","178","175","231","trueblood","null","null","null","null","null","null","null","null","null","null","null","","180","200","260","200","36000","52000","[1,2]","448.25537789775524","482.0379147499664","425.5044297783377"
"","canvas-keyboard-response","142","133336","0.0-6.0-3.19","555","","","","","rectangles with change","null","null","","","catch","l","sh","sw","163","268","218","178","175","231","trueblood","null","null","null","null","null","null","null","null","null","null","null","","180","200","260","200","36000","52000","[1,2]","448.25537789775524","482.0379147499664","425.5044297783377"
"","canvas-keyboard-response","143","133357","0.0-6.0-4.19","555","","","","","clear_screen","null","null","","","catch","l","sh","sw","163","268","218","178","175","231","trueblood","null","null","null","null","null","null","null","null","null","null","null","","180","200","260","200","36000","52000","[1,2]","448.25537789775524","482.0379147499664","425.5044297783377"
"","canvas-keyboard-response","144","133893","0.0-6.0-5.19","555","","","","","make choice","528","1","","","catch","l","sh","sw","163","268","218","178","175","231","trueblood","null","null","null","null","null","null","null","null","null","null","null","","180","200","260","200","36000","52000","[1,2]","","",""
"","canvas-keyboard-response","145","133909","0.0-6.0-6.19","555","","","","","clear_screen","null","null","","","catch","l","sh","sw","163","268","218","178","175","231","trueblood","null","null","null","null","null","null","null","null","null","null","null","","180","200","260","200","36000","52000","[1,2]","","",""
"","canvas-keyboard-response","146","134110","0.0-6.0-0.20","555","","","","","pre trial waiting period","null","null","","","critical","t","c","d","240","164","164","240","237.1485","162.6685","trueblood","0.02","w","240","164","164","240","237.1485","162.6685","39360","39360","38576.5967","dc","null","null","null","null","null","null","[3,2]","499.70738204901903","444.2850703200998","481.2347557641017"
"","canvas-keyboard-response","147","134132","0.0-6.0-1.20","555","","","","","clear_screen","null","null","","","critical","t","c","d","240","164","164","240","237.1485","162.6685","trueblood","0.02","w","240","164","164","240","237.1485","162.6685","39360","39360","38576.5967","dc","null","null","null","null","null","null","[3,2]","499.70738204901903","444.2850703200998","481.2347557641017"
"","canvas-keyboard-response","148","134637","0.0-6.0-2.20","555","","","","","rectangles no change","null","null","","","critical","t","c","d","240","164","164","240","237.1485","162.6685","trueblood","0.02","w","240","164","164","240","237.1485","162.6685","39360","39360","38576.5967","dc","null","null","null","null","null","null","[3,2]","499.70738204901903","444.2850703200998","481.2347557641017"
"","canvas-keyboard-response","149","135973","0.0-6.0-3.20","555","","","","","rectangles with change","null","null","","","critical","t","c","d","240","164","164","240","237.1485","162.6685","trueblood","0.02","w","240","164","164","240","237.1485","162.6685","39360","39360","38576.5967","dc","null","null","null","null","null","null","[3,2]","499.70738204901903","444.2850703200998","481.2347557641017"
"","canvas-keyboard-response","150","135990","0.0-6.0-4.20","555","","","","","clear_screen","null","null","","","critical","t","c","d","240","164","164","240","237.1485","162.6685","trueblood","0.02","w","240","164","164","240","237.1485","162.6685","39360","39360","38576.5967","dc","null","null","null","null","null","null","[3,2]","499.70738204901903","444.2850703200998","481.2347557641017"
"","canvas-keyboard-response","151","136404","0.0-6.0-5.20","555","","","","","make choice","408","2","","","critical","t","c","d","240","164","164","240","237.1485","162.6685","trueblood","0.02","w","240","164","164","240","237.1485","162.6685","39360","39360","38576.5967","dc","null","null","null","null","null","null","[3,2]","","",""
"","canvas-keyboard-response","152","136425","0.0-6.0-6.20","555","","","","","clear_screen","null","null","","","critical","t","c","d","240","164","164","240","237.1485","162.6685","trueblood","0.02","w","240","164","164","240","237.1485","162.6685","39360","39360","38576.5967","dc","null","null","null","null","null","null","[3,2]","","",""
"","canvas-keyboard-response","153","136625","0.0-6.0-0.21","555","","","","","pre trial waiting period","null","null","","","catch","sh","sw","l","213","200","157","166","237","248","trueblood","null","null","null","null","null","null","null","null","null","null","null","","180","200","260","200","36000","52000","[1,3]","445.61470381284494","485.68138783468373","414.1263919955137"
"","canvas-keyboard-response","154","136645","0.0-6.0-1.21","555","","","","","clear_screen","null","null","","","catch","sh","sw","l","213","200","157","166","237","248","trueblood","null","null","null","null","null","null","null","null","null","null","null","","180","200","260","200","36000","52000","[1,3]","445.61470381284494","485.68138783468373","414.1263919955137"
"","canvas-keyboard-response","155","137153","0.0-6.0-2.21","555","","","","","rectangles no change","null","null","","","catch","sh","sw","l","213","200","157","166","237","248","trueblood","null","null","null","null","null","null","null","null","null","null","null","","180","200","260","200","36000","52000","[1,3]","445.61470381284494","485.68138783468373","414.1263919955137"
"","canvas-keyboard-response","156","138487","0.0-6.0-3.21","555","","","","","rectangles with change","null","null","","","catch","sh","sw","l","213","200","157","166","237","248","trueblood","null","null","null","null","null","null","null","null","null","null","null","","180","200","260","200","36000","52000","[1,3]","445.61470381284494","485.68138783468373","414.1263919955137"
"","canvas-keyboard-response","157","138506","0.0-6.0-4.21","555","","","","","clear_screen","null","null","","","catch","sh","sw","l","213","200","157","166","237","248","trueblood","null","null","null","null","null","null","null","null","null","null","null","","180","200","260","200","36000","52000","[1,3]","445.61470381284494","485.68138783468373","414.1263919955137"
"","canvas-keyboard-response","158","138748","0.0-6.0-5.21","555","","","","","make choice","236","3","","","catch","sh","sw","l","213","200","157","166","237","248","trueblood","null","null","null","null","null","null","null","null","null","null","null","","180","200","260","200","36000","52000","[1,3]","","",""
"","canvas-keyboard-response","159","138765","0.0-6.0-6.21","555","","","","","clear_screen","null","null","","","catch","sh","sw","l","213","200","157","166","237","248","trueblood","null","null","null","null","null","null","null","null","null","null","null","","180","200","260","200","36000","52000","[1,3]","","",""
"","canvas-keyboard-response","160","138967","0.0-6.0-0.22","555","","","","","pre trial waiting period","null","null","","","critical","c","t","d","240","164","164","240","162.6685","237.1485","spektor","0.02","h","164","240","240","164","162.6685","237.1485","39360","39360","38576.5967","td","null","null","null","null","null","null","[2,3]","507.080070006989","110.13076478979796","503.6868507145972"
"","canvas-keyboard-response","161","138987","0.0-6.0-1.22","555","","","","","clear_screen","null","null","","","critical","c","t","d","240","164","164","240","162.6685","237.1485","spektor","0.02","h","164","240","240","164","162.6685","237.1485","39360","39360","38576.5967","td","null","null","null","null","null","null","[2,3]","507.080070006989","110.13076478979796","503.6868507145972"
"","canvas-keyboard-response","162","139491","0.0-6.0-2.22","555","","","","","rectangles no change","null","null","","","critical","c","t","d","240","164","164","240","162.6685","237.1485","spektor","0.02","h","164","240","240","164","162.6685","237.1485","39360","39360","38576.5967","td","null","null","null","null","null","null","[2,3]","507.080070006989","110.13076478979796","503.6868507145972"
"","canvas-keyboard-response","163","140826","0.0-6.0-3.22","555","","","","","rectangles with change","null","null","","","critical","c","t","d","240","164","164","240","162.6685","237.1485","spektor","0.02","h","164","240","240","164","162.6685","237.1485","39360","39360","38576.5967","td","null","null","null","null","null","null","[2,3]","507.080070006989","110.13076478979796","503.6868507145972"
"","canvas-keyboard-response","164","140849","0.0-6.0-4.22","555","","","","","clear_screen","null","null","","","critical","c","t","d","240","164","164","240","162.6685","237.1485","spektor","0.02","h","164","240","240","164","162.6685","237.1485","39360","39360","38576.5967","td","null","null","null","null","null","null","[2,3]","507.080070006989","110.13076478979796","503.6868507145972"
"","canvas-keyboard-response","165","142644","0.0-6.0-5.22","555","","","","","make choice","1787","2","","","critical","c","t","d","240","164","164","240","162.6685","237.1485","spektor","0.02","h","164","240","240","164","162.6685","237.1485","39360","39360","38576.5967","td","null","null","null","null","null","null","[2,3]","","",""
"","canvas-keyboard-response","166","142661","0.0-6.0-6.22","555","","","","","clear_screen","null","null","","","critical","c","t","d","240","164","164","240","162.6685","237.1485","spektor","0.02","h","164","240","240","164","162.6685","237.1485","39360","39360","38576.5967","td","null","null","null","null","null","null","[2,3]","","",""
"","canvas-keyboard-response","167","142863","0.0-6.0-0.23","555","","","","","pre trial waiting period","null","null","","","catch","l","sw","sh","279","210","142","166","198","162","spektor","null","null","null","null","null","null","null","null","null","null","null","","180","200","260","200","36000","52000","[1,2]","470.2566810408754","178.2624171667917","527.8157502733983"
"","canvas-keyboard-response","168","142884","0.0-6.0-1.23","555","","","","","clear_screen","null","null","","","catch","l","sw","sh","279","210","142","166","198","162","spektor","null","null","null","null","null","null","null","null","null","null","null","","180","200","260","200","36000","52000","[1,2]","470.2566810408754","178.2624171667917","527.8157502733983"
"","canvas-keyboard-response","169","143392","0.0-6.0-2.23","555","","","","","rectangles no change","null","null","","","catch","l","sw","sh","279","210","142","166","198","162","spektor","null","null","null","null","null","null","null","null","null","null","null","","180","200","260","200","36000","52000","[1,2]","470.2566810408754","178.2624171667917","527.8157502733983"
"","canvas-keyboard-response","170","144730","0.0-6.0-3.23","555","","","","","rectangles with change","null","null","","","catch","l","sw","sh","279","210","142","166","198","162","spektor","null","null","null","null","null","null","null","null","null","null","null","","180","200","260","200","36000","52000","[1,2]","470.2566810408754","178.2624171667917","527.8157502733983"
"","canvas-keyboard-response","171","144750","0.0-6.0-4.23","555","","","","","clear_screen","null","null","","","catch","l","sw","sh","279","210","142","166","198","162","spektor","null","null","null","null","null","null","null","null","null","null","null","","180","200","260","200","36000","52000","[1,2]","470.2566810408754","178.2624171667917","527.8157502733983"
"","canvas-keyboard-response","172","145172","0.0-6.0-5.23","555","","","","","make choice","415","1","","","catch","l","sw","sh","279","210","142","166","198","162","spektor","null","null","null","null","null","null","null","null","null","null","null","","180","200","260","200","36000","52000","[1,2]","","",""
"","canvas-keyboard-response","173","145190","0.0-6.0-6.23","555","","","","","clear_screen","null","null","","","catch","l","sw","sh","279","210","142","166","198","162","spektor","null","null","null","null","null","null","null","null","null","null","null","","180","200","260","200","36000","52000","[1,2]","","",""
"","canvas-keyboard-response","174","145392","0.0-6.0-0.24","555","","","","","pre trial waiting period","null","null","","","critical","t","c","d","240","164","164","240","232.8713","160.6713","trueblood","0.05","w","240","164","164","240","232.8713","160.6713","39360","39360","37415.7294","dc","null","null","null","null","null","null","[3,2]","513.2423740659892","435.03808891898984","473.45640305813845"
"","canvas-keyboard-response","175","145417","0.0-6.0-1.24","555","","","","","clear_screen","null","null","","","critical","t","c","d","240","164","164","240","232.8713","160.6713","trueblood","0.05","w","240","164","164","240","232.8713","160.6713","39360","39360","37415.7294","dc","null","null","null","null","null","null","[3,2]","513.2423740659892","435.03808891898984","473.45640305813845"
"","canvas-keyboard-response","176","145924","0.0-6.0-2.24","555","","","","","rectangles no change","null","null","","","critical","t","c","d","240","164","164","240","232.8713","160.6713","trueblood","0.05","w","240","164","164","240","232.8713","160.6713","39360","39360","37415.7294","dc","null","null","null","null","null","null","[3,2]","513.2423740659892","435.03808891898984","473.45640305813845"
"","canvas-keyboard-response","177","147261","0.0-6.0-3.24","555","","","","","rectangles with change","null","null","","","critical","t","c","d","240","164","164","240","232.8713","160.6713","trueblood","0.05","w","240","164","164","240","232.8713","160.6713","39360","39360","37415.7294","dc","null","null","null","null","null","null","[3,2]","513.2423740659892","435.03808891898984","473.45640305813845"
"","canvas-keyboard-response","178","147279","0.0-6.0-4.24","555","","","","","clear_screen","null","null","","","critical","t","c","d","240","164","164","240","232.8713","160.6713","trueblood","0.05","w","240","164","164","240","232.8713","160.6713","39360","39360","37415.7294","dc","null","null","null","null","null","null","[3,2]","513.2423740659892","435.03808891898984","473.45640305813845"
"","canvas-keyboard-response","179","147604","0.0-6.0-5.24","555","","","","","make choice","317","3","","","critical","t","c","d","240","164","164","240","232.8713","160.6713","trueblood","0.05","w","240","164","164","240","232.8713","160.6713","39360","39360","37415.7294","dc","null","null","null","null","null","null","[3,2]","","",""
"","canvas-keyboard-response","180","147623","0.0-6.0-6.24","555","","","","","clear_screen","null","null","","","critical","t","c","d","240","164","164","240","232.8713","160.6713","trueblood","0.05","w","240","164","164","240","232.8713","160.6713","39360","39360","37415.7294","dc","null","null","null","null","null","null","[3,2]","","",""
"","canvas-keyboard-response","181","147825","0.0-6.0-0.25","555","","","","","pre trial waiting period","null","null","","","critical","d","t","c","164","240","164","240","240","164","spektor","0","h","164","240","240","164","164","240","39360","39360","39360","dc","null","null","null","null","null","null","[1,3]","502.3499611605664","134.4904490239649","520.7149109382908"
"","canvas-keyboard-response","182","147847","0.0-6.0-1.25","555","","","","","clear_screen","null","null","","","critical","d","t","c","164","240","164","240","240","164","spektor","0","h","164","240","240","164","164","240","39360","39360","39360","dc","null","null","null","null","null","null","[1,3]","502.3499611605664","134.4904490239649","520.7149109382908"
"","canvas-keyboard-response","183","148356","0.0-6.0-2.25","555","","","","","rectangles no change","null","null","","","critical","d","t","c","164","240","164","240","240","164","spektor","0","h","164","240","240","164","164","240","39360","39360","39360","dc","null","null","null","null","null","null","[1,3]","502.3499611605664","134.4904490239649","520.7149109382908"
"","canvas-keyboard-response","184","149694","0.0-6.0-3.25","555","","","","","rectangles with change","null","null","","","critical","d","t","c","164","240","164","240","240","164","spektor","0","h","164","240","240","164","164","240","39360","39360","39360","dc","null","null","null","null","null","null","[1,3]","502.3499611605664","134.4904490239649","520.7149109382908"
"","canvas-keyboard-response","185","149713","0.0-6.0-4.25","555","","","","","clear_screen","null","null","","","critical","d","t","c","164","240","164","240","240","164","spektor","0","h","164","240","240","164","164","240","39360","39360","39360","dc","null","null","null","null","null","null","[1,3]","502.3499611605664","134.4904490239649","520.7149109382908"
"","canvas-keyboard-response","186","150114","0.0-6.0-5.25","555","","","","","make choice","394","3","","","critical","d","t","c","164","240","164","240","240","164","spektor","0","h","164","240","240","164","164","240","39360","39360","39360","dc","null","null","null","null","null","null","[1,3]","","",""
"","canvas-keyboard-response","187","150130","0.0-6.0-6.25","555","","","","","clear_screen","null","null","","","critical","d","t","c","164","240","164","240","240","164","spektor","0","h","164","240","240","164","164","240","39360","39360","39360","dc","null","null","null","null","null","null","[1,3]","","",""
"","canvas-keyboard-response","188","150331","0.0-6.0-0.26","555","","","","","pre trial waiting period","null","null","","","critical","c","t","d","164","240","240","164","240","164","trueblood","0","w","240","164","164","240","240","164","39360","39360","39360","dc","null","null","null","null","null","null","[3,1]","433.4953436586061","515.5519245916919","485.41953660830694"
"","canvas-keyboard-response","189","150352","0.0-6.0-1.26","555","","","","","clear_screen","null","null","","","critical","c","t","d","164","240","240","164","240","164","trueblood","0","w","240","164","164","240","240","164","39360","39360","39360","dc","null","null","null","null","null","null","[3,1]","433.4953436586061","515.5519245916919","485.41953660830694"
"","canvas-keyboard-response","190","150859","0.0-6.0-2.26","555","","","","","rectangles no change","null","null","","","critical","c","t","d","164","240","240","164","240","164","trueblood","0","w","240","164","164","240","240","164","39360","39360","39360","dc","null","null","null","null","null","null","[3,1]","433.4953436586061","515.5519245916919","485.41953660830694"
"","canvas-keyboard-response","191","152198","0.0-6.0-3.26","555","","","","","rectangles with change","null","null","","","critical","c","t","d","164","240","240","164","240","164","trueblood","0","w","240","164","164","240","240","164","39360","39360","39360","dc","null","null","null","null","null","null","[3,1]","433.4953436586061","515.5519245916919","485.41953660830694"
"","canvas-keyboard-response","192","152220","0.0-6.0-4.26","555","","","","","clear_screen","null","null","","","critical","c","t","d","164","240","240","164","240","164","trueblood","0","w","240","164","164","240","240","164","39360","39360","39360","dc","null","null","null","null","null","null","[3,1]","433.4953436586061","515.5519245916919","485.41953660830694"
"","canvas-keyboard-response","193","153237","0.0-6.0-5.26","555","","","","","make choice","1011","3","","","critical","c","t","d","164","240","240","164","240","164","trueblood","0","w","240","164","164","240","240","164","39360","39360","39360","dc","null","null","null","null","null","null","[3,1]","","",""
"","canvas-keyboard-response","194","153256","0.0-6.0-6.26","555","","","","","clear_screen","null","null","","","critical","c","t","d","164","240","240","164","240","164","trueblood","0","w","240","164","164","240","240","164","39360","39360","39360","dc","null","null","null","null","null","null","[3,1]","","",""
"","canvas-keyboard-response","195","153458","0.0-6.0-0.27","555","","","","","pre trial waiting period","null","null","","","critical","t","d","c","240","164","240","164","164","240","spektor","0","w","240","164","164","240","240","164","39360","39360","39360","dc","null","null","null","null","null","null","[2,3]","534.2559795741208","169.80990221056018","494.315353165335"
"","canvas-keyboard-response","196","153481","0.0-6.0-1.27","555","","","","","clear_screen","null","null","","","critical","t","d","c","240","164","240","164","164","240","spektor","0","w","240","164","164","240","240","164","39360","39360","39360","dc","null","null","null","null","null","null","[2,3]","534.2559795741208","169.80990221056018","494.315353165335"
"","canvas-keyboard-response","197","153991","0.0-6.0-2.27","555","","","","","rectangles no change","null","null","","","critical","t","d","c","240","164","240","164","164","240","spektor","0","w","240","164","164","240","240","164","39360","39360","39360","dc","null","null","null","null","null","null","[2,3]","534.2559795741208","169.80990221056018","494.315353165335"
"","canvas-keyboard-response","198","155333","0.0-6.0-3.27","555","","","","","rectangles with change","null","null","","","critical","t","d","c","240","164","240","164","164","240","spektor","0","w","240","164","164","240","240","164","39360","39360","39360","dc","null","null","null","null","null","null","[2,3]","534.2559795741208","169.80990221056018","494.315353165335"
"","canvas-keyboard-response","199","155356","0.0-6.0-4.27","555","","","","","clear_screen","null","null","","","critical","t","d","c","240","164","240","164","164","240","spektor","0","w","240","164","164","240","240","164","39360","39360","39360","dc","null","null","null","null","null","null","[2,3]","534.2559795741208","169.80990221056018","494.315353165335"
"","canvas-keyboard-response","200","155708","0.0-6.0-5.27","555","","","","","make choice","346","2","","","critical","t","d","c","240","164","240","164","164","240","spektor","0","w","240","164","164","240","240","164","39360","39360","39360","dc","null","null","null","null","null","null","[2,3]","","",""
"","canvas-keyboard-response","201","155727","0.0-6.0-6.27","555","","","","","clear_screen","null","null","","","critical","t","d","c","240","164","240","164","164","240","spektor","0","w","240","164","164","240","240","164","39360","39360","39360","dc","null","null","null","null","null","null","[2,3]","","",""
"","canvas-keyboard-response","202","155928","0.0-6.0-0.28","555","","","","","pre trial waiting period","null","null","","","critical","t","d","c","240","164","240","164","164","240","spektor","0","w","240","164","164","240","240","164","39360","39360","39360","tc","null","null","null","null","null","null","[1,3]","528.0419563733151","176.96899489998017","473.3146141742364"
"","canvas-keyboard-response","203","155953","0.0-6.0-1.28","555","","","","","clear_screen","null","null","","","critical","t","d","c","240","164","240","164","164","240","spektor","0","w","240","164","164","240","240","164","39360","39360","39360","tc","null","null","null","null","null","null","[1,3]","528.0419563733151","176.96899489998017","473.3146141742364"
"","canvas-keyboard-response","204","156461","0.0-6.0-2.28","555","","","","","rectangles no change","null","null","","","critical","t","d","c","240","164","240","164","164","240","spektor","0","w","240","164","164","240","240","164","39360","39360","39360","tc","null","null","null","null","null","null","[1,3]","528.0419563733151","176.96899489998017","473.3146141742364"
"","canvas-keyboard-response","205","157797","0.0-6.0-3.28","555","","","","","rectangles with change","null","null","","","critical","t","d","c","240","164","240","164","164","240","spektor","0","w","240","164","164","240","240","164","39360","39360","39360","tc","null","null","null","null","null","null","[1,3]","528.0419563733151","176.96899489998017","473.3146141742364"
"","canvas-keyboard-response","206","157820","0.0-6.0-4.28","555","","","","","clear_screen","null","null","","","critical","t","d","c","240","164","240","164","164","240","spektor","0","w","240","164","164","240","240","164","39360","39360","39360","tc","null","null","null","null","null","null","[1,3]","528.0419563733151","176.96899489998017","473.3146141742364"
"","canvas-keyboard-response","207","158283","0.0-6.0-5.28","555","","","","","make choice","458","1","","","critical","t","d","c","240","164","240","164","164","240","spektor","0","w","240","164","164","240","240","164","39360","39360","39360","tc","null","null","null","null","null","null","[1,3]","","",""
"","canvas-keyboard-response","208","158304","0.0-6.0-6.28","555","","","","","clear_screen","null","null","","","critical","t","d","c","240","164","240","164","164","240","spektor","0","w","240","164","164","240","240","164","39360","39360","39360","tc","null","null","null","null","null","null","[1,3]","","",""
"","canvas-keyboard-response","209","158506","0.0-6.0-0.29","555","","","","","pre trial waiting period","null","null","","","critical","c","t","d","164","240","240","164","220.0396","154.6796","spektor","0.14","w","240","164","164","240","220.0396","154.6796","39360","39360","34035.6388","td","null","null","null","null","null","null","[2,3]","500.09341899314643","203.27132801602332","523.1122908182758"
"","canvas-keyboard-response","210","158527","0.0-6.0-1.29","555","","","","","clear_screen","null","null","","","critical","c","t","d","164","240","240","164","220.0396","154.6796","spektor","0.14","w","240","164","164","240","220.0396","154.6796","39360","39360","34035.6388","td","null","null","null","null","null","null","[2,3]","500.09341899314643","203.27132801602332","523.1122908182758"
"","canvas-keyboard-response","211","159032","0.0-6.0-2.29","555","","","","","rectangles no change","null","null","","","critical","c","t","d","164","240","240","164","220.0396","154.6796","spektor","0.14","w","240","164","164","240","220.0396","154.6796","39360","39360","34035.6388","td","null","null","null","null","null","null","[2,3]","500.09341899314643","203.27132801602332","523.1122908182758"
"","canvas-keyboard-response","212","160372","0.0-6.0-3.29","555","","","","","rectangles with change","null","null","","","critical","c","t","d","164","240","240","164","220.0396","154.6796","spektor","0.14","w","240","164","164","240","220.0396","154.6796","39360","39360","34035.6388","td","null","null","null","null","null","null","[2,3]","500.09341899314643","203.27132801602332","523.1122908182758"
"","canvas-keyboard-response","213","160391","0.0-6.0-4.29","555","","","","","clear_screen","null","null","","","critical","c","t","d","164","240","240","164","220.0396","154.6796","spektor","0.14","w","240","164","164","240","220.0396","154.6796","39360","39360","34035.6388","td","null","null","null","null","null","null","[2,3]","500.09341899314643","203.27132801602332","523.1122908182758"
"","canvas-keyboard-response","214","160677","0.0-6.0-5.29","555","","","","","make choice","279","2","","","critical","c","t","d","164","240","240","164","220.0396","154.6796","spektor","0.14","w","240","164","164","240","220.0396","154.6796","39360","39360","34035.6388","td","null","null","null","null","null","null","[2,3]","","",""
"","canvas-keyboard-response","215","160695","0.0-6.0-6.29","555","","","","","clear_screen","null","null","","","critical","c","t","d","164","240","240","164","220.0396","154.6796","spektor","0.14","w","240","164","164","240","220.0396","154.6796","39360","39360","34035.6388","td","null","null","null","null","null","null","[2,3]","","",""
"","canvas-keyboard-response","216","160895","0.0-6.0-0.30","555","","","","","pre trial waiting period","null","null","","","critical","t","d","c","164","240","164","240","240","164","spektor","0","h","164","240","240","164","164","240","39360","39360","39360","td","null","null","null","null","null","null","[1,2]","491.56397573522395","108.58241772919664","503.7723531305299"
"","canvas-keyboard-response","217","160918","0.0-6.0-1.30","555","","","","","clear_screen","null","null","","","critical","t","d","c","164","240","164","240","240","164","spektor","0","h","164","240","240","164","164","240","39360","39360","39360","td","null","null","null","null","null","null","[1,2]","491.56397573522395","108.58241772919664","503.7723531305299"
"","canvas-keyboard-response","218","161432","0.0-6.0-2.30","555","","","","","rectangles no change","null","null","","","critical","t","d","c","164","240","164","240","240","164","spektor","0","h","164","240","240","164","164","240","39360","39360","39360","td","null","null","null","null","null","null","[1,2]","491.56397573522395","108.58241772919664","503.7723531305299"
"","canvas-keyboard-response","219","162769","0.0-6.0-3.30","555","","","","","rectangles with change","null","null","","","critical","t","d","c","164","240","164","240","240","164","spektor","0","h","164","240","240","164","164","240","39360","39360","39360","td","null","null","null","null","null","null","[1,2]","491.56397573522395","108.58241772919664","503.7723531305299"
"","canvas-keyboard-response","220","162789","0.0-6.0-4.30","555","","","","","clear_screen","null","null","","","critical","t","d","c","164","240","164","240","240","164","spektor","0","h","164","240","240","164","164","240","39360","39360","39360","td","null","null","null","null","null","null","[1,2]","491.56397573522395","108.58241772919664","503.7723531305299"
"","canvas-keyboard-response","221","163596","0.0-6.0-5.30","555","","","","","make choice","800","2","","","critical","t","d","c","164","240","164","240","240","164","spektor","0","h","164","240","240","164","164","240","39360","39360","39360","td","null","null","null","null","null","null","[1,2]","","",""
"","canvas-keyboard-response","222","163613","0.0-6.0-6.30","555","","","","","clear_screen","null","null","","","critical","t","d","c","164","240","164","240","240","164","spektor","0","h","164","240","240","164","164","240","39360","39360","39360","td","null","null","null","null","null","null","[1,2]","","",""
"","canvas-keyboard-response","223","163815","0.0-6.0-0.31","555","","","","","pre trial waiting period","null","null","","","critical","c","t","d","164","240","240","164","220.0396","154.6796","trueblood","0.14","w","240","164","164","240","220.0396","154.6796","39360","39360","34035.6388","dc","null","null","null","null","null","null","[3,1]","428.05140481979987","493.2134564834397","490.6871470959494"
"","canvas-keyboard-response","224","163837","0.0-6.0-1.31","555","","","","","clear_screen","null","null","","","critical","c","t","d","164","240","240","164","220.0396","154.6796","trueblood","0.14","w","240","164","164","240","220.0396","154.6796","39360","39360","34035.6388","dc","null","null","null","null","null","null","[3,1]","428.05140481979987","493.2134564834397","490.6871470959494"
"","canvas-keyboard-response","225","164346","0.0-6.0-2.31","555","","","","","rectangles no change","null","null","","","critical","c","t","d","164","240","240","164","220.0396","154.6796","trueblood","0.14","w","240","164","164","240","220.0396","154.6796","39360","39360","34035.6388","dc","null","null","null","null","null","null","[3,1]","428.05140481979987","493.2134564834397","490.6871470959494"
"","canvas-keyboard-response","226","165682","0.0-6.0-3.31","555","","","","","rectangles with change","null","null","","","critical","c","t","d","164","240","240","164","220.0396","154.6796","trueblood","0.14","w","240","164","164","240","220.0396","154.6796","39360","39360","34035.6388","dc","null","null","null","null","null","null","[3,1]","428.05140481979987","493.2134564834397","490.6871470959494"
"","canvas-keyboard-response","227","165701","0.0-6.0-4.31","555","","","","","clear_screen","null","null","","","critical","c","t","d","164","240","240","164","220.0396","154.6796","trueblood","0.14","w","240","164","164","240","220.0396","154.6796","39360","39360","34035.6388","dc","null","null","null","null","null","null","[3,1]","428.05140481979987","493.2134564834397","490.6871470959494"
"","canvas-keyboard-response","228","166068","0.0-6.0-5.31","555","","","","","make choice","361","3","","","critical","c","t","d","164","240","240","164","220.0396","154.6796","trueblood","0.14","w","240","164","164","240","220.0396","154.6796","39360","39360","34035.6388","dc","null","null","null","null","null","null","[3,1]","","",""
"","canvas-keyboard-response","229","166087","0.0-6.0-6.31","555","","","","","clear_screen","null","null","","","critical","c","t","d","164","240","240","164","220.0396","154.6796","trueblood","0.14","w","240","164","164","240","220.0396","154.6796","39360","39360","34035.6388","dc","null","null","null","null","null","null","[3,1]","","",""
"","canvas-keyboard-response","230","166288","0.0-6.0-0.32","555","","","","","pre trial waiting period","null","null","","","critical","t","c","d","240","164","164","240","227.1683","158.0083","trueblood","0.09","w","240","164","164","240","227.1683","158.0083","39360","39360","35894.4834","tc","null","null","null","null","null","null","[1,2]","497.2711759512606","459.95140410065994","480.1329389947575"
"","canvas-keyboard-response","231","166311","0.0-6.0-1.32","555","","","","","clear_screen","null","null","","","critical","t","c","d","240","164","164","240","227.1683","158.0083","trueblood","0.09","w","240","164","164","240","227.1683","158.0083","39360","39360","35894.4834","tc","null","null","null","null","null","null","[1,2]","497.2711759512606","459.95140410065994","480.1329389947575"
"","canvas-keyboard-response","232","166816","0.0-6.0-2.32","555","","","","","rectangles no change","null","null","","","critical","t","c","d","240","164","164","240","227.1683","158.0083","trueblood","0.09","w","240","164","164","240","227.1683","158.0083","39360","39360","35894.4834","tc","null","null","null","null","null","null","[1,2]","497.2711759512606","459.95140410065994","480.1329389947575"
"","canvas-keyboard-response","233","168156","0.0-6.0-3.32","555","","","","","rectangles with change","null","null","","","critical","t","c","d","240","164","164","240","227.1683","158.0083","trueblood","0.09","w","240","164","164","240","227.1683","158.0083","39360","39360","35894.4834","tc","null","null","null","null","null","null","[1,2]","497.2711759512606","459.95140410065994","480.1329389947575"
"","canvas-keyboard-response","234","168177","0.0-6.0-4.32","555","","","","","clear_screen","null","null","","","critical","t","c","d","240","164","164","240","227.1683","158.0083","trueblood","0.09","w","240","164","164","240","227.1683","158.0083","39360","39360","35894.4834","tc","null","null","null","null","null","null","[1,2]","497.2711759512606","459.95140410065994","480.1329389947575"
"","canvas-keyboard-response","235","168548","0.0-6.0-5.32","555","","","","","make choice","365","2","","","critical","t","c","d","240","164","164","240","227.1683","158.0083","trueblood","0.09","w","240","164","164","240","227.1683","158.0083","39360","39360","35894.4834","tc","null","null","null","null","null","null","[1,2]","","",""
"","canvas-keyboard-response","236","168565","0.0-6.0-6.32","555","","","","","clear_screen","null","null","","","critical","t","c","d","240","164","164","240","227.1683","158.0083","trueblood","0.09","w","240","164","164","240","227.1683","158.0083","39360","39360","35894.4834","tc","null","null","null","null","null","null","[1,2]","","",""
"","canvas-keyboard-response","237","168767","0.0-6.0-0.33","555","","","","","pre trial waiting period","null","null","","","critical","t","c","d","240","164","164","240","220.0396","154.6796","trueblood","0.14","w","240","164","164","240","220.0396","154.6796","39360","39360","34035.6388","td","null","null","null","null","null","null","[1,3]","512.1565578780438","451.45189530866713","518.2200290247557"
"","canvas-keyboard-response","238","168786","0.0-6.0-1.33","555","","","","","clear_screen","null","null","","","critical","t","c","d","240","164","164","240","220.0396","154.6796","trueblood","0.14","w","240","164","164","240","220.0396","154.6796","39360","39360","34035.6388","td","null","null","null","null","null","null","[1,3]","512.1565578780438","451.45189530866713","518.2200290247557"
"","canvas-keyboard-response","239","169293","0.0-6.0-2.33","555","","","","","rectangles no change","null","null","","","critical","t","c","d","240","164","164","240","220.0396","154.6796","trueblood","0.14","w","240","164","164","240","220.0396","154.6796","39360","39360","34035.6388","td","null","null","null","null","null","null","[1,3]","512.1565578780438","451.45189530866713","518.2200290247557"
"","canvas-keyboard-response","240","170631","0.0-6.0-3.33","555","","","","","rectangles with change","null","null","","","critical","t","c","d","240","164","164","240","220.0396","154.6796","trueblood","0.14","w","240","164","164","240","220.0396","154.6796","39360","39360","34035.6388","td","null","null","null","null","null","null","[1,3]","512.1565578780438","451.45189530866713","518.2200290247557"
"","canvas-keyboard-response","241","170653","0.0-6.0-4.33","555","","","","","clear_screen","null","null","","","critical","t","c","d","240","164","164","240","220.0396","154.6796","trueblood","0.14","w","240","164","164","240","220.0396","154.6796","39360","39360","34035.6388","td","null","null","null","null","null","null","[1,3]","512.1565578780438","451.45189530866713","518.2200290247557"
"","canvas-keyboard-response","242","170900","0.0-6.0-5.33","555","","","","","make choice","237","3","","","critical","t","c","d","240","164","164","240","220.0396","154.6796","trueblood","0.14","w","240","164","164","240","220.0396","154.6796","39360","39360","34035.6388","td","null","null","null","null","null","null","[1,3]","","",""
"","canvas-keyboard-response","243","170917","0.0-6.0-6.33","555","","","","","clear_screen","null","null","","","critical","t","c","d","240","164","164","240","220.0396","154.6796","trueblood","0.14","w","240","164","164","240","220.0396","154.6796","39360","39360","34035.6388","td","null","null","null","null","null","null","[1,3]","","",""
"","canvas-keyboard-response","244","171118","0.0-6.0-0.34","555","","","","","pre trial waiting period","null","null","","","catch","l","sw","sh","252","161","166","210","208","168","trueblood","null","null","null","null","null","null","null","null","null","null","null","","180","200","260","200","36000","52000","[1,3]","519.0054224495527","468.33897755722097","471.9878010646797"
"","canvas-keyboard-response","245","171138","0.0-6.0-1.34","555","","","","","clear_screen","null","null","","","catch","l","sw","sh","252","161","166","210","208","168","trueblood","null","null","null","null","null","null","null","null","null","null","null","","180","200","260","200","36000","52000","[1,3]","519.0054224495527","468.33897755722097","471.9878010646797"
"","canvas-keyboard-response","246","171647","0.0-6.0-2.34","555","","","","","rectangles no change","null","null","","","catch","l","sw","sh","252","161","166","210","208","168","trueblood","null","null","null","null","null","null","null","null","null","null","null","","180","200","260","200","36000","52000","[1,3]","519.0054224495527","468.33897755722097","471.9878010646797"
"","canvas-keyboard-response","247","172984","0.0-6.0-3.34","555","","","","","rectangles with change","null","null","","","catch","l","sw","sh","252","161","166","210","208","168","trueblood","null","null","null","null","null","null","null","null","null","null","null","","180","200","260","200","36000","52000","[1,3]","519.0054224495527","468.33897755722097","471.9878010646797"
"","canvas-keyboard-response","248","173002","0.0-6.0-4.34","555","","","","","clear_screen","null","null","","","catch","l","sw","sh","252","161","166","210","208","168","trueblood","null","null","null","null","null","null","null","null","null","null","null","","180","200","260","200","36000","52000","[1,3]","519.0054224495527","468.33897755722097","471.9878010646797"
"","canvas-keyboard-response","249","173771","0.0-6.0-5.34","555","","","","","make choice","763","1","","","catch","l","sw","sh","252","161","166","210","208","168","trueblood","null","null","null","null","null","null","null","null","null","null","null","","180","200","260","200","36000","52000","[1,3]","","",""
"","canvas-keyboard-response","250","173791","0.0-6.0-6.34","555","","","","","clear_screen","null","null","","","catch","l","sw","sh","252","161","166","210","208","168","trueblood","null","null","null","null","null","null","null","null","null","null","null","","180","200","260","200","36000","52000","[1,3]","","",""
"","canvas-keyboard-response","251","173992","0.0-6.0-0.35","555","","","","","pre trial waiting period","null","null","","","catch","sw","sh","l","180","200","212","151","217","266","spektor","null","null","null","null","null","null","null","null","null","null","null","","180","200","260","200","36000","52000","[2,3]","481.3494920750251","195.12125677468947","482.0416081252664"
"","canvas-keyboard-response","252","174013","0.0-6.0-1.35","555","","","","","clear_screen","null","null","","","catch","sw","sh","l","180","200","212","151","217","266","spektor","null","null","null","null","null","null","null","null","null","null","null","","180","200","260","200","36000","52000","[2,3]","481.3494920750251","195.12125677468947","482.0416081252664"
"","canvas-keyboard-response","253","174520","0.0-6.0-2.35","555","","","","","rectangles no change","null","null","","","catch","sw","sh","l","180","200","212","151","217","266","spektor","null","null","null","null","null","null","null","null","null","null","null","","180","200","260","200","36000","52000","[2,3]","481.3494920750251","195.12125677468947","482.0416081252664"
"","canvas-keyboard-response","254","175857","0.0-6.0-3.35","555","","","","","rectangles with change","null","null","","","catch","sw","sh","l","180","200","212","151","217","266","spektor","null","null","null","null","null","null","null","null","null","null","null","","180","200","260","200","36000","52000","[2,3]","481.3494920750251","195.12125677468947","482.0416081252664"
"","canvas-keyboard-response","255","175877","0.0-6.0-4.35","555","","","","","clear_screen","null","null","","","catch","sw","sh","l","180","200","212","151","217","266","spektor","null","null","null","null","null","null","null","null","null","null","null","","180","200","260","200","36000","52000","[2,3]","481.3494920750251","195.12125677468947","482.0416081252664"
"","canvas-keyboard-response","256","176236","0.0-6.0-5.35","555","","","","","make choice","353","3","","","catch","sw","sh","l","180","200","212","151","217","266","spektor","null","null","null","null","null","null","null","null","null","null","null","","180","200","260","200","36000","52000","[2,3]","","",""
"","canvas-keyboard-response","257","176256","0.0-6.0-6.35","555","","","","","clear_screen","null","null","","","catch","sw","sh","l","180","200","212","151","217","266","spektor","null","null","null","null","null","null","null","null","null","null","null","","180","200","260","200","36000","52000","[2,3]","","",""
"","canvas-keyboard-response","258","176458","0.0-6.0-0.36","555","","","","","pre trial waiting period","null","null","","","catch","sh","sw","l","203","190","181","218","229","264","trueblood","null","null","null","null","null","null","null","null","null","null","null","","180","200","260","200","36000","52000","[1,3]","496.7712916691629","469.6434687046287","431.4821468571258"
"","canvas-keyboard-response","259","176476","0.0-6.0-1.36","555","","","","","clear_screen","null","null","","","catch","sh","sw","l","203","190","181","218","229","264","trueblood","null","null","null","null","null","null","null","null","null","null","null","","180","200","260","200","36000","52000","[1,3]","496.7712916691629","469.6434687046287","431.4821468571258"
"","canvas-keyboard-response","260","176984","0.0-6.0-2.36","555","","","","","rectangles no change","null","null","","","catch","sh","sw","l","203","190","181","218","229","264","trueblood","null","null","null","null","null","null","null","null","null","null","null","","180","200","260","200","36000","52000","[1,3]","496.7712916691629","469.6434687046287","431.4821468571258"
"","canvas-keyboard-response","261","178320","0.0-6.0-3.36","555","","","","","rectangles with change","null","null","","","catch","sh","sw","l","203","190","181","218","229","264","trueblood","null","null","null","null","null","null","null","null","null","null","null","","180","200","260","200","36000","52000","[1,3]","496.7712916691629","469.6434687046287","431.4821468571258"
"","canvas-keyboard-response","262","178336","0.0-6.0-4.36","555","","","","","clear_screen","null","null","","","catch","sh","sw","l","203","190","181","218","229","264","trueblood","null","null","null","null","null","null","null","null","null","null","null","","180","200","260","200","36000","52000","[1,3]","496.7712916691629","469.6434687046287","431.4821468571258"
"","canvas-keyboard-response","263","178700","0.0-6.0-5.36","555","","","","","make choice","358","3","","","catch","sh","sw","l","203","190","181","218","229","264","trueblood","null","null","null","null","null","null","null","null","null","null","null","","180","200","260","200","36000","52000","[1,3]","","",""
"","canvas-keyboard-response","264","178721","0.0-6.0-6.36","555","","","","","clear_screen","null","null","","","catch","sh","sw","l","203","190","181","218","229","264","trueblood","null","null","null","null","null","null","null","null","null","null","null","","180","200","260","200","36000","52000","[1,3]","","",""
"","canvas-keyboard-response","265","178922","0.0-6.0-0.37","555","","","","","pre trial waiting period","null","null","","","critical","d","t","c","164","240","164","240","240","164","trueblood","0","h","164","240","240","164","164","240","39360","39360","39360","dc","null","null","null","null","null","null","[1,3]","459.06763617767996","464.49187904658896","478.0360511711295"
"","canvas-keyboard-response","266","178945","0.0-6.0-1.37","555","","","","","clear_screen","null","null","","","critical","d","t","c","164","240","164","240","240","164","trueblood","0","h","164","240","240","164","164","240","39360","39360","39360","dc","null","null","null","null","null","null","[1,3]","459.06763617767996","464.49187904658896","478.0360511711295"
"","canvas-keyboard-response","267","179455","0.0-6.0-2.37","555","","","","","rectangles no change","null","null","","","critical","d","t","c","164","240","164","240","240","164","trueblood","0","h","164","240","240","164","164","240","39360","39360","39360","dc","null","null","null","null","null","null","[1,3]","459.06763617767996","464.49187904658896","478.0360511711295"
