"success","trial_type","trial_index","time_elapsed","internal_node_id","sub_n","timeout","failed_images","failed_audio","failed_video","screen_id","rt","response","stimulus","view_history","trial","r1","r2","r3","w1","h1","w2","h2","w3","h3","display","tdd","tdo","tw","th","cw","ch","dw","dh","ta","ca","da","probe","csls","csss","clls","clss","sa","la","probe_rects","r1yloc","r2yloc","r3yloc"
"true","fullscreen","0","1974","0.0-0.0","543","","","","","","","","","","","","","","","","","","","","","","","","","","","","","","","","","","","","","","","","","",""
"true","preload","1","2002","0.0-1.0","543","false","[]","[]","[]","img preload","","","","","","","","","","","","","","","","","","","","","","","","","","","","","","","","","","","","",""
"","survey-html-form","2","135788","0.0-2.0","543","","","","","enter-sub-number","133775","{""response"":""543""}","","","","","","","","","","","","","","","","","","","","","","","","","","","","","","","","","","",""
"","image-button-response","3","153141","0.0-3.0","543","","","","","","17246","0","consent.png","","","","","","","","","","","","","","","","","","","","","","","","","","","","","","","","","",""
"","html-button-response","4","169748","0.0-4.0","543","","","","","intro mssg","16604","0","<div style= ""font-size:25px;"" <p> <strong> Welcome! </strong><br> <p style=""color:#8B0000; font-size:25px;""><strong> Please do NOT exit full screen until you are done with the experiment. </strong> </p><p style=""font-size:25px;color:#8B0000;""> <strong> Your data will be lost <br> if you try to go back or refresh the page after the experiment starts. Feel free to click ""previous"" during the instructions, however.</strong> </p><br><p> <strong> Thanks in advance for your contribution to our research! </strong></p>","","","","","","","","","","","","","","","","","","","","","","","","","","","","","","","","","",""
"","instructions","5","205230","0.0-5.0","543","","","","","instructions","35478","","","[{""page_index"":0,""viewing_time"":10004},{""page_index"":1,""viewing_time"":6696},{""page_index"":2,""viewing_time"":2145},{""page_index"":3,""viewing_time"":8199},{""page_index"":4,""viewing_time"":2848},{""page_index"":5,""viewing_time"":2256},{""page_index"":6,""viewing_time"":2016},{""page_index"":7,""viewing_time"":1314}]","","","","","","","","","","","","","","","","","","","","","","","","","","","","","","","","",""
"","canvas-keyboard-response","6","205434","0.0-6.0-0.0","543","","","","","pre trial waiting period","null","null","","","critical","t","d","c","164","240","154.6796","220.0396","240","164","spektor","0.14","h","164","240","240","164","154.6796","220.0396","39360","39360","34035.6388","td","null","null","null","null","null","null","[1,2]","457.22862621413685","126.07717253821468","520.7400349720566"
"","canvas-keyboard-response","7","205457","0.0-6.0-1.0","543","","","","","clear_screen","null","null","","","critical","t","d","c","164","240","154.6796","220.0396","240","164","spektor","0.14","h","164","240","240","164","154.6796","220.0396","39360","39360","34035.6388","td","null","null","null","null","null","null","[1,2]","457.22862621413685","126.07717253821468","520.7400349720566"
"","canvas-keyboard-response","8","205976","0.0-6.0-2.0","543","","","","","rectangles no change","null","null","","","critical","t","d","c","164","240","154.6796","220.0396","240","164","spektor","0.14","h","164","240","240","164","154.6796","220.0396","39360","39360","34035.6388","td","null","null","null","null","null","null","[1,2]","457.22862621413685","126.07717253821468","520.7400349720566"
"","canvas-keyboard-response","9","207314","0.0-6.0-3.0","543","","","","","rectangles with change","null","null","","","critical","t","d","c","164","240","154.6796","220.0396","240","164","spektor","0.14","h","164","240","240","164","154.6796","220.0396","39360","39360","34035.6388","td","null","null","null","null","null","null","[1,2]","457.22862621413685","126.07717253821468","520.7400349720566"
"","canvas-keyboard-response","10","207333","0.0-6.0-4.0","543","","","","","clear_screen","null","null","","","critical","t","d","c","164","240","154.6796","220.0396","240","164","spektor","0.14","h","164","240","240","164","154.6796","220.0396","39360","39360","34035.6388","td","null","null","null","null","null","null","[1,2]","457.22862621413685","126.07717253821468","520.7400349720566"
"","canvas-keyboard-response","11","210147","0.0-6.0-5.0","543","","","","","make choice","2802","2","","","critical","t","d","c","164","240","154.6796","220.0396","240","164","spektor","0.14","h","164","240","240","164","154.6796","220.0396","39360","39360","34035.6388","td","null","null","null","null","null","null","[1,2]","","",""
"","canvas-keyboard-response","12","210165","0.0-6.0-6.0","543","","","","","clear_screen","null","null","","","critical","t","d","c","164","240","154.6796","220.0396","240","164","spektor","0.14","h","164","240","240","164","154.6796","220.0396","39360","39360","34035.6388","td","null","null","null","null","null","null","[1,2]","","",""
"","canvas-keyboard-response","13","210366","0.0-6.0-0.1","543","","","","","pre trial waiting period","null","null","","","catch","sw","l","sh","180","200","169","221","191","218","trueblood","null","null","null","null","null","null","null","null","null","null","null","","180","200","260","200","36000","52000","[1,2]","476.438376960812","462.7860956561771","453.7002623443621"
"","canvas-keyboard-response","14","210386","0.0-6.0-1.1","543","","","","","clear_screen","null","null","","","catch","sw","l","sh","180","200","169","221","191","218","trueblood","null","null","null","null","null","null","null","null","null","null","null","","180","200","260","200","36000","52000","[1,2]","476.438376960812","462.7860956561771","453.7002623443621"
"","canvas-keyboard-response","15","210899","0.0-6.0-2.1","543","","","","","rectangles no change","null","null","","","catch","sw","l","sh","180","200","169","221","191","218","trueblood","null","null","null","null","null","null","null","null","null","null","null","","180","200","260","200","36000","52000","[1,2]","476.438376960812","462.7860956561771","453.7002623443621"
"","canvas-keyboard-response","16","212235","0.0-6.0-3.1","543","","","","","rectangles with change","null","null","","","catch","sw","l","sh","180","200","169","221","191","218","trueblood","null","null","null","null","null","null","null","null","null","null","null","","180","200","260","200","36000","52000","[1,2]","476.438376960812","462.7860956561771","453.7002623443621"
"","canvas-keyboard-response","17","212253","0.0-6.0-4.1","543","","","","","clear_screen","null","null","","","catch","sw","l","sh","180","200","169","221","191","218","trueblood","null","null","null","null","null","null","null","null","null","null","null","","180","200","260","200","36000","52000","[1,2]","476.438376960812","462.7860956561771","453.7002623443621"
"","canvas-keyboard-response","18","215274","0.0-6.0-5.1","543","","","","","make choice","3005","2","","","catch","sw","l","sh","180","200","169","221","191","218","trueblood","null","null","null","null","null","null","null","null","null","null","null","","180","200","260","200","36000","52000","[1,2]","","",""
"","canvas-keyboard-response","19","215293","0.0-6.0-6.1","543","","","","","clear_screen","null","null","","","catch","sw","l","sh","180","200","169","221","191","218","trueblood","null","null","null","null","null","null","null","null","null","null","null","","180","200","260","200","36000","52000","[1,2]","","",""
"","canvas-keyboard-response","20","215494","0.0-6.0-0.2","543","","","","","pre trial waiting period","null","null","","","catch","l","sh","sw","174","284","189","157","209","200","trueblood","null","null","null","null","null","null","null","null","null","null","null","","180","200","260","200","36000","52000","[1,3]","435.15553697404266","475.19363480959106","453.45551082428426"
"","canvas-keyboard-response","21","215514","0.0-6.0-1.2","543","","","","","clear_screen","null","null","","","catch","l","sh","sw","174","284","189","157","209","200","trueblood","null","null","null","null","null","null","null","null","null","null","null","","180","200","260","200","36000","52000","[1,3]","435.15553697404266","475.19363480959106","453.45551082428426"
"","canvas-keyboard-response","22","216025","0.0-6.0-2.2","543","","","","","rectangles no change","null","null","","","catch","l","sh","sw","174","284","189","157","209","200","trueblood","null","null","null","null","null","null","null","null","null","null","null","","180","200","260","200","36000","52000","[1,3]","435.15553697404266","475.19363480959106","453.45551082428426"
"","canvas-keyboard-response","23","217360","0.0-6.0-3.2","543","","","","","rectangles with change","null","null","","","catch","l","sh","sw","174","284","189","157","209","200","trueblood","null","null","null","null","null","null","null","null","null","null","null","","180","200","260","200","36000","52000","[1,3]","435.15553697404266","475.19363480959106","453.45551082428426"
"","canvas-keyboard-response","24","217379","0.0-6.0-4.2","543","","","","","clear_screen","null","null","","","catch","l","sh","sw","174","284","189","157","209","200","trueblood","null","null","null","null","null","null","null","null","null","null","null","","180","200","260","200","36000","52000","[1,3]","435.15553697404266","475.19363480959106","453.45551082428426"
"","canvas-keyboard-response","25","220858","0.0-6.0-5.2","543","","","","","make choice","3469","1","","","catch","l","sh","sw","174","284","189","157","209","200","trueblood","null","null","null","null","null","null","null","null","null","null","null","","180","200","260","200","36000","52000","[1,3]","","",""
"","canvas-keyboard-response","26","220877","0.0-6.0-6.2","543","","","","","clear_screen","null","null","","","catch","l","sh","sw","174","284","189","157","209","200","trueblood","null","null","null","null","null","null","null","null","null","null","null","","180","200","260","200","36000","52000","[1,3]","","",""
"","canvas-keyboard-response","27","221077","0.0-6.0-0.3","543","","","","","pre trial waiting period","null","null","","","catch","sh","sw","l","202","181","190","219","162","291","spektor","null","null","null","null","null","null","null","null","null","null","null","","180","200","260","200","36000","52000","[2,3]","505.14104998252793","96.93033410744137","458.73089848796604"
"","canvas-keyboard-response","28","221099","0.0-6.0-1.3","543","","","","","clear_screen","null","null","","","catch","sh","sw","l","202","181","190","219","162","291","spektor","null","null","null","null","null","null","null","null","null","null","null","","180","200","260","200","36000","52000","[2,3]","505.14104998252793","96.93033410744137","458.73089848796604"
"","canvas-keyboard-response","29","221612","0.0-6.0-2.3","543","","","","","rectangles no change","null","null","","","catch","sh","sw","l","202","181","190","219","162","291","spektor","null","null","null","null","null","null","null","null","null","null","null","","180","200","260","200","36000","52000","[2,3]","505.14104998252793","96.93033410744137","458.73089848796604"
"","canvas-keyboard-response","30","222948","0.0-6.0-3.3","543","","","","","rectangles with change","null","null","","","catch","sh","sw","l","202","181","190","219","162","291","spektor","null","null","null","null","null","null","null","null","null","null","null","","180","200","260","200","36000","52000","[2,3]","505.14104998252793","96.93033410744137","458.73089848796604"
"","canvas-keyboard-response","31","222968","0.0-6.0-4.3","543","","","","","clear_screen","null","null","","","catch","sh","sw","l","202","181","190","219","162","291","spektor","null","null","null","null","null","null","null","null","null","null","null","","180","200","260","200","36000","52000","[2,3]","505.14104998252793","96.93033410744137","458.73089848796604"
"","canvas-keyboard-response","32","224825","0.0-6.0-5.3","543","","","","","make choice","1849","3","","","catch","sh","sw","l","202","181","190","219","162","291","spektor","null","null","null","null","null","null","null","null","null","null","null","","180","200","260","200","36000","52000","[2,3]","","",""
"","canvas-keyboard-response","33","224845","0.0-6.0-6.3","543","","","","","clear_screen","null","null","","","catch","sh","sw","l","202","181","190","219","162","291","spektor","null","null","null","null","null","null","null","null","null","null","null","","180","200","260","200","36000","52000","[2,3]","","",""
"","canvas-keyboard-response","34","225046","0.0-6.0-0.4","543","","","","","pre trial waiting period","null","null","","","critical","t","c","d","240","164","164","240","220.0396","154.6796","trueblood","0.14","w","240","164","164","240","220.0396","154.6796","39360","39360","34035.6388","td","null","null","null","null","null","null","[1,3]","513.5664686106195","440.9494510580377","485.1098685719375"
"","canvas-keyboard-response","35","225066","0.0-6.0-1.4","543","","","","","clear_screen","null","null","","","critical","t","c","d","240","164","164","240","220.0396","154.6796","trueblood","0.14","w","240","164","164","240","220.0396","154.6796","39360","39360","34035.6388","td","null","null","null","null","null","null","[1,3]","513.5664686106195","440.9494510580377","485.1098685719375"
"","canvas-keyboard-response","36","225579","0.0-6.0-2.4","543","","","","","rectangles no change","null","null","","","critical","t","c","d","240","164","164","240","220.0396","154.6796","trueblood","0.14","w","240","164","164","240","220.0396","154.6796","39360","39360","34035.6388","td","null","null","null","null","null","null","[1,3]","513.5664686106195","440.9494510580377","485.1098685719375"
"","canvas-keyboard-response","37","226914","0.0-6.0-3.4","543","","","","","rectangles with change","null","null","","","critical","t","c","d","240","164","164","240","220.0396","154.6796","trueblood","0.14","w","240","164","164","240","220.0396","154.6796","39360","39360","34035.6388","td","null","null","null","null","null","null","[1,3]","513.5664686106195","440.9494510580377","485.1098685719375"
"","canvas-keyboard-response","38","226933","0.0-6.0-4.4","543","","","","","clear_screen","null","null","","","critical","t","c","d","240","164","164","240","220.0396","154.6796","trueblood","0.14","w","240","164","164","240","220.0396","154.6796","39360","39360","34035.6388","td","null","null","null","null","null","null","[1,3]","513.5664686106195","440.9494510580377","485.1098685719375"
"","canvas-keyboard-response","39","228210","0.0-6.0-5.4","543","","","","","make choice","1268","1","","","critical","t","c","d","240","164","164","240","220.0396","154.6796","trueblood","0.14","w","240","164","164","240","220.0396","154.6796","39360","39360","34035.6388","td","null","null","null","null","null","null","[1,3]","","",""
"","canvas-keyboard-response","40","228234","0.0-6.0-6.4","543","","","","","clear_screen","null","null","","","critical","t","c","d","240","164","164","240","220.0396","154.6796","trueblood","0.14","w","240","164","164","240","220.0396","154.6796","39360","39360","34035.6388","td","null","null","null","null","null","null","[1,3]","","",""
"","canvas-keyboard-response","41","228436","0.0-6.0-0.5","543","","","","","pre trial waiting period","null","null","","","critical","t","c","d","240","164","164","240","232.8713","160.6713","spektor","0.05","w","240","164","164","240","232.8713","160.6713","39360","39360","37415.7294","td","null","null","null","null","null","null","[1,3]","519.8641049569972","135.72233652884847","503.4651817038471"
"","canvas-keyboard-response","42","228455","0.0-6.0-1.5","543","","","","","clear_screen","null","null","","","critical","t","c","d","240","164","164","240","232.8713","160.6713","spektor","0.05","w","240","164","164","240","232.8713","160.6713","39360","39360","37415.7294","td","null","null","null","null","null","null","[1,3]","519.8641049569972","135.72233652884847","503.4651817038471"
"","canvas-keyboard-response","43","228969","0.0-6.0-2.5","543","","","","","rectangles no change","null","null","","","critical","t","c","d","240","164","164","240","232.8713","160.6713","spektor","0.05","w","240","164","164","240","232.8713","160.6713","39360","39360","37415.7294","td","null","null","null","null","null","null","[1,3]","519.8641049569972","135.72233652884847","503.4651817038471"
"","canvas-keyboard-response","44","230305","0.0-6.0-3.5","543","","","","","rectangles with change","null","null","","","critical","t","c","d","240","164","164","240","232.8713","160.6713","spektor","0.05","w","240","164","164","240","232.8713","160.6713","39360","39360","37415.7294","td","null","null","null","null","null","null","[1,3]","519.8641049569972","135.72233652884847","503.4651817038471"
"","canvas-keyboard-response","45","230323","0.0-6.0-4.5","543","","","","","clear_screen","null","null","","","critical","t","c","d","240","164","164","240","232.8713","160.6713","spektor","0.05","w","240","164","164","240","232.8713","160.6713","39360","39360","37415.7294","td","null","null","null","null","null","null","[1,3]","519.8641049569972","135.72233652884847","503.4651817038471"
"","canvas-keyboard-response","46","232289","0.0-6.0-5.5","543","","","","","make choice","1960","3","","","critical","t","c","d","240","164","164","240","232.8713","160.6713","spektor","0.05","w","240","164","164","240","232.8713","160.6713","39360","39360","37415.7294","td","null","null","null","null","null","null","[1,3]","","",""
"","canvas-keyboard-response","47","232309","0.0-6.0-6.5","543","","","","","clear_screen","null","null","","","critical","t","c","d","240","164","164","240","232.8713","160.6713","spektor","0.05","w","240","164","164","240","232.8713","160.6713","39360","39360","37415.7294","td","null","null","null","null","null","null","[1,3]","","",""
"","canvas-keyboard-response","48","232510","0.0-6.0-0.6","543","","","","","pre trial waiting period","null","null","","","critical","c","t","d","164","240","240","164","232.8713","160.6713","trueblood","0.05","w","240","164","164","240","232.8713","160.6713","39360","39360","37415.7294","tc","null","null","null","null","null","null","[2,1]","468.45418439507216","492.9522134214258","495.2447415364229"
"","canvas-keyboard-response","49","232529","0.0-6.0-1.6","543","","","","","clear_screen","null","null","","","critical","c","t","d","164","240","240","164","232.8713","160.6713","trueblood","0.05","w","240","164","164","240","232.8713","160.6713","39360","39360","37415.7294","tc","null","null","null","null","null","null","[2,1]","468.45418439507216","492.9522134214258","495.2447415364229"
"","canvas-keyboard-response","50","233044","0.0-6.0-2.6","543","","","","","rectangles no change","null","null","","","critical","c","t","d","164","240","240","164","232.8713","160.6713","trueblood","0.05","w","240","164","164","240","232.8713","160.6713","39360","39360","37415.7294","tc","null","null","null","null","null","null","[2,1]","468.45418439507216","492.9522134214258","495.2447415364229"
"","canvas-keyboard-response","51","234380","0.0-6.0-3.6","543","","","","","rectangles with change","null","null","","","critical","c","t","d","164","240","240","164","232.8713","160.6713","trueblood","0.05","w","240","164","164","240","232.8713","160.6713","39360","39360","37415.7294","tc","null","null","null","null","null","null","[2,1]","468.45418439507216","492.9522134214258","495.2447415364229"
"","canvas-keyboard-response","52","234399","0.0-6.0-4.6","543","","","","","clear_screen","null","null","","","critical","c","t","d","164","240","240","164","232.8713","160.6713","trueblood","0.05","w","240","164","164","240","232.8713","160.6713","39360","39360","37415.7294","tc","null","null","null","null","null","null","[2,1]","468.45418439507216","492.9522134214258","495.2447415364229"
"","canvas-keyboard-response","53","235674","0.0-6.0-5.6","543","","","","","make choice","1261","2","","","critical","c","t","d","164","240","240","164","232.8713","160.6713","trueblood","0.05","w","240","164","164","240","232.8713","160.6713","39360","39360","37415.7294","tc","null","null","null","null","null","null","[2,1]","","",""
"","canvas-keyboard-response","54","235693","0.0-6.0-6.6","543","","","","","clear_screen","null","null","","","critical","c","t","d","164","240","240","164","232.8713","160.6713","trueblood","0.05","w","240","164","164","240","232.8713","160.6713","39360","39360","37415.7294","tc","null","null","null","null","null","null","[2,1]","","",""
"","canvas-keyboard-response","55","235893","0.0-6.0-0.7","543","","","","","pre trial waiting period","null","null","","","critical","t","d","c","164","240","160.6713","232.8713","240","164","spektor","0.05","h","164","240","240","164","160.6713","232.8713","39360","39360","37415.7294","dc","null","null","null","null","null","null","[2,3]","501.4207557111163","139.2786882816141","508.3225264149916"
"","canvas-keyboard-response","56","235912","0.0-6.0-1.7","543","","","","","clear_screen","null","null","","","critical","t","d","c","164","240","160.6713","232.8713","240","164","spektor","0.05","h","164","240","240","164","160.6713","232.8713","39360","39360","37415.7294","dc","null","null","null","null","null","null","[2,3]","501.4207557111163","139.2786882816141","508.3225264149916"
"","canvas-keyboard-response","57","236424","0.0-6.0-2.7","543","","","","","rectangles no change","null","null","","","critical","t","d","c","164","240","160.6713","232.8713","240","164","spektor","0.05","h","164","240","240","164","160.6713","232.8713","39360","39360","37415.7294","dc","null","null","null","null","null","null","[2,3]","501.4207557111163","139.2786882816141","508.3225264149916"
"","canvas-keyboard-response","58","237760","0.0-6.0-3.7","543","","","","","rectangles with change","null","null","","","critical","t","d","c","164","240","160.6713","232.8713","240","164","spektor","0.05","h","164","240","240","164","160.6713","232.8713","39360","39360","37415.7294","dc","null","null","null","null","null","null","[2,3]","501.4207557111163","139.2786882816141","508.3225264149916"
"","canvas-keyboard-response","59","237778","0.0-6.0-4.7","543","","","","","clear_screen","null","null","","","critical","t","d","c","164","240","160.6713","232.8713","240","164","spektor","0.05","h","164","240","240","164","160.6713","232.8713","39360","39360","37415.7294","dc","null","null","null","null","null","null","[2,3]","501.4207557111163","139.2786882816141","508.3225264149916"
"","canvas-keyboard-response","60","239099","0.0-6.0-5.7","543","","","","","make choice","1313","3","","","critical","t","d","c","164","240","160.6713","232.8713","240","164","spektor","0.05","h","164","240","240","164","160.6713","232.8713","39360","39360","37415.7294","dc","null","null","null","null","null","null","[2,3]","","",""
"","canvas-keyboard-response","61","239117","0.0-6.0-6.7","543","","","","","clear_screen","null","null","","","critical","t","d","c","164","240","160.6713","232.8713","240","164","spektor","0.05","h","164","240","240","164","160.6713","232.8713","39360","39360","37415.7294","dc","null","null","null","null","null","null","[2,3]","","",""
"","canvas-keyboard-response","62","239318","0.0-6.0-0.8","543","","","","","pre trial waiting period","null","null","","","critical","d","c","t","160.6713","232.8713","240","164","164","240","trueblood","0.05","h","164","240","240","164","160.6713","232.8713","39360","39360","37415.7294","td","null","null","null","null","null","null","[3,1]","459.2475956235142","474.79867360670977","457.44289388499766"
"","canvas-keyboard-response","63","239337","0.0-6.0-1.8","543","","","","","clear_screen","null","null","","","critical","d","c","t","160.6713","232.8713","240","164","164","240","trueblood","0.05","h","164","240","240","164","160.6713","232.8713","39360","39360","37415.7294","td","null","null","null","null","null","null","[3,1]","459.2475956235142","474.79867360670977","457.44289388499766"
"","canvas-keyboard-response","64","239848","0.0-6.0-2.8","543","","","","","rectangles no change","null","null","","","critical","d","c","t","160.6713","232.8713","240","164","164","240","trueblood","0.05","h","164","240","240","164","160.6713","232.8713","39360","39360","37415.7294","td","null","null","null","null","null","null","[3,1]","459.2475956235142","474.79867360670977","457.44289388499766"
"","canvas-keyboard-response","65","241183","0.0-6.0-3.8","543","","","","","rectangles with change","null","null","","","critical","d","c","t","160.6713","232.8713","240","164","164","240","trueblood","0.05","h","164","240","240","164","160.6713","232.8713","39360","39360","37415.7294","td","null","null","null","null","null","null","[3,1]","459.2475956235142","474.79867360670977","457.44289388499766"
"","canvas-keyboard-response","66","241202","0.0-6.0-4.8","543","","","","","clear_screen","null","null","","","critical","d","c","t","160.6713","232.8713","240","164","164","240","trueblood","0.05","h","164","240","240","164","160.6713","232.8713","39360","39360","37415.7294","td","null","null","null","null","null","null","[3,1]","459.2475956235142","474.79867360670977","457.44289388499766"
"","canvas-keyboard-response","67","242033","0.0-6.0-5.8","543","","","","","make choice","824","3","","","critical","d","c","t","160.6713","232.8713","240","164","164","240","trueblood","0.05","h","164","240","240","164","160.6713","232.8713","39360","39360","37415.7294","td","null","null","null","null","null","null","[3,1]","","",""
"","canvas-keyboard-response","68","242052","0.0-6.0-6.8","543","","","","","clear_screen","null","null","","","critical","d","c","t","160.6713","232.8713","240","164","164","240","trueblood","0.05","h","164","240","240","164","160.6713","232.8713","39360","39360","37415.7294","td","null","null","null","null","null","null","[3,1]","","",""
"","canvas-keyboard-response","69","242254","0.0-6.0-0.9","543","","","","","pre trial waiting period","null","null","","","catch","l","sw","sh","241","178","141","213","172","198","trueblood","null","null","null","null","null","null","null","null","null","null","null","","180","200","260","200","36000","52000","[1,2]","466.08840040241483","483.44788629300575","460.2487334140728"
"","canvas-keyboard-response","70","242272","0.0-6.0-1.9","543","","","","","clear_screen","null","null","","","catch","l","sw","sh","241","178","141","213","172","198","trueblood","null","null","null","null","null","null","null","null","null","null","null","","180","200","260","200","36000","52000","[1,2]","466.08840040241483","483.44788629300575","460.2487334140728"
"","canvas-keyboard-response","71","242783","0.0-6.0-2.9","543","","","","","rectangles no change","null","null","","","catch","l","sw","sh","241","178","141","213","172","198","trueblood","null","null","null","null","null","null","null","null","null","null","null","","180","200","260","200","36000","52000","[1,2]","466.08840040241483","483.44788629300575","460.2487334140728"
"","canvas-keyboard-response","72","244117","0.0-6.0-3.9","543","","","","","rectangles with change","null","null","","","catch","l","sw","sh","241","178","141","213","172","198","trueblood","null","null","null","null","null","null","null","null","null","null","null","","180","200","260","200","36000","52000","[1,2]","466.08840040241483","483.44788629300575","460.2487334140728"
"","canvas-keyboard-response","73","244135","0.0-6.0-4.9","543","","","","","clear_screen","null","null","","","catch","l","sw","sh","241","178","141","213","172","198","trueblood","null","null","null","null","null","null","null","null","null","null","null","","180","200","260","200","36000","52000","[1,2]","466.08840040241483","483.44788629300575","460.2487334140728"
"","canvas-keyboard-response","74","245426","0.0-6.0-5.9","543","","","","","make choice","1283","1","","","catch","l","sw","sh","241","178","141","213","172","198","trueblood","null","null","null","null","null","null","null","null","null","null","null","","180","200","260","200","36000","52000","[1,2]","","",""
"","canvas-keyboard-response","75","245444","0.0-6.0-6.9","543","","","","","clear_screen","null","null","","","catch","l","sw","sh","241","178","141","213","172","198","trueblood","null","null","null","null","null","null","null","null","null","null","null","","180","200","260","200","36000","52000","[1,2]","","",""
"","canvas-keyboard-response","76","245645","0.0-6.0-0.10","543","","","","","pre trial waiting period","null","null","","","catch","sw","sh","l","180","200","233","160","225","249","trueblood","null","null","null","null","null","null","null","null","null","null","null","","180","200","260","200","36000","52000","[2,3]","462.0903885875184","479.60774176556487","422.4312856073985"
"","canvas-keyboard-response","77","245669","0.0-6.0-1.10","543","","","","","clear_screen","null","null","","","catch","sw","sh","l","180","200","233","160","225","249","trueblood","null","null","null","null","null","null","null","null","null","null","null","","180","200","260","200","36000","52000","[2,3]","462.0903885875184","479.60774176556487","422.4312856073985"
"","canvas-keyboard-response","78","246181","0.0-6.0-2.10","543","","","","","rectangles no change","null","null","","","catch","sw","sh","l","180","200","233","160","225","249","trueblood","null","null","null","null","null","null","null","null","null","null","null","","180","200","260","200","36000","52000","[2,3]","462.0903885875184","479.60774176556487","422.4312856073985"
"","canvas-keyboard-response","79","247515","0.0-6.0-3.10","543","","","","","rectangles with change","null","null","","","catch","sw","sh","l","180","200","233","160","225","249","trueblood","null","null","null","null","null","null","null","null","null","null","null","","180","200","260","200","36000","52000","[2,3]","462.0903885875184","479.60774176556487","422.4312856073985"
"","canvas-keyboard-response","80","247535","0.0-6.0-4.10","543","","","","","clear_screen","null","null","","","catch","sw","sh","l","180","200","233","160","225","249","trueblood","null","null","null","null","null","null","null","null","null","null","null","","180","200","260","200","36000","52000","[2,3]","462.0903885875184","479.60774176556487","422.4312856073985"
"","canvas-keyboard-response","81","248466","0.0-6.0-5.10","543","","","","","make choice","922","3","","","catch","sw","sh","l","180","200","233","160","225","249","trueblood","null","null","null","null","null","null","null","null","null","null","null","","180","200","260","200","36000","52000","[2,3]","","",""
"","canvas-keyboard-response","82","248485","0.0-6.0-6.10","543","","","","","clear_screen","null","null","","","catch","sw","sh","l","180","200","233","160","225","249","trueblood","null","null","null","null","null","null","null","null","null","null","null","","180","200","260","200","36000","52000","[2,3]","","",""
"","canvas-keyboard-response","83","248686","0.0-6.0-0.11","543","","","","","pre trial waiting period","null","null","","","critical","t","c","d","240","164","164","240","227.1683","158.0083","trueblood","0.09","w","240","164","164","240","227.1683","158.0083","39360","39360","35894.4834","td","null","null","null","null","null","null","[1,3]","476.11950626476477","441.6287199060886","496.11258923679617"
"","canvas-keyboard-response","84","248706","0.0-6.0-1.11","543","","","","","clear_screen","null","null","","","critical","t","c","d","240","164","164","240","227.1683","158.0083","trueblood","0.09","w","240","164","164","240","227.1683","158.0083","39360","39360","35894.4834","td","null","null","null","null","null","null","[1,3]","476.11950626476477","441.6287199060886","496.11258923679617"
"","canvas-keyboard-response","85","249215","0.0-6.0-2.11","543","","","","","rectangles no change","null","null","","","critical","t","c","d","240","164","164","240","227.1683","158.0083","trueblood","0.09","w","240","164","164","240","227.1683","158.0083","39360","39360","35894.4834","td","null","null","null","null","null","null","[1,3]","476.11950626476477","441.6287199060886","496.11258923679617"
"","canvas-keyboard-response","86","250550","0.0-6.0-3.11","543","","","","","rectangles with change","null","null","","","critical","t","c","d","240","164","164","240","227.1683","158.0083","trueblood","0.09","w","240","164","164","240","227.1683","158.0083","39360","39360","35894.4834","td","null","null","null","null","null","null","[1,3]","476.11950626476477","441.6287199060886","496.11258923679617"
"","canvas-keyboard-response","87","250569","0.0-6.0-4.11","543","","","","","clear_screen","null","null","","","critical","t","c","d","240","164","164","240","227.1683","158.0083","trueblood","0.09","w","240","164","164","240","227.1683","158.0083","39360","39360","35894.4834","td","null","null","null","null","null","null","[1,3]","476.11950626476477","441.6287199060886","496.11258923679617"
"","canvas-keyboard-response","88","251962","0.0-6.0-5.11","543","","","","","make choice","1385","1","","","critical","t","c","d","240","164","164","240","227.1683","158.0083","trueblood","0.09","w","240","164","164","240","227.1683","158.0083","39360","39360","35894.4834","td","null","null","null","null","null","null","[1,3]","","",""
"","canvas-keyboard-response","89","251983","0.0-6.0-6.11","543","","","","","clear_screen","null","null","","","critical","t","c","d","240","164","164","240","227.1683","158.0083","trueblood","0.09","w","240","164","164","240","227.1683","158.0083","39360","39360","35894.4834","td","null","null","null","null","null","null","[1,3]","","",""
"","canvas-keyboard-response","90","252185","0.0-6.0-0.12","543","","","","","pre trial waiting period","null","null","","","critical","t","c","d","164","240","240","164","162.6685","237.1485","trueblood","0.02","h","164","240","240","164","162.6685","237.1485","39360","39360","38576.5967","tc","null","null","null","null","null","null","[1,2]","464.6136930217961","468.4776601450559","425.9853127963463"
"","canvas-keyboard-response","91","252204","0.0-6.0-1.12","543","","","","","clear_screen","null","null","","","critical","t","c","d","164","240","240","164","162.6685","237.1485","trueblood","0.02","h","164","240","240","164","162.6685","237.1485","39360","39360","38576.5967","tc","null","null","null","null","null","null","[1,2]","464.6136930217961","468.4776601450559","425.9853127963463"
"","canvas-keyboard-response","92","252714","0.0-6.0-2.12","543","","","","","rectangles no change","null","null","","","critical","t","c","d","164","240","240","164","162.6685","237.1485","trueblood","0.02","h","164","240","240","164","162.6685","237.1485","39360","39360","38576.5967","tc","null","null","null","null","null","null","[1,2]","464.6136930217961","468.4776601450559","425.9853127963463"
"","canvas-keyboard-response","93","254049","0.0-6.0-3.12","543","","","","","rectangles with change","null","null","","","critical","t","c","d","164","240","240","164","162.6685","237.1485","trueblood","0.02","h","164","240","240","164","162.6685","237.1485","39360","39360","38576.5967","tc","null","null","null","null","null","null","[1,2]","464.6136930217961","468.4776601450559","425.9853127963463"
"","canvas-keyboard-response","94","254068","0.0-6.0-4.12","543","","","","","clear_screen","null","null","","","critical","t","c","d","164","240","240","164","162.6685","237.1485","trueblood","0.02","h","164","240","240","164","162.6685","237.1485","39360","39360","38576.5967","tc","null","null","null","null","null","null","[1,2]","464.6136930217961","468.4776601450559","425.9853127963463"
"","canvas-keyboard-response","95","255106","0.0-6.0-5.12","543","","","","","make choice","1030","1","","","critical","t","c","d","164","240","240","164","162.6685","237.1485","trueblood","0.02","h","164","240","240","164","162.6685","237.1485","39360","39360","38576.5967","tc","null","null","null","null","null","null","[1,2]","","",""
"","canvas-keyboard-response","96","255123","0.0-6.0-6.12","543","","","","","clear_screen","null","null","","","critical","t","c","d","164","240","240","164","162.6685","237.1485","trueblood","0.02","h","164","240","240","164","162.6685","237.1485","39360","39360","38576.5967","tc","null","null","null","null","null","null","[1,2]","","",""
"","canvas-keyboard-response","97","255325","0.0-6.0-0.13","543","","","","","pre trial waiting period","null","null","","","catch","sw","sh","l","180","200","166","179","166","276","spektor","null","null","null","null","null","null","null","null","null","null","null","","180","200","260","200","36000","52000","[1,3]","503.49662642022474","174.98338687488115","473.97211317946096"
"","canvas-keyboard-response","98","255344","0.0-6.0-1.13","543","","","","","clear_screen","null","null","","","catch","sw","sh","l","180","200","166","179","166","276","spektor","null","null","null","null","null","null","null","null","null","null","null","","180","200","260","200","36000","52000","[1,3]","503.49662642022474","174.98338687488115","473.97211317946096"
"","canvas-keyboard-response","99","255859","0.0-6.0-2.13","543","","","","","rectangles no change","null","null","","","catch","sw","sh","l","180","200","166","179","166","276","spektor","null","null","null","null","null","null","null","null","null","null","null","","180","200","260","200","36000","52000","[1,3]","503.49662642022474","174.98338687488115","473.97211317946096"
"","canvas-keyboard-response","100","257194","0.0-6.0-3.13","543","","","","","rectangles with change","null","null","","","catch","sw","sh","l","180","200","166","179","166","276","spektor","null","null","null","null","null","null","null","null","null","null","null","","180","200","260","200","36000","52000","[1,3]","503.49662642022474","174.98338687488115","473.97211317946096"
"","canvas-keyboard-response","101","257213","0.0-6.0-4.13","543","","","","","clear_screen","null","null","","","catch","sw","sh","l","180","200","166","179","166","276","spektor","null","null","null","null","null","null","null","null","null","null","null","","180","200","260","200","36000","52000","[1,3]","503.49662642022474","174.98338687488115","473.97211317946096"
"","canvas-keyboard-response","102","258451","0.0-6.0-5.13","543","","","","","make choice","1229","3","","","catch","sw","sh","l","180","200","166","179","166","276","spektor","null","null","null","null","null","null","null","null","null","null","null","","180","200","260","200","36000","52000","[1,3]","","",""
"","canvas-keyboard-response","103","258472","0.0-6.0-6.13","543","","","","","clear_screen","null","null","","","catch","sw","sh","l","180","200","166","179","166","276","spektor","null","null","null","null","null","null","null","null","null","null","null","","180","200","260","200","36000","52000","[1,3]","","",""
"","canvas-keyboard-response","104","258674","0.0-6.0-0.14","543","","","","","pre trial waiting period","null","null","","","critical","d","c","t","232.8713","160.6713","164","240","240","164","trueblood","0.05","w","240","164","164","240","232.8713","160.6713","39360","39360","37415.7294","dc","null","null","null","null","null","null","[1,2]","494.7899453081704","428.7629012368106","477.6673481627674"
"","canvas-keyboard-response","105","258696","0.0-6.0-1.14","543","","","","","clear_screen","null","null","","","critical","d","c","t","232.8713","160.6713","164","240","240","164","trueblood","0.05","w","240","164","164","240","232.8713","160.6713","39360","39360","37415.7294","dc","null","null","null","null","null","null","[1,2]","494.7899453081704","428.7629012368106","477.6673481627674"
"","canvas-keyboard-response","106","259207","0.0-6.0-2.14","543","","","","","rectangles no change","null","null","","","critical","d","c","t","232.8713","160.6713","164","240","240","164","trueblood","0.05","w","240","164","164","240","232.8713","160.6713","39360","39360","37415.7294","dc","null","null","null","null","null","null","[1,2]","494.7899453081704","428.7629012368106","477.6673481627674"
"","canvas-keyboard-response","107","260542","0.0-6.0-3.14","543","","","","","rectangles with change","null","null","","","critical","d","c","t","232.8713","160.6713","164","240","240","164","trueblood","0.05","w","240","164","164","240","232.8713","160.6713","39360","39360","37415.7294","dc","null","null","null","null","null","null","[1,2]","494.7899453081704","428.7629012368106","477.6673481627674"
"","canvas-keyboard-response","108","260561","0.0-6.0-4.14","543","","","","","clear_screen","null","null","","","critical","d","c","t","232.8713","160.6713","164","240","240","164","trueblood","0.05","w","240","164","164","240","232.8713","160.6713","39360","39360","37415.7294","dc","null","null","null","null","null","null","[1,2]","494.7899453081704","428.7629012368106","477.6673481627674"
"","canvas-keyboard-response","109","261794","0.0-6.0-5.14","543","","","","","make choice","1224","1","","","critical","d","c","t","232.8713","160.6713","164","240","240","164","trueblood","0.05","w","240","164","164","240","232.8713","160.6713","39360","39360","37415.7294","dc","null","null","null","null","null","null","[1,2]","","",""
"","canvas-keyboard-response","110","261813","0.0-6.0-6.14","543","","","","","clear_screen","null","null","","","critical","d","c","t","232.8713","160.6713","164","240","240","164","trueblood","0.05","w","240","164","164","240","232.8713","160.6713","39360","39360","37415.7294","dc","null","null","null","null","null","null","[1,2]","","",""
"","canvas-keyboard-response","111","262015","0.0-6.0-0.15","543","","","","","pre trial waiting period","null","null","","","critical","t","c","d","164","240","240","164","164","240","spektor","0","h","164","240","240","164","164","240","39360","39360","39360","tc","null","null","null","null","null","null","[1,2]","483.6140062985927","194.36698960356676","462.95195622210673"
"","canvas-keyboard-response","112","262036","0.0-6.0-1.15","543","","","","","clear_screen","null","null","","","critical","t","c","d","164","240","240","164","164","240","spektor","0","h","164","240","240","164","164","240","39360","39360","39360","tc","null","null","null","null","null","null","[1,2]","483.6140062985927","194.36698960356676","462.95195622210673"
"","canvas-keyboard-response","113","262549","0.0-6.0-2.15","543","","","","","rectangles no change","null","null","","","critical","t","c","d","164","240","240","164","164","240","spektor","0","h","164","240","240","164","164","240","39360","39360","39360","tc","null","null","null","null","null","null","[1,2]","483.6140062985927","194.36698960356676","462.95195622210673"
"","canvas-keyboard-response","114","263885","0.0-6.0-3.15","543","","","","","rectangles with change","null","null","","","critical","t","c","d","164","240","240","164","164","240","spektor","0","h","164","240","240","164","164","240","39360","39360","39360","tc","null","null","null","null","null","null","[1,2]","483.6140062985927","194.36698960356676","462.95195622210673"
"","canvas-keyboard-response","115","263904","0.0-6.0-4.15","543","","","","","clear_screen","null","null","","","critical","t","c","d","164","240","240","164","164","240","spektor","0","h","164","240","240","164","164","240","39360","39360","39360","tc","null","null","null","null","null","null","[1,2]","483.6140062985927","194.36698960356676","462.95195622210673"
"","canvas-keyboard-response","116","264402","0.0-6.0-5.15","543","","","","","make choice","486","1","","","critical","t","c","d","164","240","240","164","164","240","spektor","0","h","164","240","240","164","164","240","39360","39360","39360","tc","null","null","null","null","null","null","[1,2]","","",""
"","canvas-keyboard-response","117","264421","0.0-6.0-6.15","543","","","","","clear_screen","null","null","","","critical","t","c","d","164","240","240","164","164","240","spektor","0","h","164","240","240","164","164","240","39360","39360","39360","tc","null","null","null","null","null","null","[1,2]","","",""
"","canvas-keyboard-response","118","264622","0.0-6.0-0.16","543","","","","","pre trial waiting period","null","null","","","critical","t","c","d","164","240","240","164","164","240","trueblood","0","h","164","240","240","164","164","240","39360","39360","39360","dc","null","null","null","null","null","null","[3,2]","462.9398094585559","485.23389772790733","444.04990512541804"
"","canvas-keyboard-response","119","264642","0.0-6.0-1.16","543","","","","","clear_screen","null","null","","","critical","t","c","d","164","240","240","164","164","240","trueblood","0","h","164","240","240","164","164","240","39360","39360","39360","dc","null","null","null","null","null","null","[3,2]","462.9398094585559","485.23389772790733","444.04990512541804"
"","canvas-keyboard-response","120","265152","0.0-6.0-2.16","543","","","","","rectangles no change","null","null","","","critical","t","c","d","164","240","240","164","164","240","trueblood","0","h","164","240","240","164","164","240","39360","39360","39360","dc","null","null","null","null","null","null","[3,2]","462.9398094585559","485.23389772790733","444.04990512541804"
"","canvas-keyboard-response","121","266488","0.0-6.0-3.16","543","","","","","rectangles with change","null","null","","","critical","t","c","d","164","240","240","164","164","240","trueblood","0","h","164","240","240","164","164","240","39360","39360","39360","dc","null","null","null","null","null","null","[3,2]","462.9398094585559","485.23389772790733","444.04990512541804"
"","canvas-keyboard-response","122","266508","0.0-6.0-4.16","543","","","","","clear_screen","null","null","","","critical","t","c","d","164","240","240","164","164","240","trueblood","0","h","164","240","240","164","164","240","39360","39360","39360","dc","null","null","null","null","null","null","[3,2]","462.9398094585559","485.23389772790733","444.04990512541804"
"","canvas-keyboard-response","123","267658","0.0-6.0-5.16","543","","","","","make choice","1143","2","","","critical","t","c","d","164","240","240","164","164","240","trueblood","0","h","164","240","240","164","164","240","39360","39360","39360","dc","null","null","null","null","null","null","[3,2]","","",""
"","canvas-keyboard-response","124","267679","0.0-6.0-6.16","543","","","","","clear_screen","null","null","","","critical","t","c","d","164","240","240","164","164","240","trueblood","0","h","164","240","240","164","164","240","39360","39360","39360","dc","null","null","null","null","null","null","[3,2]","","",""
"","canvas-keyboard-response","125","267880","0.0-6.0-0.17","543","","","","","pre trial waiting period","null","null","","","critical","d","t","c","237.1485","162.6685","240","164","164","240","spektor","0.02","w","240","164","164","240","237.1485","162.6685","39360","39360","38576.5967","td","null","null","null","null","null","null","[2,1]","515.4318849474406","177.0597882795236","462.66066354239933"
"","canvas-keyboard-response","126","267901","0.0-6.0-1.17","543","","","","","clear_screen","null","null","","","critical","d","t","c","237.1485","162.6685","240","164","164","240","spektor","0.02","w","240","164","164","240","237.1485","162.6685","39360","39360","38576.5967","td","null","null","null","null","null","null","[2,1]","515.4318849474406","177.0597882795236","462.66066354239933"
"","canvas-keyboard-response","127","268413","0.0-6.0-2.17","543","","","","","rectangles no change","null","null","","","critical","d","t","c","237.1485","162.6685","240","164","164","240","spektor","0.02","w","240","164","164","240","237.1485","162.6685","39360","39360","38576.5967","td","null","null","null","null","null","null","[2,1]","515.4318849474406","177.0597882795236","462.66066354239933"
"","canvas-keyboard-response","128","269750","0.0-6.0-3.17","543","","","","","rectangles with change","null","null","","","critical","d","t","c","237.1485","162.6685","240","164","164","240","spektor","0.02","w","240","164","164","240","237.1485","162.6685","39360","39360","38576.5967","td","null","null","null","null","null","null","[2,1]","515.4318849474406","177.0597882795236","462.66066354239933"
"","canvas-keyboard-response","129","269768","0.0-6.0-4.17","543","","","","","clear_screen","null","null","","","critical","d","t","c","237.1485","162.6685","240","164","164","240","spektor","0.02","w","240","164","164","240","237.1485","162.6685","39360","39360","38576.5967","td","null","null","null","null","null","null","[2,1]","515.4318849474406","177.0597882795236","462.66066354239933"
"","canvas-keyboard-response","130","270818","0.0-6.0-5.17","543","","","","","make choice","1041","2","","","critical","d","t","c","237.1485","162.6685","240","164","164","240","spektor","0.02","w","240","164","164","240","237.1485","162.6685","39360","39360","38576.5967","td","null","null","null","null","null","null","[2,1]","","",""
"","canvas-keyboard-response","131","270836","0.0-6.0-6.17","543","","","","","clear_screen","null","null","","","critical","d","t","c","237.1485","162.6685","240","164","164","240","spektor","0.02","w","240","164","164","240","237.1485","162.6685","39360","39360","38576.5967","td","null","null","null","null","null","null","[2,1]","","",""
"","canvas-keyboard-response","132","271037","0.0-6.0-0.18","543","","","","","pre trial waiting period","null","null","","","critical","t","c","d","164","240","240","164","164","240","trueblood","0","h","164","240","240","164","164","240","39360","39360","39360","td","null","null","null","null","null","null","[1,3]","447.6247587858729","493.33131232759206","431.23648179781236"
"","canvas-keyboard-response","133","271057","0.0-6.0-1.18","543","","","","","clear_screen","null","null","","","critical","t","c","d","164","240","240","164","164","240","trueblood","0","h","164","240","240","164","164","240","39360","39360","39360","td","null","null","null","null","null","null","[1,3]","447.6247587858729","493.33131232759206","431.23648179781236"
"","canvas-keyboard-response","134","271566","0.0-6.0-2.18","543","","","","","rectangles no change","null","null","","","critical","t","c","d","164","240","240","164","164","240","trueblood","0","h","164","240","240","164","164","240","39360","39360","39360","td","null","null","null","null","null","null","[1,3]","447.6247587858729","493.33131232759206","431.23648179781236"
"","canvas-keyboard-response","135","272900","0.0-6.0-3.18","543","","","","","rectangles with change","null","null","","","critical","t","c","d","164","240","240","164","164","240","trueblood","0","h","164","240","240","164","164","240","39360","39360","39360","td","null","null","null","null","null","null","[1,3]","447.6247587858729","493.33131232759206","431.23648179781236"
"","canvas-keyboard-response","136","272919","0.0-6.0-4.18","543","","","","","clear_screen","null","null","","","critical","t","c","d","164","240","240","164","164","240","trueblood","0","h","164","240","240","164","164","240","39360","39360","39360","td","null","null","null","null","null","null","[1,3]","447.6247587858729","493.33131232759206","431.23648179781236"
"","canvas-keyboard-response","137","273425","0.0-6.0-5.18","543","","","","","make choice","498","1","","","critical","t","c","d","164","240","240","164","164","240","trueblood","0","h","164","240","240","164","164","240","39360","39360","39360","td","null","null","null","null","null","null","[1,3]","","",""
"","canvas-keyboard-response","138","273445","0.0-6.0-6.18","543","","","","","clear_screen","null","null","","","critical","t","c","d","164","240","240","164","164","240","trueblood","0","h","164","240","240","164","164","240","39360","39360","39360","td","null","null","null","null","null","null","[1,3]","","",""
"","canvas-keyboard-response","139","273645","0.0-6.0-0.19","543","","","","","pre trial waiting period","null","null","","","critical","c","t","d","164","240","240","164","232.8713","160.6713","trueblood","0.05","w","240","164","164","240","232.8713","160.6713","39360","39360","37415.7294","td","null","null","null","null","null","null","[2,3]","448.6733534396747","474.0810215916463","493.27000104240636"
"","canvas-keyboard-response","140","273664","0.0-6.0-1.19","543","","","","","clear_screen","null","null","","","critical","c","t","d","164","240","240","164","232.8713","160.6713","trueblood","0.05","w","240","164","164","240","232.8713","160.6713","39360","39360","37415.7294","td","null","null","null","null","null","null","[2,3]","448.6733534396747","474.0810215916463","493.27000104240636"
"","canvas-keyboard-response","141","274177","0.0-6.0-2.19","543","","","","","rectangles no change","null","null","","","critical","c","t","d","164","240","240","164","232.8713","160.6713","trueblood","0.05","w","240","164","164","240","232.8713","160.6713","39360","39360","37415.7294","td","null","null","null","null","null","null","[2,3]","448.6733534396747","474.0810215916463","493.27000104240636"
"","canvas-keyboard-response","142","275513","0.0-6.0-3.19","543","","","","","rectangles with change","null","null","","","critical","c","t","d","164","240","240","164","232.8713","160.6713","trueblood","0.05","w","240","164","164","240","232.8713","160.6713","39360","39360","37415.7294","td","null","null","null","null","null","null","[2,3]","448.6733534396747","474.0810215916463","493.27000104240636"
"","canvas-keyboard-response","143","275531","0.0-6.0-4.19","543","","","","","clear_screen","null","null","","","critical","c","t","d","164","240","240","164","232.8713","160.6713","trueblood","0.05","w","240","164","164","240","232.8713","160.6713","39360","39360","37415.7294","td","null","null","null","null","null","null","[2,3]","448.6733534396747","474.0810215916463","493.27000104240636"
"","canvas-keyboard-response","144","276338","0.0-6.0-5.19","543","","","","","make choice","800","2","","","critical","c","t","d","164","240","240","164","232.8713","160.6713","trueblood","0.05","w","240","164","164","240","232.8713","160.6713","39360","39360","37415.7294","td","null","null","null","null","null","null","[2,3]","","",""
"","canvas-keyboard-response","145","276355","0.0-6.0-6.19","543","","","","","clear_screen","null","null","","","critical","c","t","d","164","240","240","164","232.8713","160.6713","trueblood","0.05","w","240","164","164","240","232.8713","160.6713","39360","39360","37415.7294","td","null","null","null","null","null","null","[2,3]","","",""
"","canvas-keyboard-response","146","276558","0.0-6.0-0.20","543","","","","","pre trial waiting period","null","null","","","catch","sw","l","sh","180","200","239","236","203","200","trueblood","null","null","null","null","null","null","null","null","null","null","null","","180","200","260","200","36000","52000","[1,2]","476.2428222044336","465.9391970275162","445.3090845242769"
"","canvas-keyboard-response","147","276577","0.0-6.0-1.20","543","","","","","clear_screen","null","null","","","catch","sw","l","sh","180","200","239","236","203","200","trueblood","null","null","null","null","null","null","null","null","null","null","null","","180","200","260","200","36000","52000","[1,2]","476.2428222044336","465.9391970275162","445.3090845242769"
"","canvas-keyboard-response","148","277087","0.0-6.0-2.20","543","","","","","rectangles no change","null","null","","","catch","sw","l","sh","180","200","239","236","203","200","trueblood","null","null","null","null","null","null","null","null","null","null","null","","180","200","260","200","36000","52000","[1,2]","476.2428222044336","465.9391970275162","445.3090845242769"
"","canvas-keyboard-response","149","278424","0.0-6.0-3.20","543","","","","","rectangles with change","null","null","","","catch","sw","l","sh","180","200","239","236","203","200","trueblood","null","null","null","null","null","null","null","null","null","null","null","","180","200","260","200","36000","52000","[1,2]","476.2428222044336","465.9391970275162","445.3090845242769"
"","canvas-keyboard-response","150","278442","0.0-6.0-4.20","543","","","","","clear_screen","null","null","","","catch","sw","l","sh","180","200","239","236","203","200","trueblood","null","null","null","null","null","null","null","null","null","null","null","","180","200","260","200","36000","52000","[1,2]","476.2428222044336","465.9391970275162","445.3090845242769"
"","canvas-keyboard-response","151","280010","0.0-6.0-5.20","543","","","","","make choice","1560","2","","","catch","sw","l","sh","180","200","239","236","203","200","trueblood","null","null","null","null","null","null","null","null","null","null","null","","180","200","260","200","36000","52000","[1,2]","","",""
"","canvas-keyboard-response","152","280028","0.0-6.0-6.20","543","","","","","clear_screen","null","null","","","catch","sw","l","sh","180","200","239","236","203","200","trueblood","null","null","null","null","null","null","null","null","null","null","null","","180","200","260","200","36000","52000","[1,2]","","",""
"","canvas-keyboard-response","153","280229","0.0-6.0-0.21","543","","","","","pre trial waiting period","null","null","","","critical","c","d","t","164","240","220.0396","154.6796","240","164","spektor","0.14","w","240","164","164","240","220.0396","154.6796","39360","39360","34035.6388","tc","null","null","null","null","null","null","[3,1]","493.9209553019957","179.32648447989163","510.5722162394474"
"","canvas-keyboard-response","154","280249","0.0-6.0-1.21","543","","","","","clear_screen","null","null","","","critical","c","d","t","164","240","220.0396","154.6796","240","164","spektor","0.14","w","240","164","164","240","220.0396","154.6796","39360","39360","34035.6388","tc","null","null","null","null","null","null","[3,1]","493.9209553019957","179.32648447989163","510.5722162394474"
"","canvas-keyboard-response","155","280762","0.0-6.0-2.21","543","","","","","rectangles no change","null","null","","","critical","c","d","t","164","240","220.0396","154.6796","240","164","spektor","0.14","w","240","164","164","240","220.0396","154.6796","39360","39360","34035.6388","tc","null","null","null","null","null","null","[3,1]","493.9209553019957","179.32648447989163","510.5722162394474"
"","canvas-keyboard-response","156","282097","0.0-6.0-3.21","543","","","","","rectangles with change","null","null","","","critical","c","d","t","164","240","220.0396","154.6796","240","164","spektor","0.14","w","240","164","164","240","220.0396","154.6796","39360","39360","34035.6388","tc","null","null","null","null","null","null","[3,1]","493.9209553019957","179.32648447989163","510.5722162394474"
"","canvas-keyboard-response","157","282115","0.0-6.0-4.21","543","","","","","clear_screen","null","null","","","critical","c","d","t","164","240","220.0396","154.6796","240","164","spektor","0.14","w","240","164","164","240","220.0396","154.6796","39360","39360","34035.6388","tc","null","null","null","null","null","null","[3,1]","493.9209553019957","179.32648447989163","510.5722162394474"
"","canvas-keyboard-response","158","284050","0.0-6.0-5.21","543","","","","","make choice","1927","3","","","critical","c","d","t","164","240","220.0396","154.6796","240","164","spektor","0.14","w","240","164","164","240","220.0396","154.6796","39360","39360","34035.6388","tc","null","null","null","null","null","null","[3,1]","","",""
"","canvas-keyboard-response","159","284067","0.0-6.0-6.21","543","","","","","clear_screen","null","null","","","critical","c","d","t","164","240","220.0396","154.6796","240","164","spektor","0.14","w","240","164","164","240","220.0396","154.6796","39360","39360","34035.6388","tc","null","null","null","null","null","null","[3,1]","","",""
"","canvas-keyboard-response","160","284270","0.0-6.0-0.22","543","","","","","pre trial waiting period","null","null","","","critical","t","c","d","164","240","240","164","154.6796","220.0396","trueblood","0.14","h","164","240","240","164","154.6796","220.0396","39360","39360","34035.6388","td","null","null","null","null","null","null","[1,3]","441.41625613979244","473.6008153015892","440.3656022665802"
"","canvas-keyboard-response","161","284294","0.0-6.0-1.22","543","","","","","clear_screen","null","null","","","critical","t","c","d","164","240","240","164","154.6796","220.0396","trueblood","0.14","h","164","240","240","164","154.6796","220.0396","39360","39360","34035.6388","td","null","null","null","null","null","null","[1,3]","441.41625613979244","473.6008153015892","440.3656022665802"
"","canvas-keyboard-response","162","284806","0.0-6.0-2.22","543","","","","","rectangles no change","null","null","","","critical","t","c","d","164","240","240","164","154.6796","220.0396","trueblood","0.14","h","164","240","240","164","154.6796","220.0396","39360","39360","34035.6388","td","null","null","null","null","null","null","[1,3]","441.41625613979244","473.6008153015892","440.3656022665802"
"","canvas-keyboard-response","163","286142","0.0-6.0-3.22","543","","","","","rectangles with change","null","null","","","critical","t","c","d","164","240","240","164","154.6796","220.0396","trueblood","0.14","h","164","240","240","164","154.6796","220.0396","39360","39360","34035.6388","td","null","null","null","null","null","null","[1,3]","441.41625613979244","473.6008153015892","440.3656022665802"
"","canvas-keyboard-response","164","286160","0.0-6.0-4.22","543","","","","","clear_screen","null","null","","","critical","t","c","d","164","240","240","164","154.6796","220.0396","trueblood","0.14","h","164","240","240","164","154.6796","220.0396","39360","39360","34035.6388","td","null","null","null","null","null","null","[1,3]","441.41625613979244","473.6008153015892","440.3656022665802"
"","canvas-keyboard-response","165","287169","0.0-6.0-5.22","543","","","","","make choice","1003","1","","","critical","t","c","d","164","240","240","164","154.6796","220.0396","trueblood","0.14","h","164","240","240","164","154.6796","220.0396","39360","39360","34035.6388","td","null","null","null","null","null","null","[1,3]","","",""
"","canvas-keyboard-response","166","287187","0.0-6.0-6.22","543","","","","","clear_screen","null","null","","","critical","t","c","d","164","240","240","164","154.6796","220.0396","trueblood","0.14","h","164","240","240","164","154.6796","220.0396","39360","39360","34035.6388","td","null","null","null","null","null","null","[1,3]","","",""
"","canvas-keyboard-response","167","287389","0.0-6.0-0.23","543","","","","","pre trial waiting period","null","null","","","catch","l","sw","sh","198","268","157","237","170","162","trueblood","null","null","null","null","null","null","null","null","null","null","null","","180","200","260","200","36000","52000","[1,3]","410.49320340771663","468.02511016096116","502.3219299322185"
"","canvas-keyboard-response","168","287409","0.0-6.0-1.23","543","","","","","clear_screen","null","null","","","catch","l","sw","sh","198","268","157","237","170","162","trueblood","null","null","null","null","null","null","null","null","null","null","null","","180","200","260","200","36000","52000","[1,3]","410.49320340771663","468.02511016096116","502.3219299322185"
"","canvas-keyboard-response","169","287921","0.0-6.0-2.23","543","","","","","rectangles no change","null","null","","","catch","l","sw","sh","198","268","157","237","170","162","trueblood","null","null","null","null","null","null","null","null","null","null","null","","180","200","260","200","36000","52000","[1,3]","410.49320340771663","468.02511016096116","502.3219299322185"
"","canvas-keyboard-response","170","289255","0.0-6.0-3.23","543","","","","","rectangles with change","null","null","","","catch","l","sw","sh","198","268","157","237","170","162","trueblood","null","null","null","null","null","null","null","null","null","null","null","","180","200","260","200","36000","52000","[1,3]","410.49320340771663","468.02511016096116","502.3219299322185"
"","canvas-keyboard-response","171","289274","0.0-6.0-4.23","543","","","","","clear_screen","null","null","","","catch","l","sw","sh","198","268","157","237","170","162","trueblood","null","null","null","null","null","null","null","null","null","null","null","","180","200","260","200","36000","52000","[1,3]","410.49320340771663","468.02511016096116","502.3219299322185"
"","canvas-keyboard-response","172","290290","0.0-6.0-5.23","543","","","","","make choice","1009","1","","","catch","l","sw","sh","198","268","157","237","170","162","trueblood","null","null","null","null","null","null","null","null","null","null","null","","180","200","260","200","36000","52000","[1,3]","","",""
"","canvas-keyboard-response","173","290311","0.0-6.0-6.23","543","","","","","clear_screen","null","null","","","catch","l","sw","sh","198","268","157","237","170","162","trueblood","null","null","null","null","null","null","null","null","null","null","null","","180","200","260","200","36000","52000","[1,3]","","",""
"","canvas-keyboard-response","174","290513","0.0-6.0-0.24","543","","","","","pre trial waiting period","null","null","","","critical","t","c","d","240","164","164","240","240","164","trueblood","0","w","240","164","164","240","240","164","39360","39360","39360","dc","null","null","null","null","null","null","[3,2]","486.47874043739193","466.6198159827806","477.75341338068966"
"","canvas-keyboard-response","175","290536","0.0-6.0-1.24","543","","","","","clear_screen","null","null","","","critical","t","c","d","240","164","164","240","240","164","trueblood","0","w","240","164","164","240","240","164","39360","39360","39360","dc","null","null","null","null","null","null","[3,2]","486.47874043739193","466.6198159827806","477.75341338068966"
"","canvas-keyboard-response","176","291047","0.0-6.0-2.24","543","","","","","rectangles no change","null","null","","","critical","t","c","d","240","164","164","240","240","164","trueblood","0","w","240","164","164","240","240","164","39360","39360","39360","dc","null","null","null","null","null","null","[3,2]","486.47874043739193","466.6198159827806","477.75341338068966"
"","canvas-keyboard-response","177","292383","0.0-6.0-3.24","543","","","","","rectangles with change","null","null","","","critical","t","c","d","240","164","164","240","240","164","trueblood","0","w","240","164","164","240","240","164","39360","39360","39360","dc","null","null","null","null","null","null","[3,2]","486.47874043739193","466.6198159827806","477.75341338068966"
"","canvas-keyboard-response","178","292402","0.0-6.0-4.24","543","","","","","clear_screen","null","null","","","critical","t","c","d","240","164","164","240","240","164","trueblood","0","w","240","164","164","240","240","164","39360","39360","39360","dc","null","null","null","null","null","null","[3,2]","486.47874043739193","466.6198159827806","477.75341338068966"
"","canvas-keyboard-response","179","293305","0.0-6.0-5.24","543","","","","","make choice","895","2","","","critical","t","c","d","240","164","164","240","240","164","trueblood","0","w","240","164","164","240","240","164","39360","39360","39360","dc","null","null","null","null","null","null","[3,2]","","",""
"","canvas-keyboard-response","180","293323","0.0-6.0-6.24","543","","","","","clear_screen","null","null","","","critical","t","c","d","240","164","164","240","240","164","trueblood","0","w","240","164","164","240","240","164","39360","39360","39360","dc","null","null","null","null","null","null","[3,2]","","",""
"","canvas-keyboard-response","181","293525","0.0-6.0-0.25","543","","","","","pre trial waiting period","null","null","","","catch","sh","sw","l","209","142","209","219","182","298","spektor","null","null","null","null","null","null","null","null","null","null","null","","180","200","260","200","36000","52000","[1,3]","549.6446321808971","141.8785256462779","428.62718394437013"
"","canvas-keyboard-response","182","293544","0.0-6.0-1.25","543","","","","","clear_screen","null","null","","","catch","sh","sw","l","209","142","209","219","182","298","spektor","null","null","null","null","null","null","null","null","null","null","null","","180","200","260","200","36000","52000","[1,3]","549.6446321808971","141.8785256462779","428.62718394437013"
"","canvas-keyboard-response","183","294055","0.0-6.0-2.25","543","","","","","rectangles no change","null","null","","","catch","sh","sw","l","209","142","209","219","182","298","spektor","null","null","null","null","null","null","null","null","null","null","null","","180","200","260","200","36000","52000","[1,3]","549.6446321808971","141.8785256462779","428.62718394437013"
"","canvas-keyboard-response","184","295390","0.0-6.0-3.25","543","","","","","rectangles with change","null","null","","","catch","sh","sw","l","209","142","209","219","182","298","spektor","null","null","null","null","null","null","null","null","null","null","null","","180","200","260","200","36000","52000","[1,3]","549.6446321808971","141.8785256462779","428.62718394437013"
"","canvas-keyboard-response","185","295408","0.0-6.0-4.25","543","","","","","clear_screen","null","null","","","catch","sh","sw","l","209","142","209","219","182","298","spektor","null","null","null","null","null","null","null","null","null","null","null","","180","200","260","200","36000","52000","[1,3]","549.6446321808971","141.8785256462779","428.62718394437013"
"","canvas-keyboard-response","186","298530","0.0-6.0-5.25","543","","","","","make choice","3114","3","","","catch","sh","sw","l","209","142","209","219","182","298","spektor","null","null","null","null","null","null","null","null","null","null","null","","180","200","260","200","36000","52000","[1,3]","","",""
"","canvas-keyboard-response","187","298550","0.0-6.0-6.25","543","","","","","clear_screen","null","null","","","catch","sh","sw","l","209","142","209","219","182","298","spektor","null","null","null","null","null","null","null","null","null","null","null","","180","200","260","200","36000","52000","[1,3]","","",""
"","canvas-keyboard-response","188","298754","0.0-6.0-0.26","543","","","","","pre trial waiting period","null","null","","","catch","sh","sw","l","200","205","140","211","221","266","spektor","null","null","null","null","null","null","null","null","null","null","null","","180","200","260","200","36000","52000","[2,3]","485.5451710525444","136.71039458897948","461.04031905967275"
"","canvas-keyboard-response","189","298775","0.0-6.0-1.26","543","","","","","clear_screen","null","null","","","catch","sh","sw","l","200","205","140","211","221","266","spektor","null","null","null","null","null","null","null","null","null","null","null","","180","200","260","200","36000","52000","[2,3]","485.5451710525444","136.71039458897948","461.04031905967275"
"","canvas-keyboard-response","190","299287","0.0-6.0-2.26","543","","","","","rectangles no change","null","null","","","catch","sh","sw","l","200","205","140","211","221","266","spektor","null","null","null","null","null","null","null","null","null","null","null","","180","200","260","200","36000","52000","[2,3]","485.5451710525444","136.71039458897948","461.04031905967275"
"","canvas-keyboard-response","191","300622","0.0-6.0-3.26","543","","","","","rectangles with change","null","null","","","catch","sh","sw","l","200","205","140","211","221","266","spektor","null","null","null","null","null","null","null","null","null","null","null","","180","200","260","200","36000","52000","[2,3]","485.5451710525444","136.71039458897948","461.04031905967275"
"","canvas-keyboard-response","192","300642","0.0-6.0-4.26","543","","","","","clear_screen","null","null","","","catch","sh","sw","l","200","205","140","211","221","266","spektor","null","null","null","null","null","null","null","null","null","null","null","","180","200","260","200","36000","52000","[2,3]","485.5451710525444","136.71039458897948","461.04031905967275"
"","canvas-keyboard-response","193","302162","0.0-6.0-5.26","543","","","","","make choice","1512","3","","","catch","sh","sw","l","200","205","140","211","221","266","spektor","null","null","null","null","null","null","null","null","null","null","null","","180","200","260","200","36000","52000","[2,3]","","",""
"","canvas-keyboard-response","194","302182","0.0-6.0-6.26","543","","","","","clear_screen","null","null","","","catch","sh","sw","l","200","205","140","211","221","266","spektor","null","null","null","null","null","null","null","null","null","null","null","","180","200","260","200","36000","52000","[2,3]","","",""
"","canvas-keyboard-response","195","302384","0.0-6.0-0.27","543","","","","","pre trial waiting period","null","null","","","critical","t","c","d","164","240","240","164","160.6713","232.8713","trueblood","0.05","h","164","240","240","164","160.6713","232.8713","39360","39360","37415.7294","dc","null","null","null","null","null","null","[3,2]","436.21860349532614","476.8606747612092","464.031792232918"
"","canvas-keyboard-response","196","302403","0.0-6.0-1.27","543","","","","","clear_screen","null","null","","","critical","t","c","d","164","240","240","164","160.6713","232.8713","trueblood","0.05","h","164","240","240","164","160.6713","232.8713","39360","39360","37415.7294","dc","null","null","null","null","null","null","[3,2]","436.21860349532614","476.8606747612092","464.031792232918"
"","canvas-keyboard-response","197","302915","0.0-6.0-2.27","543","","","","","rectangles no change","null","null","","","critical","t","c","d","164","240","240","164","160.6713","232.8713","trueblood","0.05","h","164","240","240","164","160.6713","232.8713","39360","39360","37415.7294","dc","null","null","null","null","null","null","[3,2]","436.21860349532614","476.8606747612092","464.031792232918"
"","canvas-keyboard-response","198","304250","0.0-6.0-3.27","543","","","","","rectangles with change","null","null","","","critical","t","c","d","164","240","240","164","160.6713","232.8713","trueblood","0.05","h","164","240","240","164","160.6713","232.8713","39360","39360","37415.7294","dc","null","null","null","null","null","null","[3,2]","436.21860349532614","476.8606747612092","464.031792232918"
"","canvas-keyboard-response","199","304272","0.0-6.0-4.27","543","","","","","clear_screen","null","null","","","critical","t","c","d","164","240","240","164","160.6713","232.8713","trueblood","0.05","h","164","240","240","164","160.6713","232.8713","39360","39360","37415.7294","dc","null","null","null","null","null","null","[3,2]","436.21860349532614","476.8606747612092","464.031792232918"
"","canvas-keyboard-response","200","305242","0.0-6.0-5.27","543","","","","","make choice","963","2","","","critical","t","c","d","164","240","240","164","160.6713","232.8713","trueblood","0.05","h","164","240","240","164","160.6713","232.8713","39360","39360","37415.7294","dc","null","null","null","null","null","null","[3,2]","","",""
"","canvas-keyboard-response","201","305265","0.0-6.0-6.27","543","","","","","clear_screen","null","null","","","critical","t","c","d","164","240","240","164","160.6713","232.8713","trueblood","0.05","h","164","240","240","164","160.6713","232.8713","39360","39360","37415.7294","dc","null","null","null","null","null","null","[3,2]","","",""
"","canvas-keyboard-response","202","305468","0.0-6.0-0.28","543","","","","","pre trial waiting period","null","null","","","catch","sw","l","sh","180","200","169","234","210","155","trueblood","null","null","null","null","null","null","null","null","null","null","null","","180","200","260","200","36000","52000","[1,2]","454.4367080415253","450.46907637952376","512.200170796394"
"","canvas-keyboard-response","203","305488","0.0-6.0-1.28","543","","","","","clear_screen","null","null","","","catch","sw","l","sh","180","200","169","234","210","155","trueblood","null","null","null","null","null","null","null","null","null","null","null","","180","200","260","200","36000","52000","[1,2]","454.4367080415253","450.46907637952376","512.200170796394"
"","canvas-keyboard-response","204","305999","0.0-6.0-2.28","543","","","","","rectangles no change","null","null","","","catch","sw","l","sh","180","200","169","234","210","155","trueblood","null","null","null","null","null","null","null","null","null","null","null","","180","200","260","200","36000","52000","[1,2]","454.4367080415253","450.46907637952376","512.200170796394"
"","canvas-keyboard-response","205","307334","0.0-6.0-3.28","543","","","","","rectangles with change","null","null","","","catch","sw","l","sh","180","200","169","234","210","155","trueblood","null","null","null","null","null","null","null","null","null","null","null","","180","200","260","200","36000","52000","[1,2]","454.4367080415253","450.46907637952376","512.200170796394"
"","canvas-keyboard-response","206","307353","0.0-6.0-4.28","543","","","","","clear_screen","null","null","","","catch","sw","l","sh","180","200","169","234","210","155","trueblood","null","null","null","null","null","null","null","null","null","null","null","","180","200","260","200","36000","52000","[1,2]","454.4367080415253","450.46907637952376","512.200170796394"
"","canvas-keyboard-response","207","307905","0.0-6.0-5.28","543","","","","","make choice","544","2","","","catch","sw","l","sh","180","200","169","234","210","155","trueblood","null","null","null","null","null","null","null","null","null","null","null","","180","200","260","200","36000","52000","[1,2]","","",""
"","canvas-keyboard-response","208","307925","0.0-6.0-6.28","543","","","","","clear_screen","null","null","","","catch","sw","l","sh","180","200","169","234","210","155","trueblood","null","null","null","null","null","null","null","null","null","null","null","","180","200","260","200","36000","52000","[1,2]","","",""
"","canvas-keyboard-response","209","308126","0.0-6.0-0.29","543","","","","","pre trial waiting period","null","null","","","critical","t","c","d","164","240","240","164","162.6685","237.1485","trueblood","0.02","h","164","240","240","164","162.6685","237.1485","39360","39360","38576.5967","td","null","null","null","null","null","null","[1,3]","434.3579471186127","488.91849561971515","452.9795740959217"
"","canvas-keyboard-response","210","308147","0.0-6.0-1.29","543","","","","","clear_screen","null","null","","","critical","t","c","d","164","240","240","164","162.6685","237.1485","trueblood","0.02","h","164","240","240","164","162.6685","237.1485","39360","39360","38576.5967","td","null","null","null","null","null","null","[1,3]","434.3579471186127","488.91849561971515","452.9795740959217"
"","canvas-keyboard-response","211","308657","0.0-6.0-2.29","543","","","","","rectangles no change","null","null","","","critical","t","c","d","164","240","240","164","162.6685","237.1485","trueblood","0.02","h","164","240","240","164","162.6685","237.1485","39360","39360","38576.5967","td","null","null","null","null","null","null","[1,3]","434.3579471186127","488.91849561971515","452.9795740959217"
"","canvas-keyboard-response","212","309993","0.0-6.0-3.29","543","","","","","rectangles with change","null","null","","","critical","t","c","d","164","240","240","164","162.6685","237.1485","trueblood","0.02","h","164","240","240","164","162.6685","237.1485","39360","39360","38576.5967","td","null","null","null","null","null","null","[1,3]","434.3579471186127","488.91849561971515","452.9795740959217"
"","canvas-keyboard-response","213","310013","0.0-6.0-4.29","543","","","","","clear_screen","null","null","","","critical","t","c","d","164","240","240","164","162.6685","237.1485","trueblood","0.02","h","164","240","240","164","162.6685","237.1485","39360","39360","38576.5967","td","null","null","null","null","null","null","[1,3]","434.3579471186127","488.91849561971515","452.9795740959217"
"","canvas-keyboard-response","214","311082","0.0-6.0-5.29","543","","","","","make choice","1062","1","","","critical","t","c","d","164","240","240","164","162.6685","237.1485","trueblood","0.02","h","164","240","240","164","162.6685","237.1485","39360","39360","38576.5967","td","null","null","null","null","null","null","[1,3]","","",""
"","canvas-keyboard-response","215","311100","0.0-6.0-6.29","543","","","","","clear_screen","null","null","","","critical","t","c","d","164","240","240","164","162.6685","237.1485","trueblood","0.02","h","164","240","240","164","162.6685","237.1485","39360","39360","38576.5967","td","null","null","null","null","null","null","[1,3]","","",""
"","canvas-keyboard-response","216","311302","0.0-6.0-0.30","543","","","","","pre trial waiting period","null","null","","","catch","sw","sh","l","180","200","221","179","227","238","spektor","null","null","null","null","null","null","null","null","null","null","null","","180","200","260","200","36000","52000","[2,3]","487.4458800287031","143.17770704996354","473.96575300923524"
"","canvas-keyboard-response","217","311321","0.0-6.0-1.30","543","","","","","clear_screen","null","null","","","catch","sw","sh","l","180","200","221","179","227","238","spektor","null","null","null","null","null","null","null","null","null","null","null","","180","200","260","200","36000","52000","[2,3]","487.4458800287031","143.17770704996354","473.96575300923524"
"","canvas-keyboard-response","218","311831","0.0-6.0-2.30","543","","","","","rectangles no change","null","null","","","catch","sw","sh","l","180","200","221","179","227","238","spektor","null","null","null","null","null","null","null","null","null","null","null","","180","200","260","200","36000","52000","[2,3]","487.4458800287031","143.17770704996354","473.96575300923524"
"","canvas-keyboard-response","219","313167","0.0-6.0-3.30","543","","","","","rectangles with change","null","null","","","catch","sw","sh","l","180","200","221","179","227","238","spektor","null","null","null","null","null","null","null","null","null","null","null","","180","200","260","200","36000","52000","[2,3]","487.4458800287031","143.17770704996354","473.96575300923524"
"","canvas-keyboard-response","220","313187","0.0-6.0-4.30","543","","","","","clear_screen","null","null","","","catch","sw","sh","l","180","200","221","179","227","238","spektor","null","null","null","null","null","null","null","null","null","null","null","","180","200","260","200","36000","52000","[2,3]","487.4458800287031","143.17770704996354","473.96575300923524"
"","canvas-keyboard-response","221","313561","0.0-6.0-5.30","543","","","","","make choice","367","3","","","catch","sw","sh","l","180","200","221","179","227","238","spektor","null","null","null","null","null","null","null","null","null","null","null","","180","200","260","200","36000","52000","[2,3]","","",""
"","canvas-keyboard-response","222","313582","0.0-6.0-6.30","543","","","","","clear_screen","null","null","","","catch","sw","sh","l","180","200","221","179","227","238","spektor","null","null","null","null","null","null","null","null","null","null","null","","180","200","260","200","36000","52000","[2,3]","","",""
"","canvas-keyboard-response","223","313783","0.0-6.0-0.31","543","","","","","pre trial waiting period","null","null","","","critical","t","c","d","164","240","240","164","154.6796","220.0396","trueblood","0.14","h","164","240","240","164","154.6796","220.0396","39360","39360","34035.6388","dc","null","null","null","null","null","null","[3,2]","423.78990365067204","481.0996938680091","479.9236079211435"
"","canvas-keyboard-response","224","313802","0.0-6.0-1.31","543","","","","","clear_screen","null","null","","","critical","t","c","d","164","240","240","164","154.6796","220.0396","trueblood","0.14","h","164","240","240","164","154.6796","220.0396","39360","39360","34035.6388","dc","null","null","null","null","null","null","[3,2]","423.78990365067204","481.0996938680091","479.9236079211435"
"","canvas-keyboard-response","225","314313","0.0-6.0-2.31","543","","","","","rectangles no change","null","null","","","critical","t","c","d","164","240","240","164","154.6796","220.0396","trueblood","0.14","h","164","240","240","164","154.6796","220.0396","39360","39360","34035.6388","dc","null","null","null","null","null","null","[3,2]","423.78990365067204","481.0996938680091","479.9236079211435"
"","canvas-keyboard-response","226","315648","0.0-6.0-3.31","543","","","","","rectangles with change","null","null","","","critical","t","c","d","164","240","240","164","154.6796","220.0396","trueblood","0.14","h","164","240","240","164","154.6796","220.0396","39360","39360","34035.6388","dc","null","null","null","null","null","null","[3,2]","423.78990365067204","481.0996938680091","479.9236079211435"
"","canvas-keyboard-response","227","315666","0.0-6.0-4.31","543","","","","","clear_screen","null","null","","","critical","t","c","d","164","240","240","164","154.6796","220.0396","trueblood","0.14","h","164","240","240","164","154.6796","220.0396","39360","39360","34035.6388","dc","null","null","null","null","null","null","[3,2]","423.78990365067204","481.0996938680091","479.9236079211435"
"","canvas-keyboard-response","228","316193","0.0-6.0-5.31","543","","","","","make choice","519","2","","","critical","t","c","d","164","240","240","164","154.6796","220.0396","trueblood","0.14","h","164","240","240","164","154.6796","220.0396","39360","39360","34035.6388","dc","null","null","null","null","null","null","[3,2]","","",""
"","canvas-keyboard-response","229","316211","0.0-6.0-6.31","543","","","","","clear_screen","null","null","","","critical","t","c","d","164","240","240","164","154.6796","220.0396","trueblood","0.14","h","164","240","240","164","154.6796","220.0396","39360","39360","34035.6388","dc","null","null","null","null","null","null","[3,2]","","",""
"","canvas-keyboard-response","230","316413","0.0-6.0-0.32","543","","","","","pre trial waiting period","null","null","","","critical","d","t","c","237.1485","162.6685","240","164","164","240","trueblood","0.02","w","240","164","164","240","237.1485","162.6685","39360","39360","38576.5967","dc","null","null","null","null","null","null","[1,3]","496.81826687068497","514.7086235006404","451.6412669950502"
"","canvas-keyboard-response","231","316432","0.0-6.0-1.32","543","","","","","clear_screen","null","null","","","critical","d","t","c","237.1485","162.6685","240","164","164","240","trueblood","0.02","w","240","164","164","240","237.1485","162.6685","39360","39360","38576.5967","dc","null","null","null","null","null","null","[1,3]","496.81826687068497","514.7086235006404","451.6412669950502"
"","canvas-keyboard-response","232","316943","0.0-6.0-2.32","543","","","","","rectangles no change","null","null","","","critical","d","t","c","237.1485","162.6685","240","164","164","240","trueblood","0.02","w","240","164","164","240","237.1485","162.6685","39360","39360","38576.5967","dc","null","null","null","null","null","null","[1,3]","496.81826687068497","514.7086235006404","451.6412669950502"
"","canvas-keyboard-response","233","318279","0.0-6.0-3.32","543","","","","","rectangles with change","null","null","","","critical","d","t","c","237.1485","162.6685","240","164","164","240","trueblood","0.02","w","240","164","164","240","237.1485","162.6685","39360","39360","38576.5967","dc","null","null","null","null","null","null","[1,3]","496.81826687068497","514.7086235006404","451.6412669950502"
"","canvas-keyboard-response","234","318298","0.0-6.0-4.32","543","","","","","clear_screen","null","null","","","critical","d","t","c","237.1485","162.6685","240","164","164","240","trueblood","0.02","w","240","164","164","240","237.1485","162.6685","39360","39360","38576.5967","dc","null","null","null","null","null","null","[1,3]","496.81826687068497","514.7086235006404","451.6412669950502"
"","canvas-keyboard-response","235","318937","0.0-6.0-5.32","543","","","","","make choice","632","1","","","critical","d","t","c","237.1485","162.6685","240","164","164","240","trueblood","0.02","w","240","164","164","240","237.1485","162.6685","39360","39360","38576.5967","dc","null","null","null","null","null","null","[1,3]","","",""
"","canvas-keyboard-response","236","318956","0.0-6.0-6.32","543","","","","","clear_screen","null","null","","","critical","d","t","c","237.1485","162.6685","240","164","164","240","trueblood","0.02","w","240","164","164","240","237.1485","162.6685","39360","39360","38576.5967","dc","null","null","null","null","null","null","[1,3]","","",""
"","canvas-keyboard-response","237","319157","0.0-6.0-0.33","543","","","","","pre trial waiting period","null","null","","","critical","c","t","d","164","240","240","164","220.0396","154.6796","spektor","0.14","w","240","164","164","240","220.0396","154.6796","39360","39360","34035.6388","td","null","null","null","null","null","null","[2,3]","488.33752590973575","178.47021300896807","522.3702342387387"
"","canvas-keyboard-response","238","319176","0.0-6.0-1.33","543","","","","","clear_screen","null","null","","","critical","c","t","d","164","240","240","164","220.0396","154.6796","spektor","0.14","w","240","164","164","240","220.0396","154.6796","39360","39360","34035.6388","td","null","null","null","null","null","null","[2,3]","488.33752590973575","178.47021300896807","522.3702342387387"
"","canvas-keyboard-response","239","319689","0.0-6.0-2.33","543","","","","","rectangles no change","null","null","","","critical","c","t","d","164","240","240","164","220.0396","154.6796","spektor","0.14","w","240","164","164","240","220.0396","154.6796","39360","39360","34035.6388","td","null","null","null","null","null","null","[2,3]","488.33752590973575","178.47021300896807","522.3702342387387"
"","canvas-keyboard-response","240","321024","0.0-6.0-3.33","543","","","","","rectangles with change","null","null","","","critical","c","t","d","164","240","240","164","220.0396","154.6796","spektor","0.14","w","240","164","164","240","220.0396","154.6796","39360","39360","34035.6388","td","null","null","null","null","null","null","[2,3]","488.33752590973575","178.47021300896807","522.3702342387387"
"","canvas-keyboard-response","241","321042","0.0-6.0-4.33","543","","","","","clear_screen","null","null","","","critical","c","t","d","164","240","240","164","220.0396","154.6796","spektor","0.14","w","240","164","164","240","220.0396","154.6796","39360","39360","34035.6388","td","null","null","null","null","null","null","[2,3]","488.33752590973575","178.47021300896807","522.3702342387387"
"","canvas-keyboard-response","242","322089","0.0-6.0-5.33","543","","","","","make choice","1041","3","","","critical","c","t","d","164","240","240","164","220.0396","154.6796","spektor","0.14","w","240","164","164","240","220.0396","154.6796","39360","39360","34035.6388","td","null","null","null","null","null","null","[2,3]","","",""
"","canvas-keyboard-response","243","322108","0.0-6.0-6.33","543","","","","","clear_screen","null","null","","","critical","c","t","d","164","240","240","164","220.0396","154.6796","spektor","0.14","w","240","164","164","240","220.0396","154.6796","39360","39360","34035.6388","td","null","null","null","null","null","null","[2,3]","","",""
"","canvas-keyboard-response","244","322308","0.0-6.0-0.34","543","","","","","pre trial waiting period","null","null","","","critical","d","c","t","227.1683","158.0083","164","240","240","164","spektor","0.09","w","240","164","164","240","227.1683","158.0083","39360","39360","35894.4834","td","null","null","null","null","null","null","[3,1]","536.1945358051396","132.24734719307008","505.0017112922221"
"","canvas-keyboard-response","245","322328","0.0-6.0-1.34","543","","","","","clear_screen","null","null","","","critical","d","c","t","227.1683","158.0083","164","240","240","164","spektor","0.09","w","240","164","164","240","227.1683","158.0083","39360","39360","35894.4834","td","null","null","null","null","null","null","[3,1]","536.1945358051396","132.24734719307008","505.0017112922221"
"","canvas-keyboard-response","246","322838","0.0-6.0-2.34","543","","","","","rectangles no change","null","null","","","critical","d","c","t","227.1683","158.0083","164","240","240","164","spektor","0.09","w","240","164","164","240","227.1683","158.0083","39360","39360","35894.4834","td","null","null","null","null","null","null","[3,1]","536.1945358051396","132.24734719307008","505.0017112922221"
"","canvas-keyboard-response","247","324175","0.0-6.0-3.34","543","","","","","rectangles with change","null","null","","","critical","d","c","t","227.1683","158.0083","164","240","240","164","spektor","0.09","w","240","164","164","240","227.1683","158.0083","39360","39360","35894.4834","td","null","null","null","null","null","null","[3,1]","536.1945358051396","132.24734719307008","505.0017112922221"
"","canvas-keyboard-response","248","324193","0.0-6.0-4.34","543","","","","","clear_screen","null","null","","","critical","d","c","t","227.1683","158.0083","164","240","240","164","spektor","0.09","w","240","164","164","240","227.1683","158.0083","39360","39360","35894.4834","td","null","null","null","null","null","null","[3,1]","536.1945358051396","132.24734719307008","505.0017112922221"
"","canvas-keyboard-response","249","325233","0.0-6.0-5.34","543","","","","","make choice","1033","3","","","critical","d","c","t","227.1683","158.0083","164","240","240","164","spektor","0.09","w","240","164","164","240","227.1683","158.0083","39360","39360","35894.4834","td","null","null","null","null","null","null","[3,1]","","",""
"","canvas-keyboard-response","250","325251","0.0-6.0-6.34","543","","","","","clear_screen","null","null","","","critical","d","c","t","227.1683","158.0083","164","240","240","164","spektor","0.09","w","240","164","164","240","227.1683","158.0083","39360","39360","35894.4834","td","null","null","null","null","null","null","[3,1]","","",""
"","canvas-keyboard-response","251","325453","0.0-6.0-0.35","543","","","","","pre trial waiting period","null","null","","","catch","sh","sw","l","235","150","141","161","228","241","trueblood","null","null","null","null","null","null","null","null","null","null","null","","180","200","260","200","36000","52000","[2,3]","482.5275599039945","486.78980636685554","447.4344691709548"
"","canvas-keyboard-response","252","325471","0.0-6.0-1.35","543","","","","","clear_screen","null","null","","","catch","sh","sw","l","235","150","141","161","228","241","trueblood","null","null","null","null","null","null","null","null","null","null","null","","180","200","260","200","36000","52000","[2,3]","482.5275599039945","486.78980636685554","447.4344691709548"
"","canvas-keyboard-response","253","325984","0.0-6.0-2.35","543","","","","","rectangles no change","null","null","","","catch","sh","sw","l","235","150","141","161","228","241","trueblood","null","null","null","null","null","null","null","null","null","null","null","","180","200","260","200","36000","52000","[2,3]","482.5275599039945","486.78980636685554","447.4344691709548"
"","canvas-keyboard-response","254","327319","0.0-6.0-3.35","543","","","","","rectangles with change","null","null","","","catch","sh","sw","l","235","150","141","161","228","241","trueblood","null","null","null","null","null","null","null","null","null","null","null","","180","200","260","200","36000","52000","[2,3]","482.5275599039945","486.78980636685554","447.4344691709548"
"","canvas-keyboard-response","255","327338","0.0-6.0-4.35","543","","","","","clear_screen","null","null","","","catch","sh","sw","l","235","150","141","161","228","241","trueblood","null","null","null","null","null","null","null","null","null","null","null","","180","200","260","200","36000","52000","[2,3]","482.5275599039945","486.78980636685554","447.4344691709548"
"","canvas-keyboard-response","256","328369","0.0-6.0-5.35","543","","","","","make choice","1025","3","","","catch","sh","sw","l","235","150","141","161","228","241","trueblood","null","null","null","null","null","null","null","null","null","null","null","","180","200","260","200","36000","52000","[2,3]","","",""
"","canvas-keyboard-response","257","328388","0.0-6.0-6.35","543","","","","","clear_screen","null","null","","","catch","sh","sw","l","235","150","141","161","228","241","trueblood","null","null","null","null","null","null","null","null","null","null","null","","180","200","260","200","36000","52000","[2,3]","","",""
"","canvas-keyboard-response","258","328589","0.0-6.0-0.36","543","","","","","pre trial waiting period","null","null","","","catch","l","sw","sh","262","169","203","184","200","192","trueblood","null","null","null","null","null","null","null","null","null","null","null","","180","200","260","200","36000","52000","[1,3]","504.2761738876645","459.2052116461549","483.3665503558353"
"","canvas-keyboard-response","259","328612","0.0-6.0-1.36","543","","","","","clear_screen","null","null","","","catch","l","sw","sh","262","169","203","184","200","192","trueblood","null","null","null","null","null","null","null","null","null","null","null","","180","200","260","200","36000","52000","[1,3]","504.2761738876645","459.2052116461549","483.3665503558353"
"","canvas-keyboard-response","260","329123","0.0-6.0-2.36","543","","","","","rectangles no change","null","null","","","catch","l","sw","sh","262","169","203","184","200","192","trueblood","null","null","null","null","null","null","null","null","null","null","null","","180","200","260","200","36000","52000","[1,3]","504.2761738876645","459.2052116461549","483.3665503558353"
"","canvas-keyboard-response","261","330460","0.0-6.0-3.36","543","","","","","rectangles with change","null","null","","","catch","l","sw","sh","262","169","203","184","200","192","trueblood","null","null","null","null","null","null","null","null","null","null","null","","180","200","260","200","36000","52000","[1,3]","504.2761738876645","459.2052116461549","483.3665503558353"
"","canvas-keyboard-response","262","330478","0.0-6.0-4.36","543","","","","","clear_screen","null","null","","","catch","l","sw","sh","262","169","203","184","200","192","trueblood","null","null","null","null","null","null","null","null","null","null","null","","180","200","260","200","36000","52000","[1,3]","504.2761738876645","459.2052116461549","483.3665503558353"
"","canvas-keyboard-response","263","331281","0.0-6.0-5.36","543","","","","","make choice","794","1","","","catch","l","sw","sh","262","169","203","184","200","192","trueblood","null","null","null","null","null","null","null","null","null","null","null","","180","200","260","200","36000","52000","[1,3]","","",""
"","canvas-keyboard-response","264","331301","0.0-6.0-6.36","543","","","","","clear_screen","null","null","","","catch","l","sw","sh","262","169","203","184","200","192","trueblood","null","null","null","null","null","null","null","null","null","null","null","","180","200","260","200","36000","52000","[1,3]","","",""
"","canvas-keyboard-response","265","331503","0.0-6.0-0.37","543","","","","","pre trial waiting period","null","null","","","critical","c","d","t","240","164","154.6796","220.0396","164","240","trueblood","0.14","h","164","240","240","164","154.6796","220.0396","39360","39360","34035.6388","tc","null","null","null","null","null","null","[3,1]","491.49145102651045","481.6328432373284","464.1817916212975"
"","canvas-keyboard-response","266","331522","0.0-6.0-1.37","543","","","","","clear_screen","null","null","","","critical","c","d","t","240","164","154.6796","220.0396","164","240","trueblood","0.14","h","164","240","240","164","154.6796","220.0396","39360","39360","34035.6388","tc","null","null","null","null","null","null","[3,1]","491.49145102651045","481.6328432373284","464.1817916212975"
