"success","trial_type","trial_index","time_elapsed","internal_node_id","sub_n","timeout","failed_images","failed_audio","failed_video","screen_id","rt","response","stimulus","view_history","trial","r1","r2","r3","w1","h1","w2","h2","w3","h3","display","tdd","tdo","tw","th","cw","ch","dw","dh","ta","ca","da","probe","csls","csss","clls","clss","sa","la","probe_rects","r1yloc","r2yloc","r3yloc"
"true","fullscreen","0","3456","0.0-0.0","500","","","","","","","","","","","","","","","","","","","","","","","","","","","","","","","","","","","","","","","","","",""
"true","preload","1","3476","0.0-1.0","500","false","[]","[]","[]","img preload","","","","","","","","","","","","","","","","","","","","","","","","","","","","","","","","","","","","",""
"","survey-html-form","2","8787","0.0-2.0","500","","","","","enter-sub-number","5306","{""response"":""500""}","","","","","","","","","","","","","","","","","","","","","","","","","","","","","","","","","","",""
"","image-button-response","3","30135","0.0-3.0","500","","","","","","21280","0","consent.png","","","","","","","","","","","","","","","","","","","","","","","","","","","","","","","","","",""
"","html-button-response","4","35070","0.0-4.0","500","","","","","intro mssg","4931","0","<div style= ""font-size:25px;"" <p> <strong> Welcome! </strong><br> <p style=""color:#8B0000; font-size:25px;""><strong> Please do NOT exit full screen until you are done with the experiment. </strong> </p><p style=""font-size:25px;color:#8B0000;""> <strong> Your data will be lost <br> if you try to go back or refresh the page after the experiment starts. Feel free to click ""previous"" during the instructions, however.</strong> </p><br><p> <strong> Thanks in advance for your contribution to our research! </strong></p>","","","","","","","","","","","","","","","","","","","","","","","","","","","","","","","","","",""
"","instructions","5","70631","0.0-5.0","500","","","","","instructions","35557","","","[{""page_index"":0,""viewing_time"":4478},{""page_index"":1,""viewing_time"":4447},{""page_index"":2,""viewing_time"":3688},{""page_index"":3,""viewing_time"":13872},{""page_index"":4,""viewing_time"":4128},{""page_index"":5,""viewing_time"":2008},{""page_index"":6,""viewing_time"":2055},{""page_index"":7,""viewing_time"":880}]","","","","","","","","","","","","","","","","","","","","","","","","","","","","","","","","",""
"","canvas-keyboard-response","6","70836","0.0-6.0-0.0","500","","","","","pre trial waiting period","null","null","","","critical","t","c","d","164","240","240","164","162.6685","237.1485","spektor","0.02","h","164","240","240","164","162.6685","237.1485","39360","39360","38576.5967","tc","null","null","null","null","null","null","[1,2]","500.0538648715089","151.66806413106966","465.4688492449175"
"","canvas-keyboard-response","7","70863","0.0-6.0-1.0","500","","","","","clear_screen","null","null","","","critical","t","c","d","164","240","240","164","162.6685","237.1485","spektor","0.02","h","164","240","240","164","162.6685","237.1485","39360","39360","38576.5967","tc","null","null","null","null","null","null","[1,2]","500.0538648715089","151.66806413106966","465.4688492449175"
"","canvas-keyboard-response","8","71375","0.0-6.0-2.0","500","","","","","rectangles no change","null","null","","","critical","t","c","d","164","240","240","164","162.6685","237.1485","spektor","0.02","h","164","240","240","164","162.6685","237.1485","39360","39360","38576.5967","tc","null","null","null","null","null","null","[1,2]","500.0538648715089","151.66806413106966","465.4688492449175"
"","canvas-keyboard-response","9","72714","0.0-6.0-3.0","500","","","","","rectangles with change","null","null","","","critical","t","c","d","164","240","240","164","162.6685","237.1485","spektor","0.02","h","164","240","240","164","162.6685","237.1485","39360","39360","38576.5967","tc","null","null","null","null","null","null","[1,2]","500.0538648715089","151.66806413106966","465.4688492449175"
"","canvas-keyboard-response","10","72731","0.0-6.0-4.0","500","","","","","clear_screen","null","null","","","critical","t","c","d","164","240","240","164","162.6685","237.1485","spektor","0.02","h","164","240","240","164","162.6685","237.1485","39360","39360","38576.5967","tc","null","null","null","null","null","null","[1,2]","500.0538648715089","151.66806413106966","465.4688492449175"
"","canvas-keyboard-response","11","74735","0.0-6.0-5.0","500","","","","","make choice","1993","2","","","critical","t","c","d","164","240","240","164","162.6685","237.1485","spektor","0.02","h","164","240","240","164","162.6685","237.1485","39360","39360","38576.5967","tc","null","null","null","null","null","null","[1,2]","","",""
"","canvas-keyboard-response","12","74758","0.0-6.0-6.0","500","","","","","clear_screen","null","null","","","critical","t","c","d","164","240","240","164","162.6685","237.1485","spektor","0.02","h","164","240","240","164","162.6685","237.1485","39360","39360","38576.5967","tc","null","null","null","null","null","null","[1,2]","","",""
"","canvas-keyboard-response","13","74959","0.0-6.0-0.1","500","","","","","pre trial waiting period","null","null","","","critical","d","t","c","162.6685","237.1485","164","240","240","164","trueblood","0.02","h","164","240","240","164","162.6685","237.1485","39360","39360","38576.5967","tc","null","null","null","null","null","null","[2,3]","459.4339925843861","448.2130123930894","515.4009002193812"
"","canvas-keyboard-response","14","74979","0.0-6.0-1.1","500","","","","","clear_screen","null","null","","","critical","d","t","c","162.6685","237.1485","164","240","240","164","trueblood","0.02","h","164","240","240","164","162.6685","237.1485","39360","39360","38576.5967","tc","null","null","null","null","null","null","[2,3]","459.4339925843861","448.2130123930894","515.4009002193812"
"","canvas-keyboard-response","15","75487","0.0-6.0-2.1","500","","","","","rectangles no change","null","null","","","critical","d","t","c","162.6685","237.1485","164","240","240","164","trueblood","0.02","h","164","240","240","164","162.6685","237.1485","39360","39360","38576.5967","tc","null","null","null","null","null","null","[2,3]","459.4339925843861","448.2130123930894","515.4009002193812"
"","canvas-keyboard-response","16","76825","0.0-6.0-3.1","500","","","","","rectangles with change","null","null","","","critical","d","t","c","162.6685","237.1485","164","240","240","164","trueblood","0.02","h","164","240","240","164","162.6685","237.1485","39360","39360","38576.5967","tc","null","null","null","null","null","null","[2,3]","459.4339925843861","448.2130123930894","515.4009002193812"
"","canvas-keyboard-response","17","76845","0.0-6.0-4.1","500","","","","","clear_screen","null","null","","","critical","d","t","c","162.6685","237.1485","164","240","240","164","trueblood","0.02","h","164","240","240","164","162.6685","237.1485","39360","39360","38576.5967","tc","null","null","null","null","null","null","[2,3]","459.4339925843861","448.2130123930894","515.4009002193812"
"","canvas-keyboard-response","18","79143","0.0-6.0-5.1","500","","","","","make choice","2292","3","","","critical","d","t","c","162.6685","237.1485","164","240","240","164","trueblood","0.02","h","164","240","240","164","162.6685","237.1485","39360","39360","38576.5967","tc","null","null","null","null","null","null","[2,3]","","",""
"","canvas-keyboard-response","19","79161","0.0-6.0-6.1","500","","","","","clear_screen","null","null","","","critical","d","t","c","162.6685","237.1485","164","240","240","164","trueblood","0.02","h","164","240","240","164","162.6685","237.1485","39360","39360","38576.5967","tc","null","null","null","null","null","null","[2,3]","","",""
"","canvas-keyboard-response","20","79362","0.0-6.0-0.2","500","","","","","pre trial waiting period","null","null","","","critical","c","t","d","240","164","164","240","162.6685","237.1485","spektor","0.02","h","164","240","240","164","162.6685","237.1485","39360","39360","38576.5967","dc","null","null","null","null","null","null","[3,1]","516.239329318451","124.830835587132","480.4225483543745"
"","canvas-keyboard-response","21","79383","0.0-6.0-1.2","500","","","","","clear_screen","null","null","","","critical","c","t","d","240","164","164","240","162.6685","237.1485","spektor","0.02","h","164","240","240","164","162.6685","237.1485","39360","39360","38576.5967","dc","null","null","null","null","null","null","[3,1]","516.239329318451","124.830835587132","480.4225483543745"
"","canvas-keyboard-response","22","79896","0.0-6.0-2.2","500","","","","","rectangles no change","null","null","","","critical","c","t","d","240","164","164","240","162.6685","237.1485","spektor","0.02","h","164","240","240","164","162.6685","237.1485","39360","39360","38576.5967","dc","null","null","null","null","null","null","[3,1]","516.239329318451","124.830835587132","480.4225483543745"
"","canvas-keyboard-response","23","81232","0.0-6.0-3.2","500","","","","","rectangles with change","null","null","","","critical","c","t","d","240","164","164","240","162.6685","237.1485","spektor","0.02","h","164","240","240","164","162.6685","237.1485","39360","39360","38576.5967","dc","null","null","null","null","null","null","[3,1]","516.239329318451","124.830835587132","480.4225483543745"
"","canvas-keyboard-response","24","81253","0.0-6.0-4.2","500","","","","","clear_screen","null","null","","","critical","c","t","d","240","164","164","240","162.6685","237.1485","spektor","0.02","h","164","240","240","164","162.6685","237.1485","39360","39360","38576.5967","dc","null","null","null","null","null","null","[3,1]","516.239329318451","124.830835587132","480.4225483543745"
"","canvas-keyboard-response","25","82351","0.0-6.0-5.2","500","","","","","make choice","1091","1","","","critical","c","t","d","240","164","164","240","162.6685","237.1485","spektor","0.02","h","164","240","240","164","162.6685","237.1485","39360","39360","38576.5967","dc","null","null","null","null","null","null","[3,1]","","",""
"","canvas-keyboard-response","26","82368","0.0-6.0-6.2","500","","","","","clear_screen","null","null","","","critical","c","t","d","240","164","164","240","162.6685","237.1485","spektor","0.02","h","164","240","240","164","162.6685","237.1485","39360","39360","38576.5967","dc","null","null","null","null","null","null","[3,1]","","",""
"","canvas-keyboard-response","27","82570","0.0-6.0-0.3","500","","","","","pre trial waiting period","null","null","","","critical","d","t","c","164","240","164","240","240","164","spektor","0","h","164","240","240","164","164","240","39360","39360","39360","tc","null","null","null","null","null","null","[2,3]","492.18151585979734","117.00607966918732","497.11564984442253"
"","canvas-keyboard-response","28","82593","0.0-6.0-1.3","500","","","","","clear_screen","null","null","","","critical","d","t","c","164","240","164","240","240","164","spektor","0","h","164","240","240","164","164","240","39360","39360","39360","tc","null","null","null","null","null","null","[2,3]","492.18151585979734","117.00607966918732","497.11564984442253"
"","canvas-keyboard-response","29","83103","0.0-6.0-2.3","500","","","","","rectangles no change","null","null","","","critical","d","t","c","164","240","164","240","240","164","spektor","0","h","164","240","240","164","164","240","39360","39360","39360","tc","null","null","null","null","null","null","[2,3]","492.18151585979734","117.00607966918732","497.11564984442253"
"","canvas-keyboard-response","30","84438","0.0-6.0-3.3","500","","","","","rectangles with change","null","null","","","critical","d","t","c","164","240","164","240","240","164","spektor","0","h","164","240","240","164","164","240","39360","39360","39360","tc","null","null","null","null","null","null","[2,3]","492.18151585979734","117.00607966918732","497.11564984442253"
"","canvas-keyboard-response","31","84459","0.0-6.0-4.3","500","","","","","clear_screen","null","null","","","critical","d","t","c","164","240","164","240","240","164","spektor","0","h","164","240","240","164","164","240","39360","39360","39360","tc","null","null","null","null","null","null","[2,3]","492.18151585979734","117.00607966918732","497.11564984442253"
"","canvas-keyboard-response","32","84935","0.0-6.0-5.3","500","","","","","make choice","466","3","","","critical","d","t","c","164","240","164","240","240","164","spektor","0","h","164","240","240","164","164","240","39360","39360","39360","tc","null","null","null","null","null","null","[2,3]","","",""
"","canvas-keyboard-response","33","84953","0.0-6.0-6.3","500","","","","","clear_screen","null","null","","","critical","d","t","c","164","240","164","240","240","164","spektor","0","h","164","240","240","164","164","240","39360","39360","39360","tc","null","null","null","null","null","null","[2,3]","","",""
"","canvas-keyboard-response","34","85154","0.0-6.0-0.4","500","","","","","pre trial waiting period","null","null","","","critical","t","c","d","240","164","164","240","237.1485","162.6685","spektor","0.02","w","240","164","164","240","237.1485","162.6685","39360","39360","38576.5967","tc","null","null","null","null","null","null","[1,2]","523.9737761912914","123.55517458849222","538.4478364976711"
"","canvas-keyboard-response","35","85178","0.0-6.0-1.4","500","","","","","clear_screen","null","null","","","critical","t","c","d","240","164","164","240","237.1485","162.6685","spektor","0.02","w","240","164","164","240","237.1485","162.6685","39360","39360","38576.5967","tc","null","null","null","null","null","null","[1,2]","523.9737761912914","123.55517458849222","538.4478364976711"
"","canvas-keyboard-response","36","85686","0.0-6.0-2.4","500","","","","","rectangles no change","null","null","","","critical","t","c","d","240","164","164","240","237.1485","162.6685","spektor","0.02","w","240","164","164","240","237.1485","162.6685","39360","39360","38576.5967","tc","null","null","null","null","null","null","[1,2]","523.9737761912914","123.55517458849222","538.4478364976711"
"","canvas-keyboard-response","37","87026","0.0-6.0-3.4","500","","","","","rectangles with change","null","null","","","critical","t","c","d","240","164","164","240","237.1485","162.6685","spektor","0.02","w","240","164","164","240","237.1485","162.6685","39360","39360","38576.5967","tc","null","null","null","null","null","null","[1,2]","523.9737761912914","123.55517458849222","538.4478364976711"
"","canvas-keyboard-response","38","87048","0.0-6.0-4.4","500","","","","","clear_screen","null","null","","","critical","t","c","d","240","164","164","240","237.1485","162.6685","spektor","0.02","w","240","164","164","240","237.1485","162.6685","39360","39360","38576.5967","tc","null","null","null","null","null","null","[1,2]","523.9737761912914","123.55517458849222","538.4478364976711"
"","canvas-keyboard-response","39","87567","0.0-6.0-5.4","500","","","","","make choice","513","1","","","critical","t","c","d","240","164","164","240","237.1485","162.6685","spektor","0.02","w","240","164","164","240","237.1485","162.6685","39360","39360","38576.5967","tc","null","null","null","null","null","null","[1,2]","","",""
"","canvas-keyboard-response","40","87585","0.0-6.0-6.4","500","","","","","clear_screen","null","null","","","critical","t","c","d","240","164","164","240","237.1485","162.6685","spektor","0.02","w","240","164","164","240","237.1485","162.6685","39360","39360","38576.5967","tc","null","null","null","null","null","null","[1,2]","","",""
"","canvas-keyboard-response","41","87787","0.0-6.0-0.5","500","","","","","pre trial waiting period","null","null","","","catch","sh","l","sw","214","144","211","238","158","235","trueblood","null","null","null","null","null","null","null","null","null","null","null","","180","200","260","200","36000","52000","[1,2]","512.4726068904725","440.8847539324677","425.1209977739986"
"","canvas-keyboard-response","42","87806","0.0-6.0-1.5","500","","","","","clear_screen","null","null","","","catch","sh","l","sw","214","144","211","238","158","235","trueblood","null","null","null","null","null","null","null","null","null","null","null","","180","200","260","200","36000","52000","[1,2]","512.4726068904725","440.8847539324677","425.1209977739986"
"","canvas-keyboard-response","43","88314","0.0-6.0-2.5","500","","","","","rectangles no change","null","null","","","catch","sh","l","sw","214","144","211","238","158","235","trueblood","null","null","null","null","null","null","null","null","null","null","null","","180","200","260","200","36000","52000","[1,2]","512.4726068904725","440.8847539324677","425.1209977739986"
"","canvas-keyboard-response","44","89653","0.0-6.0-3.5","500","","","","","rectangles with change","null","null","","","catch","sh","l","sw","214","144","211","238","158","235","trueblood","null","null","null","null","null","null","null","null","null","null","null","","180","200","260","200","36000","52000","[1,2]","512.4726068904725","440.8847539324677","425.1209977739986"
"","canvas-keyboard-response","45","89674","0.0-6.0-4.5","500","","","","","clear_screen","null","null","","","catch","sh","l","sw","214","144","211","238","158","235","trueblood","null","null","null","null","null","null","null","null","null","null","null","","180","200","260","200","36000","52000","[1,2]","512.4726068904725","440.8847539324677","425.1209977739986"
"","canvas-keyboard-response","46","90454","0.0-6.0-5.5","500","","","","","make choice","774","2","","","catch","sh","l","sw","214","144","211","238","158","235","trueblood","null","null","null","null","null","null","null","null","null","null","null","","180","200","260","200","36000","52000","[1,2]","","",""
"","canvas-keyboard-response","47","90473","0.0-6.0-6.5","500","","","","","clear_screen","null","null","","","catch","sh","l","sw","214","144","211","238","158","235","trueblood","null","null","null","null","null","null","null","null","null","null","null","","180","200","260","200","36000","52000","[1,2]","","",""
"","canvas-keyboard-response","48","90675","0.0-6.0-0.6","500","","","","","pre trial waiting period","null","null","","","critical","d","t","c","160.6713","232.8713","164","240","240","164","trueblood","0.05","h","164","240","240","164","160.6713","232.8713","39360","39360","37415.7294","tc","null","null","null","null","null","null","[2,3]","446.4435355325335","427.68926470777416","493.15984944246765"
"","canvas-keyboard-response","49","90697","0.0-6.0-1.6","500","","","","","clear_screen","null","null","","","critical","d","t","c","160.6713","232.8713","164","240","240","164","trueblood","0.05","h","164","240","240","164","160.6713","232.8713","39360","39360","37415.7294","tc","null","null","null","null","null","null","[2,3]","446.4435355325335","427.68926470777416","493.15984944246765"
"","canvas-keyboard-response","50","91206","0.0-6.0-2.6","500","","","","","rectangles no change","null","null","","","critical","d","t","c","160.6713","232.8713","164","240","240","164","trueblood","0.05","h","164","240","240","164","160.6713","232.8713","39360","39360","37415.7294","tc","null","null","null","null","null","null","[2,3]","446.4435355325335","427.68926470777416","493.15984944246765"
"","canvas-keyboard-response","51","92541","0.0-6.0-3.6","500","","","","","rectangles with change","null","null","","","critical","d","t","c","160.6713","232.8713","164","240","240","164","trueblood","0.05","h","164","240","240","164","160.6713","232.8713","39360","39360","37415.7294","tc","null","null","null","null","null","null","[2,3]","446.4435355325335","427.68926470777416","493.15984944246765"
"","canvas-keyboard-response","52","92564","0.0-6.0-4.6","500","","","","","clear_screen","null","null","","","critical","d","t","c","160.6713","232.8713","164","240","240","164","trueblood","0.05","h","164","240","240","164","160.6713","232.8713","39360","39360","37415.7294","tc","null","null","null","null","null","null","[2,3]","446.4435355325335","427.68926470777416","493.15984944246765"
"","canvas-keyboard-response","53","94000","0.0-6.0-5.6","500","","","","","make choice","1428","2","","","critical","d","t","c","160.6713","232.8713","164","240","240","164","trueblood","0.05","h","164","240","240","164","160.6713","232.8713","39360","39360","37415.7294","tc","null","null","null","null","null","null","[2,3]","","",""
"","canvas-keyboard-response","54","94020","0.0-6.0-6.6","500","","","","","clear_screen","null","null","","","critical","d","t","c","160.6713","232.8713","164","240","240","164","trueblood","0.05","h","164","240","240","164","160.6713","232.8713","39360","39360","37415.7294","tc","null","null","null","null","null","null","[2,3]","","",""
"","canvas-keyboard-response","55","94222","0.0-6.0-0.7","500","","","","","pre trial waiting period","null","null","","","critical","c","d","t","164","240","232.8713","160.6713","240","164","spektor","0.05","w","240","164","164","240","232.8713","160.6713","39360","39360","37415.7294","dc","null","null","null","null","null","null","[2,1]","483.3853275567228","177.41113271023724","531.2898056269391"
"","canvas-keyboard-response","56","94246","0.0-6.0-1.7","500","","","","","clear_screen","null","null","","","critical","c","d","t","164","240","232.8713","160.6713","240","164","spektor","0.05","w","240","164","164","240","232.8713","160.6713","39360","39360","37415.7294","dc","null","null","null","null","null","null","[2,1]","483.3853275567228","177.41113271023724","531.2898056269391"
"","canvas-keyboard-response","57","94756","0.0-6.0-2.7","500","","","","","rectangles no change","null","null","","","critical","c","d","t","164","240","232.8713","160.6713","240","164","spektor","0.05","w","240","164","164","240","232.8713","160.6713","39360","39360","37415.7294","dc","null","null","null","null","null","null","[2,1]","483.3853275567228","177.41113271023724","531.2898056269391"
"","canvas-keyboard-response","58","96094","0.0-6.0-3.7","500","","","","","rectangles with change","null","null","","","critical","c","d","t","164","240","232.8713","160.6713","240","164","spektor","0.05","w","240","164","164","240","232.8713","160.6713","39360","39360","37415.7294","dc","null","null","null","null","null","null","[2,1]","483.3853275567228","177.41113271023724","531.2898056269391"
"","canvas-keyboard-response","59","96114","0.0-6.0-4.7","500","","","","","clear_screen","null","null","","","critical","c","d","t","164","240","232.8713","160.6713","240","164","spektor","0.05","w","240","164","164","240","232.8713","160.6713","39360","39360","37415.7294","dc","null","null","null","null","null","null","[2,1]","483.3853275567228","177.41113271023724","531.2898056269391"
"","canvas-keyboard-response","60","96487","0.0-6.0-5.7","500","","","","","make choice","365","1","","","critical","c","d","t","164","240","232.8713","160.6713","240","164","spektor","0.05","w","240","164","164","240","232.8713","160.6713","39360","39360","37415.7294","dc","null","null","null","null","null","null","[2,1]","","",""
"","canvas-keyboard-response","61","96507","0.0-6.0-6.7","500","","","","","clear_screen","null","null","","","critical","c","d","t","164","240","232.8713","160.6713","240","164","spektor","0.05","w","240","164","164","240","232.8713","160.6713","39360","39360","37415.7294","dc","null","null","null","null","null","null","[2,1]","","",""
"","canvas-keyboard-response","62","96709","0.0-6.0-0.8","500","","","","","pre trial waiting period","null","null","","","critical","d","t","c","232.8713","160.6713","240","164","164","240","trueblood","0.05","w","240","164","164","240","232.8713","160.6713","39360","39360","37415.7294","tc","null","null","null","null","null","null","[2,3]","478.0007082573803","513.5474812165774","467.8937553027071"
"","canvas-keyboard-response","63","96729","0.0-6.0-1.8","500","","","","","clear_screen","null","null","","","critical","d","t","c","232.8713","160.6713","240","164","164","240","trueblood","0.05","w","240","164","164","240","232.8713","160.6713","39360","39360","37415.7294","tc","null","null","null","null","null","null","[2,3]","478.0007082573803","513.5474812165774","467.8937553027071"
"","canvas-keyboard-response","64","97239","0.0-6.0-2.8","500","","","","","rectangles no change","null","null","","","critical","d","t","c","232.8713","160.6713","240","164","164","240","trueblood","0.05","w","240","164","164","240","232.8713","160.6713","39360","39360","37415.7294","tc","null","null","null","null","null","null","[2,3]","478.0007082573803","513.5474812165774","467.8937553027071"
"","canvas-keyboard-response","65","98576","0.0-6.0-3.8","500","","","","","rectangles with change","null","null","","","critical","d","t","c","232.8713","160.6713","240","164","164","240","trueblood","0.05","w","240","164","164","240","232.8713","160.6713","39360","39360","37415.7294","tc","null","null","null","null","null","null","[2,3]","478.0007082573803","513.5474812165774","467.8937553027071"
"","canvas-keyboard-response","66","98596","0.0-6.0-4.8","500","","","","","clear_screen","null","null","","","critical","d","t","c","232.8713","160.6713","240","164","164","240","trueblood","0.05","w","240","164","164","240","232.8713","160.6713","39360","39360","37415.7294","tc","null","null","null","null","null","null","[2,3]","478.0007082573803","513.5474812165774","467.8937553027071"
"","canvas-keyboard-response","67","99775","0.0-6.0-5.8","500","","","","","make choice","1169","3","","","critical","d","t","c","232.8713","160.6713","240","164","164","240","trueblood","0.05","w","240","164","164","240","232.8713","160.6713","39360","39360","37415.7294","tc","null","null","null","null","null","null","[2,3]","","",""
"","canvas-keyboard-response","68","99796","0.0-6.0-6.8","500","","","","","clear_screen","null","null","","","critical","d","t","c","232.8713","160.6713","240","164","164","240","trueblood","0.05","w","240","164","164","240","232.8713","160.6713","39360","39360","37415.7294","tc","null","null","null","null","null","null","[2,3]","","",""
"","canvas-keyboard-response","69","99998","0.0-6.0-0.9","500","","","","","pre trial waiting period","null","null","","","catch","sh","l","sw","210","159","290","234","211","169","spektor","null","null","null","null","null","null","null","null","null","null","null","","180","200","260","200","36000","52000","[1,2]","524.2758574778599","115.02923676067573","497.2435510505455"
"","canvas-keyboard-response","70","100020","0.0-6.0-1.9","500","","","","","clear_screen","null","null","","","catch","sh","l","sw","210","159","290","234","211","169","spektor","null","null","null","null","null","null","null","null","null","null","null","","180","200","260","200","36000","52000","[1,2]","524.2758574778599","115.02923676067573","497.2435510505455"
"","canvas-keyboard-response","71","100527","0.0-6.0-2.9","500","","","","","rectangles no change","null","null","","","catch","sh","l","sw","210","159","290","234","211","169","spektor","null","null","null","null","null","null","null","null","null","null","null","","180","200","260","200","36000","52000","[1,2]","524.2758574778599","115.02923676067573","497.2435510505455"
"","canvas-keyboard-response","72","101862","0.0-6.0-3.9","500","","","","","rectangles with change","null","null","","","catch","sh","l","sw","210","159","290","234","211","169","spektor","null","null","null","null","null","null","null","null","null","null","null","","180","200","260","200","36000","52000","[1,2]","524.2758574778599","115.02923676067573","497.2435510505455"
"","canvas-keyboard-response","73","101885","0.0-6.0-4.9","500","","","","","clear_screen","null","null","","","catch","sh","l","sw","210","159","290","234","211","169","spektor","null","null","null","null","null","null","null","null","null","null","null","","180","200","260","200","36000","52000","[1,2]","524.2758574778599","115.02923676067573","497.2435510505455"
"","canvas-keyboard-response","74","102615","0.0-6.0-5.9","500","","","","","make choice","721","2","","","catch","sh","l","sw","210","159","290","234","211","169","spektor","null","null","null","null","null","null","null","null","null","null","null","","180","200","260","200","36000","52000","[1,2]","","",""
"","canvas-keyboard-response","75","102633","0.0-6.0-6.9","500","","","","","clear_screen","null","null","","","catch","sh","l","sw","210","159","290","234","211","169","spektor","null","null","null","null","null","null","null","null","null","null","null","","180","200","260","200","36000","52000","[1,2]","","",""
"","canvas-keyboard-response","76","102836","0.0-6.0-0.10","500","","","","","pre trial waiting period","null","null","","","catch","l","sh","sw","224","238","234","180","147","217","trueblood","null","null","null","null","null","null","null","null","null","null","null","","180","200","260","200","36000","52000","[1,2]","426.3299553613415","500.79440937902694","465.0969918300662"
"","canvas-keyboard-response","77","102858","0.0-6.0-1.10","500","","","","","clear_screen","null","null","","","catch","l","sh","sw","224","238","234","180","147","217","trueblood","null","null","null","null","null","null","null","null","null","null","null","","180","200","260","200","36000","52000","[1,2]","426.3299553613415","500.79440937902694","465.0969918300662"
"","canvas-keyboard-response","78","103364","0.0-6.0-2.10","500","","","","","rectangles no change","null","null","","","catch","l","sh","sw","224","238","234","180","147","217","trueblood","null","null","null","null","null","null","null","null","null","null","null","","180","200","260","200","36000","52000","[1,2]","426.3299553613415","500.79440937902694","465.0969918300662"
"","canvas-keyboard-response","79","104701","0.0-6.0-3.10","500","","","","","rectangles with change","null","null","","","catch","l","sh","sw","224","238","234","180","147","217","trueblood","null","null","null","null","null","null","null","null","null","null","null","","180","200","260","200","36000","52000","[1,2]","426.3299553613415","500.79440937902694","465.0969918300662"
"","canvas-keyboard-response","80","104720","0.0-6.0-4.10","500","","","","","clear_screen","null","null","","","catch","l","sh","sw","224","238","234","180","147","217","trueblood","null","null","null","null","null","null","null","null","null","null","null","","180","200","260","200","36000","52000","[1,2]","426.3299553613415","500.79440937902694","465.0969918300662"
"","canvas-keyboard-response","81","105087","0.0-6.0-5.10","500","","","","","make choice","359","1","","","catch","l","sh","sw","224","238","234","180","147","217","trueblood","null","null","null","null","null","null","null","null","null","null","null","","180","200","260","200","36000","52000","[1,2]","","",""
"","canvas-keyboard-response","82","105105","0.0-6.0-6.10","500","","","","","clear_screen","null","null","","","catch","l","sh","sw","224","238","234","180","147","217","trueblood","null","null","null","null","null","null","null","null","null","null","null","","180","200","260","200","36000","52000","[1,2]","","",""
"","canvas-keyboard-response","83","105306","0.0-6.0-0.11","500","","","","","pre trial waiting period","null","null","","","critical","t","c","d","240","164","164","240","237.1485","162.6685","spektor","0.02","w","240","164","164","240","237.1485","162.6685","39360","39360","38576.5967","dc","null","null","null","null","null","null","[3,2]","522.9226380632297","130.40489492766574","515.9072569916702"
"","canvas-keyboard-response","84","105329","0.0-6.0-1.11","500","","","","","clear_screen","null","null","","","critical","t","c","d","240","164","164","240","237.1485","162.6685","spektor","0.02","w","240","164","164","240","237.1485","162.6685","39360","39360","38576.5967","dc","null","null","null","null","null","null","[3,2]","522.9226380632297","130.40489492766574","515.9072569916702"
"","canvas-keyboard-response","85","105838","0.0-6.0-2.11","500","","","","","rectangles no change","null","null","","","critical","t","c","d","240","164","164","240","237.1485","162.6685","spektor","0.02","w","240","164","164","240","237.1485","162.6685","39360","39360","38576.5967","dc","null","null","null","null","null","null","[3,2]","522.9226380632297","130.40489492766574","515.9072569916702"
"","canvas-keyboard-response","86","107177","0.0-6.0-3.11","500","","","","","rectangles with change","null","null","","","critical","t","c","d","240","164","164","240","237.1485","162.6685","spektor","0.02","w","240","164","164","240","237.1485","162.6685","39360","39360","38576.5967","dc","null","null","null","null","null","null","[3,2]","522.9226380632297","130.40489492766574","515.9072569916702"
"","canvas-keyboard-response","87","107201","0.0-6.0-4.11","500","","","","","clear_screen","null","null","","","critical","t","c","d","240","164","164","240","237.1485","162.6685","spektor","0.02","w","240","164","164","240","237.1485","162.6685","39360","39360","38576.5967","dc","null","null","null","null","null","null","[3,2]","522.9226380632297","130.40489492766574","515.9072569916702"
"","canvas-keyboard-response","88","107934","0.0-6.0-5.11","500","","","","","make choice","725","3","","","critical","t","c","d","240","164","164","240","237.1485","162.6685","spektor","0.02","w","240","164","164","240","237.1485","162.6685","39360","39360","38576.5967","dc","null","null","null","null","null","null","[3,2]","","",""
"","canvas-keyboard-response","89","107953","0.0-6.0-6.11","500","","","","","clear_screen","null","null","","","critical","t","c","d","240","164","164","240","237.1485","162.6685","spektor","0.02","w","240","164","164","240","237.1485","162.6685","39360","39360","38576.5967","dc","null","null","null","null","null","null","[3,2]","","",""
"","canvas-keyboard-response","90","108154","0.0-6.0-0.12","500","","","","","pre trial waiting period","null","null","","","critical","t","c","d","164","240","240","164","154.6796","220.0396","trueblood","0.14","h","164","240","240","164","154.6796","220.0396","39360","39360","34035.6388","tc","null","null","null","null","null","null","[1,2]","422.2421923552698","477.1035388727197","434.8807902527505"
"","canvas-keyboard-response","91","108175","0.0-6.0-1.12","500","","","","","clear_screen","null","null","","","critical","t","c","d","164","240","240","164","154.6796","220.0396","trueblood","0.14","h","164","240","240","164","154.6796","220.0396","39360","39360","34035.6388","tc","null","null","null","null","null","null","[1,2]","422.2421923552698","477.1035388727197","434.8807902527505"
"","canvas-keyboard-response","92","108683","0.0-6.0-2.12","500","","","","","rectangles no change","null","null","","","critical","t","c","d","164","240","240","164","154.6796","220.0396","trueblood","0.14","h","164","240","240","164","154.6796","220.0396","39360","39360","34035.6388","tc","null","null","null","null","null","null","[1,2]","422.2421923552698","477.1035388727197","434.8807902527505"
"","canvas-keyboard-response","93","110018","0.0-6.0-3.12","500","","","","","rectangles with change","null","null","","","critical","t","c","d","164","240","240","164","154.6796","220.0396","trueblood","0.14","h","164","240","240","164","154.6796","220.0396","39360","39360","34035.6388","tc","null","null","null","null","null","null","[1,2]","422.2421923552698","477.1035388727197","434.8807902527505"
"","canvas-keyboard-response","94","110038","0.0-6.0-4.12","500","","","","","clear_screen","null","null","","","critical","t","c","d","164","240","240","164","154.6796","220.0396","trueblood","0.14","h","164","240","240","164","154.6796","220.0396","39360","39360","34035.6388","tc","null","null","null","null","null","null","[1,2]","422.2421923552698","477.1035388727197","434.8807902527505"
"","canvas-keyboard-response","95","110446","0.0-6.0-5.12","500","","","","","make choice","401","1","","","critical","t","c","d","164","240","240","164","154.6796","220.0396","trueblood","0.14","h","164","240","240","164","154.6796","220.0396","39360","39360","34035.6388","tc","null","null","null","null","null","null","[1,2]","","",""
"","canvas-keyboard-response","96","110468","0.0-6.0-6.12","500","","","","","clear_screen","null","null","","","critical","t","c","d","164","240","240","164","154.6796","220.0396","trueblood","0.14","h","164","240","240","164","154.6796","220.0396","39360","39360","34035.6388","tc","null","null","null","null","null","null","[1,2]","","",""
"","canvas-keyboard-response","97","110669","0.0-6.0-0.13","500","","","","","pre trial waiting period","null","null","","","catch","sw","l","sh","180","200","183","294","219","210","trueblood","null","null","null","null","null","null","null","null","null","null","null","","180","200","260","200","36000","52000","[2,3]","448.4927982411036","402.92238397351656","486.7227514626792"
"","canvas-keyboard-response","98","110693","0.0-6.0-1.13","500","","","","","clear_screen","null","null","","","catch","sw","l","sh","180","200","183","294","219","210","trueblood","null","null","null","null","null","null","null","null","null","null","null","","180","200","260","200","36000","52000","[2,3]","448.4927982411036","402.92238397351656","486.7227514626792"
"","canvas-keyboard-response","99","111201","0.0-6.0-2.13","500","","","","","rectangles no change","null","null","","","catch","sw","l","sh","180","200","183","294","219","210","trueblood","null","null","null","null","null","null","null","null","null","null","null","","180","200","260","200","36000","52000","[2,3]","448.4927982411036","402.92238397351656","486.7227514626792"
"","canvas-keyboard-response","100","112538","0.0-6.0-3.13","500","","","","","rectangles with change","null","null","","","catch","sw","l","sh","180","200","183","294","219","210","trueblood","null","null","null","null","null","null","null","null","null","null","null","","180","200","260","200","36000","52000","[2,3]","448.4927982411036","402.92238397351656","486.7227514626792"
"","canvas-keyboard-response","101","112556","0.0-6.0-4.13","500","","","","","clear_screen","null","null","","","catch","sw","l","sh","180","200","183","294","219","210","trueblood","null","null","null","null","null","null","null","null","null","null","null","","180","200","260","200","36000","52000","[2,3]","448.4927982411036","402.92238397351656","486.7227514626792"
"","canvas-keyboard-response","102","113806","0.0-6.0-5.13","500","","","","","make choice","1245","2","","","catch","sw","l","sh","180","200","183","294","219","210","trueblood","null","null","null","null","null","null","null","null","null","null","null","","180","200","260","200","36000","52000","[2,3]","","",""
"","canvas-keyboard-response","103","113825","0.0-6.0-6.13","500","","","","","clear_screen","null","null","","","catch","sw","l","sh","180","200","183","294","219","210","trueblood","null","null","null","null","null","null","null","null","null","null","null","","180","200","260","200","36000","52000","[2,3]","","",""
"","canvas-keyboard-response","104","114026","0.0-6.0-0.14","500","","","","","pre trial waiting period","null","null","","","catch","sw","l","sh","180","200","229","228","214","202","spektor","null","null","null","null","null","null","null","null","null","null","null","","180","200","260","200","36000","52000","[1,2]","524.747344238481","124.12340850221567","522.0247117274829"
"","canvas-keyboard-response","105","114044","0.0-6.0-1.14","500","","","","","clear_screen","null","null","","","catch","sw","l","sh","180","200","229","228","214","202","spektor","null","null","null","null","null","null","null","null","null","null","null","","180","200","260","200","36000","52000","[1,2]","524.747344238481","124.12340850221567","522.0247117274829"
"","canvas-keyboard-response","106","114555","0.0-6.0-2.14","500","","","","","rectangles no change","null","null","","","catch","sw","l","sh","180","200","229","228","214","202","spektor","null","null","null","null","null","null","null","null","null","null","null","","180","200","260","200","36000","52000","[1,2]","524.747344238481","124.12340850221567","522.0247117274829"
"","canvas-keyboard-response","107","115891","0.0-6.0-3.14","500","","","","","rectangles with change","null","null","","","catch","sw","l","sh","180","200","229","228","214","202","spektor","null","null","null","null","null","null","null","null","null","null","null","","180","200","260","200","36000","52000","[1,2]","524.747344238481","124.12340850221567","522.0247117274829"
"","canvas-keyboard-response","108","115910","0.0-6.0-4.14","500","","","","","clear_screen","null","null","","","catch","sw","l","sh","180","200","229","228","214","202","spektor","null","null","null","null","null","null","null","null","null","null","null","","180","200","260","200","36000","52000","[1,2]","524.747344238481","124.12340850221567","522.0247117274829"
"","canvas-keyboard-response","109","116278","0.0-6.0-5.14","500","","","","","make choice","361","2","","","catch","sw","l","sh","180","200","229","228","214","202","spektor","null","null","null","null","null","null","null","null","null","null","null","","180","200","260","200","36000","52000","[1,2]","","",""
"","canvas-keyboard-response","110","116297","0.0-6.0-6.14","500","","","","","clear_screen","null","null","","","catch","sw","l","sh","180","200","229","228","214","202","spektor","null","null","null","null","null","null","null","null","null","null","null","","180","200","260","200","36000","52000","[1,2]","","",""
"","canvas-keyboard-response","111","116498","0.0-6.0-0.15","500","","","","","pre trial waiting period","null","null","","","catch","sh","sw","l","204","156","204","219","173","269","spektor","null","null","null","null","null","null","null","null","null","null","null","","180","200","260","200","36000","52000","[2,3]","520.3275290741351","121.83401930248363","479.88984421846874"
"","canvas-keyboard-response","112","116521","0.0-6.0-1.15","500","","","","","clear_screen","null","null","","","catch","sh","sw","l","204","156","204","219","173","269","spektor","null","null","null","null","null","null","null","null","null","null","null","","180","200","260","200","36000","52000","[2,3]","520.3275290741351","121.83401930248363","479.88984421846874"
"","canvas-keyboard-response","113","117029","0.0-6.0-2.15","500","","","","","rectangles no change","null","null","","","catch","sh","sw","l","204","156","204","219","173","269","spektor","null","null","null","null","null","null","null","null","null","null","null","","180","200","260","200","36000","52000","[2,3]","520.3275290741351","121.83401930248363","479.88984421846874"
"","canvas-keyboard-response","114","118364","0.0-6.0-3.15","500","","","","","rectangles with change","null","null","","","catch","sh","sw","l","204","156","204","219","173","269","spektor","null","null","null","null","null","null","null","null","null","null","null","","180","200","260","200","36000","52000","[2,3]","520.3275290741351","121.83401930248363","479.88984421846874"
"","canvas-keyboard-response","115","118384","0.0-6.0-4.15","500","","","","","clear_screen","null","null","","","catch","sh","sw","l","204","156","204","219","173","269","spektor","null","null","null","null","null","null","null","null","null","null","null","","180","200","260","200","36000","52000","[2,3]","520.3275290741351","121.83401930248363","479.88984421846874"
"","canvas-keyboard-response","116","119335","0.0-6.0-5.15","500","","","","","make choice","942","2","","","catch","sh","sw","l","204","156","204","219","173","269","spektor","null","null","null","null","null","null","null","null","null","null","null","","180","200","260","200","36000","52000","[2,3]","","",""
"","canvas-keyboard-response","117","119353","0.0-6.0-6.15","500","","","","","clear_screen","null","null","","","catch","sh","sw","l","204","156","204","219","173","269","spektor","null","null","null","null","null","null","null","null","null","null","null","","180","200","260","200","36000","52000","[2,3]","","",""
"","canvas-keyboard-response","118","119554","0.0-6.0-0.16","500","","","","","pre trial waiting period","null","null","","","critical","d","c","t","240","164","164","240","240","164","trueblood","0","w","240","164","164","240","240","164","39360","39360","39360","tc","null","null","null","null","null","null","[3,2]","515.139597237276","435.02146069137615","475.29111805041435"
"","canvas-keyboard-response","119","119575","0.0-6.0-1.16","500","","","","","clear_screen","null","null","","","critical","d","c","t","240","164","164","240","240","164","trueblood","0","w","240","164","164","240","240","164","39360","39360","39360","tc","null","null","null","null","null","null","[3,2]","515.139597237276","435.02146069137615","475.29111805041435"
"","canvas-keyboard-response","120","120082","0.0-6.0-2.16","500","","","","","rectangles no change","null","null","","","critical","d","c","t","240","164","164","240","240","164","trueblood","0","w","240","164","164","240","240","164","39360","39360","39360","tc","null","null","null","null","null","null","[3,2]","515.139597237276","435.02146069137615","475.29111805041435"
"","canvas-keyboard-response","121","121417","0.0-6.0-3.16","500","","","","","rectangles with change","null","null","","","critical","d","c","t","240","164","164","240","240","164","trueblood","0","w","240","164","164","240","240","164","39360","39360","39360","tc","null","null","null","null","null","null","[3,2]","515.139597237276","435.02146069137615","475.29111805041435"
"","canvas-keyboard-response","122","121440","0.0-6.0-4.16","500","","","","","clear_screen","null","null","","","critical","d","c","t","240","164","164","240","240","164","trueblood","0","w","240","164","164","240","240","164","39360","39360","39360","tc","null","null","null","null","null","null","[3,2]","515.139597237276","435.02146069137615","475.29111805041435"
"","canvas-keyboard-response","123","122238","0.0-6.0-5.16","500","","","","","make choice","791","3","","","critical","d","c","t","240","164","164","240","240","164","trueblood","0","w","240","164","164","240","240","164","39360","39360","39360","tc","null","null","null","null","null","null","[3,2]","","",""
"","canvas-keyboard-response","124","122256","0.0-6.0-6.16","500","","","","","clear_screen","null","null","","","critical","d","c","t","240","164","164","240","240","164","trueblood","0","w","240","164","164","240","240","164","39360","39360","39360","tc","null","null","null","null","null","null","[3,2]","","",""
"","canvas-keyboard-response","125","122457","0.0-6.0-0.17","500","","","","","pre trial waiting period","null","null","","","catch","l","sw","sh","202","290","184","232","225","152","trueblood","null","null","null","null","null","null","null","null","null","null","null","","180","200","260","200","36000","52000","[1,2]","425.97603004468886","434.3677100415897","519.5330585086034"
"","canvas-keyboard-response","126","122478","0.0-6.0-1.17","500","","","","","clear_screen","null","null","","","catch","l","sw","sh","202","290","184","232","225","152","trueblood","null","null","null","null","null","null","null","null","null","null","null","","180","200","260","200","36000","52000","[1,2]","425.97603004468886","434.3677100415897","519.5330585086034"
"","canvas-keyboard-response","127","122985","0.0-6.0-2.17","500","","","","","rectangles no change","null","null","","","catch","l","sw","sh","202","290","184","232","225","152","trueblood","null","null","null","null","null","null","null","null","null","null","null","","180","200","260","200","36000","52000","[1,2]","425.97603004468886","434.3677100415897","519.5330585086034"
"","canvas-keyboard-response","128","124325","0.0-6.0-3.17","500","","","","","rectangles with change","null","null","","","catch","l","sw","sh","202","290","184","232","225","152","trueblood","null","null","null","null","null","null","null","null","null","null","null","","180","200","260","200","36000","52000","[1,2]","425.97603004468886","434.3677100415897","519.5330585086034"
"","canvas-keyboard-response","129","124348","0.0-6.0-4.17","500","","","","","clear_screen","null","null","","","catch","l","sw","sh","202","290","184","232","225","152","trueblood","null","null","null","null","null","null","null","null","null","null","null","","180","200","260","200","36000","52000","[1,2]","425.97603004468886","434.3677100415897","519.5330585086034"
"","canvas-keyboard-response","130","124646","0.0-6.0-5.17","500","","","","","make choice","290","1","","","catch","l","sw","sh","202","290","184","232","225","152","trueblood","null","null","null","null","null","null","null","null","null","null","null","","180","200","260","200","36000","52000","[1,2]","","",""
"","canvas-keyboard-response","131","124665","0.0-6.0-6.17","500","","","","","clear_screen","null","null","","","catch","l","sw","sh","202","290","184","232","225","152","trueblood","null","null","null","null","null","null","null","null","null","null","null","","180","200","260","200","36000","52000","[1,2]","","",""
"","canvas-keyboard-response","132","124866","0.0-6.0-0.18","500","","","","","pre trial waiting period","null","null","","","critical","t","c","d","164","240","240","164","158.0083","227.1683","trueblood","0.09","h","164","240","240","164","158.0083","227.1683","39360","39360","35894.4834","dc","null","null","null","null","null","null","[3,2]","450.64775765415646","478.71857309227306","462.7992492576324"
"","canvas-keyboard-response","133","124886","0.0-6.0-1.18","500","","","","","clear_screen","null","null","","","critical","t","c","d","164","240","240","164","158.0083","227.1683","trueblood","0.09","h","164","240","240","164","158.0083","227.1683","39360","39360","35894.4834","dc","null","null","null","null","null","null","[3,2]","450.64775765415646","478.71857309227306","462.7992492576324"
"","canvas-keyboard-response","134","125394","0.0-6.0-2.18","500","","","","","rectangles no change","null","null","","","critical","t","c","d","164","240","240","164","158.0083","227.1683","trueblood","0.09","h","164","240","240","164","158.0083","227.1683","39360","39360","35894.4834","dc","null","null","null","null","null","null","[3,2]","450.64775765415646","478.71857309227306","462.7992492576324"
"","canvas-keyboard-response","135","126729","0.0-6.0-3.18","500","","","","","rectangles with change","null","null","","","critical","t","c","d","164","240","240","164","158.0083","227.1683","trueblood","0.09","h","164","240","240","164","158.0083","227.1683","39360","39360","35894.4834","dc","null","null","null","null","null","null","[3,2]","450.64775765415646","478.71857309227306","462.7992492576324"
"","canvas-keyboard-response","136","126750","0.0-6.0-4.18","500","","","","","clear_screen","null","null","","","critical","t","c","d","164","240","240","164","158.0083","227.1683","trueblood","0.09","h","164","240","240","164","158.0083","227.1683","39360","39360","35894.4834","dc","null","null","null","null","null","null","[3,2]","450.64775765415646","478.71857309227306","462.7992492576324"
"","canvas-keyboard-response","137","127461","0.0-6.0-5.18","500","","","","","make choice","706","3","","","critical","t","c","d","164","240","240","164","158.0083","227.1683","trueblood","0.09","h","164","240","240","164","158.0083","227.1683","39360","39360","35894.4834","dc","null","null","null","null","null","null","[3,2]","","",""
"","canvas-keyboard-response","138","127479","0.0-6.0-6.18","500","","","","","clear_screen","null","null","","","critical","t","c","d","164","240","240","164","158.0083","227.1683","trueblood","0.09","h","164","240","240","164","158.0083","227.1683","39360","39360","35894.4834","dc","null","null","null","null","null","null","[3,2]","","",""
"","canvas-keyboard-response","139","127681","0.0-6.0-0.19","500","","","","","pre trial waiting period","null","null","","","critical","d","c","t","227.1683","158.0083","164","240","240","164","spektor","0.09","w","240","164","164","240","227.1683","158.0083","39360","39360","35894.4834","td","null","null","null","null","null","null","[3,1]","529.5671889928363","130.8558795578765","521.9452938765584"
"","canvas-keyboard-response","140","127705","0.0-6.0-1.19","500","","","","","clear_screen","null","null","","","critical","d","c","t","227.1683","158.0083","164","240","240","164","spektor","0.09","w","240","164","164","240","227.1683","158.0083","39360","39360","35894.4834","td","null","null","null","null","null","null","[3,1]","529.5671889928363","130.8558795578765","521.9452938765584"
"","canvas-keyboard-response","141","128213","0.0-6.0-2.19","500","","","","","rectangles no change","null","null","","","critical","d","c","t","227.1683","158.0083","164","240","240","164","spektor","0.09","w","240","164","164","240","227.1683","158.0083","39360","39360","35894.4834","td","null","null","null","null","null","null","[3,1]","529.5671889928363","130.8558795578765","521.9452938765584"
"","canvas-keyboard-response","142","129552","0.0-6.0-3.19","500","","","","","rectangles with change","null","null","","","critical","d","c","t","227.1683","158.0083","164","240","240","164","spektor","0.09","w","240","164","164","240","227.1683","158.0083","39360","39360","35894.4834","td","null","null","null","null","null","null","[3,1]","529.5671889928363","130.8558795578765","521.9452938765584"
"","canvas-keyboard-response","143","129576","0.0-6.0-4.19","500","","","","","clear_screen","null","null","","","critical","d","c","t","227.1683","158.0083","164","240","240","164","spektor","0.09","w","240","164","164","240","227.1683","158.0083","39360","39360","35894.4834","td","null","null","null","null","null","null","[3,1]","529.5671889928363","130.8558795578765","521.9452938765584"
"","canvas-keyboard-response","144","129871","0.0-6.0-5.19","500","","","","","make choice","285","3","","","critical","d","c","t","227.1683","158.0083","164","240","240","164","spektor","0.09","w","240","164","164","240","227.1683","158.0083","39360","39360","35894.4834","td","null","null","null","null","null","null","[3,1]","","",""
"","canvas-keyboard-response","145","129890","0.0-6.0-6.19","500","","","","","clear_screen","null","null","","","critical","d","c","t","227.1683","158.0083","164","240","240","164","spektor","0.09","w","240","164","164","240","227.1683","158.0083","39360","39360","35894.4834","td","null","null","null","null","null","null","[3,1]","","",""
"","canvas-keyboard-response","146","130091","0.0-6.0-0.20","500","","","","","pre trial waiting period","null","null","","","catch","sh","sw","l","231","182","213","167","178","285","spektor","null","null","null","null","null","null","null","null","null","null","null","","180","200","260","200","36000","52000","[1,3]","507.84798995620406","182.6251981373081","448.4757908364069"
"","canvas-keyboard-response","147","130112","0.0-6.0-1.20","500","","","","","clear_screen","null","null","","","catch","sh","sw","l","231","182","213","167","178","285","spektor","null","null","null","null","null","null","null","null","null","null","null","","180","200","260","200","36000","52000","[1,3]","507.84798995620406","182.6251981373081","448.4757908364069"
"","canvas-keyboard-response","148","130619","0.0-6.0-2.20","500","","","","","rectangles no change","null","null","","","catch","sh","sw","l","231","182","213","167","178","285","spektor","null","null","null","null","null","null","null","null","null","null","null","","180","200","260","200","36000","52000","[1,3]","507.84798995620406","182.6251981373081","448.4757908364069"
"","canvas-keyboard-response","149","131957","0.0-6.0-3.20","500","","","","","rectangles with change","null","null","","","catch","sh","sw","l","231","182","213","167","178","285","spektor","null","null","null","null","null","null","null","null","null","null","null","","180","200","260","200","36000","52000","[1,3]","507.84798995620406","182.6251981373081","448.4757908364069"
"","canvas-keyboard-response","150","131981","0.0-6.0-4.20","500","","","","","clear_screen","null","null","","","catch","sh","sw","l","231","182","213","167","178","285","spektor","null","null","null","null","null","null","null","null","null","null","null","","180","200","260","200","36000","52000","[1,3]","507.84798995620406","182.6251981373081","448.4757908364069"
"","canvas-keyboard-response","151","132238","0.0-6.0-5.20","500","","","","","make choice","251","3","","","catch","sh","sw","l","231","182","213","167","178","285","spektor","null","null","null","null","null","null","null","null","null","null","null","","180","200","260","200","36000","52000","[1,3]","","",""
"","canvas-keyboard-response","152","132258","0.0-6.0-6.20","500","","","","","clear_screen","null","null","","","catch","sh","sw","l","231","182","213","167","178","285","spektor","null","null","null","null","null","null","null","null","null","null","null","","180","200","260","200","36000","52000","[1,3]","","",""
"","canvas-keyboard-response","153","132459","0.0-6.0-0.21","500","","","","","pre trial waiting period","null","null","","","critical","d","c","t","237.1485","162.6685","164","240","240","164","spektor","0.02","w","240","164","164","240","237.1485","162.6685","39360","39360","38576.5967","td","null","null","null","null","null","null","[3,1]","520.6677132582575","135.94370617637392","535.7386798195363"
"","canvas-keyboard-response","154","132482","0.0-6.0-1.21","500","","","","","clear_screen","null","null","","","critical","d","c","t","237.1485","162.6685","164","240","240","164","spektor","0.02","w","240","164","164","240","237.1485","162.6685","39360","39360","38576.5967","td","null","null","null","null","null","null","[3,1]","520.6677132582575","135.94370617637392","535.7386798195363"
"","canvas-keyboard-response","155","132990","0.0-6.0-2.21","500","","","","","rectangles no change","null","null","","","critical","d","c","t","237.1485","162.6685","164","240","240","164","spektor","0.02","w","240","164","164","240","237.1485","162.6685","39360","39360","38576.5967","td","null","null","null","null","null","null","[3,1]","520.6677132582575","135.94370617637392","535.7386798195363"
"","canvas-keyboard-response","156","134326","0.0-6.0-3.21","500","","","","","rectangles with change","null","null","","","critical","d","c","t","237.1485","162.6685","164","240","240","164","spektor","0.02","w","240","164","164","240","237.1485","162.6685","39360","39360","38576.5967","td","null","null","null","null","null","null","[3,1]","520.6677132582575","135.94370617637392","535.7386798195363"
"","canvas-keyboard-response","157","134346","0.0-6.0-4.21","500","","","","","clear_screen","null","null","","","critical","d","c","t","237.1485","162.6685","164","240","240","164","spektor","0.02","w","240","164","164","240","237.1485","162.6685","39360","39360","38576.5967","td","null","null","null","null","null","null","[3,1]","520.6677132582575","135.94370617637392","535.7386798195363"
"","canvas-keyboard-response","158","134638","0.0-6.0-5.21","500","","","","","make choice","285","1","","","critical","d","c","t","237.1485","162.6685","164","240","240","164","spektor","0.02","w","240","164","164","240","237.1485","162.6685","39360","39360","38576.5967","td","null","null","null","null","null","null","[3,1]","","",""
"","canvas-keyboard-response","159","134656","0.0-6.0-6.21","500","","","","","clear_screen","null","null","","","critical","d","c","t","237.1485","162.6685","164","240","240","164","spektor","0.02","w","240","164","164","240","237.1485","162.6685","39360","39360","38576.5967","td","null","null","null","null","null","null","[3,1]","","",""
"","canvas-keyboard-response","160","134857","0.0-6.0-0.22","500","","","","","pre trial waiting period","null","null","","","critical","t","c","d","240","164","164","240","227.1683","158.0083","spektor","0.09","w","240","164","164","240","227.1683","158.0083","39360","39360","35894.4834","dc","null","null","null","null","null","null","[3,2]","536.375926474005","149.6954090167052","501.0745935758521"
"","canvas-keyboard-response","161","134878","0.0-6.0-1.22","500","","","","","clear_screen","null","null","","","critical","t","c","d","240","164","164","240","227.1683","158.0083","spektor","0.09","w","240","164","164","240","227.1683","158.0083","39360","39360","35894.4834","dc","null","null","null","null","null","null","[3,2]","536.375926474005","149.6954090167052","501.0745935758521"
"","canvas-keyboard-response","162","135387","0.0-6.0-2.22","500","","","","","rectangles no change","null","null","","","critical","t","c","d","240","164","164","240","227.1683","158.0083","spektor","0.09","w","240","164","164","240","227.1683","158.0083","39360","39360","35894.4834","dc","null","null","null","null","null","null","[3,2]","536.375926474005","149.6954090167052","501.0745935758521"
"","canvas-keyboard-response","163","136724","0.0-6.0-3.22","500","","","","","rectangles with change","null","null","","","critical","t","c","d","240","164","164","240","227.1683","158.0083","spektor","0.09","w","240","164","164","240","227.1683","158.0083","39360","39360","35894.4834","dc","null","null","null","null","null","null","[3,2]","536.375926474005","149.6954090167052","501.0745935758521"
"","canvas-keyboard-response","164","136748","0.0-6.0-4.22","500","","","","","clear_screen","null","null","","","critical","t","c","d","240","164","164","240","227.1683","158.0083","spektor","0.09","w","240","164","164","240","227.1683","158.0083","39360","39360","35894.4834","dc","null","null","null","null","null","null","[3,2]","536.375926474005","149.6954090167052","501.0745935758521"
"","canvas-keyboard-response","165","137054","0.0-6.0-5.22","500","","","","","make choice","300","2","","","critical","t","c","d","240","164","164","240","227.1683","158.0083","spektor","0.09","w","240","164","164","240","227.1683","158.0083","39360","39360","35894.4834","dc","null","null","null","null","null","null","[3,2]","","",""
"","canvas-keyboard-response","166","137074","0.0-6.0-6.22","500","","","","","clear_screen","null","null","","","critical","t","c","d","240","164","164","240","227.1683","158.0083","spektor","0.09","w","240","164","164","240","227.1683","158.0083","39360","39360","35894.4834","dc","null","null","null","null","null","null","[3,2]","","",""
"","canvas-keyboard-response","167","137274","0.0-6.0-0.23","500","","","","","pre trial waiting period","null","null","","","catch","l","sw","sh","261","172","201","161","162","163","spektor","null","null","null","null","null","null","null","null","null","null","null","","180","200","260","200","36000","52000","[1,2]","513.3400315232174","217.90209748315266","507.47350594363155"
"","canvas-keyboard-response","168","137296","0.0-6.0-1.23","500","","","","","clear_screen","null","null","","","catch","l","sw","sh","261","172","201","161","162","163","spektor","null","null","null","null","null","null","null","null","null","null","null","","180","200","260","200","36000","52000","[1,2]","513.3400315232174","217.90209748315266","507.47350594363155"
"","canvas-keyboard-response","169","137804","0.0-6.0-2.23","500","","","","","rectangles no change","null","null","","","catch","l","sw","sh","261","172","201","161","162","163","spektor","null","null","null","null","null","null","null","null","null","null","null","","180","200","260","200","36000","52000","[1,2]","513.3400315232174","217.90209748315266","507.47350594363155"
"","canvas-keyboard-response","170","139141","0.0-6.0-3.23","500","","","","","rectangles with change","null","null","","","catch","l","sw","sh","261","172","201","161","162","163","spektor","null","null","null","null","null","null","null","null","null","null","null","","180","200","260","200","36000","52000","[1,2]","513.3400315232174","217.90209748315266","507.47350594363155"
"","canvas-keyboard-response","171","139162","0.0-6.0-4.23","500","","","","","clear_screen","null","null","","","catch","l","sw","sh","261","172","201","161","162","163","spektor","null","null","null","null","null","null","null","null","null","null","null","","180","200","260","200","36000","52000","[1,2]","513.3400315232174","217.90209748315266","507.47350594363155"
"","canvas-keyboard-response","172","139508","0.0-6.0-5.23","500","","","","","make choice","340","1","","","catch","l","sw","sh","261","172","201","161","162","163","spektor","null","null","null","null","null","null","null","null","null","null","null","","180","200","260","200","36000","52000","[1,2]","","",""
"","canvas-keyboard-response","173","139526","0.0-6.0-6.23","500","","","","","clear_screen","null","null","","","catch","l","sw","sh","261","172","201","161","162","163","spektor","null","null","null","null","null","null","null","null","null","null","null","","180","200","260","200","36000","52000","[1,2]","","",""
"","canvas-keyboard-response","174","139728","0.0-6.0-0.24","500","","","","","pre trial waiting period","null","null","","","critical","c","d","t","164","240","227.1683","158.0083","240","164","trueblood","0.09","w","240","164","164","240","227.1683","158.0083","39360","39360","35894.4834","tc","null","null","null","null","null","null","[3,1]","455.22218918473845","489.62443997866353","501.3751893724127"
"","canvas-keyboard-response","175","139748","0.0-6.0-1.24","500","","","","","clear_screen","null","null","","","critical","c","d","t","164","240","227.1683","158.0083","240","164","trueblood","0.09","w","240","164","164","240","227.1683","158.0083","39360","39360","35894.4834","tc","null","null","null","null","null","null","[3,1]","455.22218918473845","489.62443997866353","501.3751893724127"
"","canvas-keyboard-response","176","140256","0.0-6.0-2.24","500","","","","","rectangles no change","null","null","","","critical","c","d","t","164","240","227.1683","158.0083","240","164","trueblood","0.09","w","240","164","164","240","227.1683","158.0083","39360","39360","35894.4834","tc","null","null","null","null","null","null","[3,1]","455.22218918473845","489.62443997866353","501.3751893724127"
"","canvas-keyboard-response","177","141591","0.0-6.0-3.24","500","","","","","rectangles with change","null","null","","","critical","c","d","t","164","240","227.1683","158.0083","240","164","trueblood","0.09","w","240","164","164","240","227.1683","158.0083","39360","39360","35894.4834","tc","null","null","null","null","null","null","[3,1]","455.22218918473845","489.62443997866353","501.3751893724127"
"","canvas-keyboard-response","178","141611","0.0-6.0-4.24","500","","","","","clear_screen","null","null","","","critical","c","d","t","164","240","227.1683","158.0083","240","164","trueblood","0.09","w","240","164","164","240","227.1683","158.0083","39360","39360","35894.4834","tc","null","null","null","null","null","null","[3,1]","455.22218918473845","489.62443997866353","501.3751893724127"
"","canvas-keyboard-response","179","142015","0.0-6.0-5.24","500","","","","","make choice","396","1","","","critical","c","d","t","164","240","227.1683","158.0083","240","164","trueblood","0.09","w","240","164","164","240","227.1683","158.0083","39360","39360","35894.4834","tc","null","null","null","null","null","null","[3,1]","","",""
"","canvas-keyboard-response","180","142035","0.0-6.0-6.24","500","","","","","clear_screen","null","null","","","critical","c","d","t","164","240","227.1683","158.0083","240","164","trueblood","0.09","w","240","164","164","240","227.1683","158.0083","39360","39360","35894.4834","tc","null","null","null","null","null","null","[3,1]","","",""
"","canvas-keyboard-response","181","142236","0.0-6.0-0.25","500","","","","","pre trial waiting period","null","null","","","critical","t","d","c","240","164","240","164","164","240","trueblood","0","w","240","164","164","240","240","164","39360","39360","39360","dc","null","null","null","null","null","null","[2,3]","484.2423072756534","481.90812876776545","422.78391663405"
"","canvas-keyboard-response","182","142255","0.0-6.0-1.25","500","","","","","clear_screen","null","null","","","critical","t","d","c","240","164","240","164","164","240","trueblood","0","w","240","164","164","240","240","164","39360","39360","39360","dc","null","null","null","null","null","null","[2,3]","484.2423072756534","481.90812876776545","422.78391663405"
"","canvas-keyboard-response","183","142762","0.0-6.0-2.25","500","","","","","rectangles no change","null","null","","","critical","t","d","c","240","164","240","164","164","240","trueblood","0","w","240","164","164","240","240","164","39360","39360","39360","dc","null","null","null","null","null","null","[2,3]","484.2423072756534","481.90812876776545","422.78391663405"
"","canvas-keyboard-response","184","144098","0.0-6.0-3.25","500","","","","","rectangles with change","null","null","","","critical","t","d","c","240","164","240","164","164","240","trueblood","0","w","240","164","164","240","240","164","39360","39360","39360","dc","null","null","null","null","null","null","[2,3]","484.2423072756534","481.90812876776545","422.78391663405"
"","canvas-keyboard-response","185","144117","0.0-6.0-4.25","500","","","","","clear_screen","null","null","","","critical","t","d","c","240","164","240","164","164","240","trueblood","0","w","240","164","164","240","240","164","39360","39360","39360","dc","null","null","null","null","null","null","[2,3]","484.2423072756534","481.90812876776545","422.78391663405"
"","canvas-keyboard-response","186","144391","0.0-6.0-5.25","500","","","","","make choice","264","3","","","critical","t","d","c","240","164","240","164","164","240","trueblood","0","w","240","164","164","240","240","164","39360","39360","39360","dc","null","null","null","null","null","null","[2,3]","","",""
"","canvas-keyboard-response","187","144410","0.0-6.0-6.25","500","","","","","clear_screen","null","null","","","critical","t","d","c","240","164","240","164","164","240","trueblood","0","w","240","164","164","240","240","164","39360","39360","39360","dc","null","null","null","null","null","null","[2,3]","","",""
"","canvas-keyboard-response","188","144611","0.0-6.0-0.26","500","","","","","pre trial waiting period","null","null","","","catch","sh","sw","l","179","164","156","212","171","278","trueblood","null","null","null","null","null","null","null","null","null","null","null","","180","200","260","200","36000","52000","[1,3]","469.68208499453294","458.6616025051055","429.7761613314711"
"","canvas-keyboard-response","189","144633","0.0-6.0-1.26","500","","","","","clear_screen","null","null","","","catch","sh","sw","l","179","164","156","212","171","278","trueblood","null","null","null","null","null","null","null","null","null","null","null","","180","200","260","200","36000","52000","[1,3]","469.68208499453294","458.6616025051055","429.7761613314711"
"","canvas-keyboard-response","190","145141","0.0-6.0-2.26","500","","","","","rectangles no change","null","null","","","catch","sh","sw","l","179","164","156","212","171","278","trueblood","null","null","null","null","null","null","null","null","null","null","null","","180","200","260","200","36000","52000","[1,3]","469.68208499453294","458.6616025051055","429.7761613314711"
"","canvas-keyboard-response","191","146481","0.0-6.0-3.26","500","","","","","rectangles with change","null","null","","","catch","sh","sw","l","179","164","156","212","171","278","trueblood","null","null","null","null","null","null","null","null","null","null","null","","180","200","260","200","36000","52000","[1,3]","469.68208499453294","458.6616025051055","429.7761613314711"
"","canvas-keyboard-response","192","146502","0.0-6.0-4.26","500","","","","","clear_screen","null","null","","","catch","sh","sw","l","179","164","156","212","171","278","trueblood","null","null","null","null","null","null","null","null","null","null","null","","180","200","260","200","36000","52000","[1,3]","469.68208499453294","458.6616025051055","429.7761613314711"
"","canvas-keyboard-response","193","146822","0.0-6.0-5.26","500","","","","","make choice","314","3","","","catch","sh","sw","l","179","164","156","212","171","278","trueblood","null","null","null","null","null","null","null","null","null","null","null","","180","200","260","200","36000","52000","[1,3]","","",""
"","canvas-keyboard-response","194","146842","0.0-6.0-6.26","500","","","","","clear_screen","null","null","","","catch","sh","sw","l","179","164","156","212","171","278","trueblood","null","null","null","null","null","null","null","null","null","null","null","","180","200","260","200","36000","52000","[1,3]","","",""
"","canvas-keyboard-response","195","147043","0.0-6.0-0.27","500","","","","","pre trial waiting period","null","null","","","critical","c","d","t","240","164","164","240","164","240","trueblood","0","h","164","240","240","164","164","240","39360","39360","39360","td","null","null","null","null","null","null","[3,2]","469.1439064865249","428.1061728494648","448.4490818823106"
"","canvas-keyboard-response","196","147063","0.0-6.0-1.27","500","","","","","clear_screen","null","null","","","critical","c","d","t","240","164","164","240","164","240","trueblood","0","h","164","240","240","164","164","240","39360","39360","39360","td","null","null","null","null","null","null","[3,2]","469.1439064865249","428.1061728494648","448.4490818823106"
"","canvas-keyboard-response","197","147572","0.0-6.0-2.27","500","","","","","rectangles no change","null","null","","","critical","c","d","t","240","164","164","240","164","240","trueblood","0","h","164","240","240","164","164","240","39360","39360","39360","td","null","null","null","null","null","null","[3,2]","469.1439064865249","428.1061728494648","448.4490818823106"
"","canvas-keyboard-response","198","148907","0.0-6.0-3.27","500","","","","","rectangles with change","null","null","","","critical","c","d","t","240","164","164","240","164","240","trueblood","0","h","164","240","240","164","164","240","39360","39360","39360","td","null","null","null","null","null","null","[3,2]","469.1439064865249","428.1061728494648","448.4490818823106"
"","canvas-keyboard-response","199","148928","0.0-6.0-4.27","500","","","","","clear_screen","null","null","","","critical","c","d","t","240","164","164","240","164","240","trueblood","0","h","164","240","240","164","164","240","39360","39360","39360","td","null","null","null","null","null","null","[3,2]","469.1439064865249","428.1061728494648","448.4490818823106"
"","canvas-keyboard-response","200","149198","0.0-6.0-5.27","500","","","","","make choice","266","2","","","critical","c","d","t","240","164","164","240","164","240","trueblood","0","h","164","240","240","164","164","240","39360","39360","39360","td","null","null","null","null","null","null","[3,2]","","",""
"","canvas-keyboard-response","201","149219","0.0-6.0-6.27","500","","","","","clear_screen","null","null","","","critical","c","d","t","240","164","164","240","164","240","trueblood","0","h","164","240","240","164","164","240","39360","39360","39360","td","null","null","null","null","null","null","[3,2]","","",""
"","canvas-keyboard-response","202","149420","0.0-6.0-0.28","500","","","","","pre trial waiting period","null","null","","","critical","d","t","c","240","164","240","164","164","240","trueblood","0","w","240","164","164","240","240","164","39360","39360","39360","td","null","null","null","null","null","null","[2,1]","507.5146372905538","497.5645873028556","452.5687790387221"
"","canvas-keyboard-response","203","149439","0.0-6.0-1.28","500","","","","","clear_screen","null","null","","","critical","d","t","c","240","164","240","164","164","240","trueblood","0","w","240","164","164","240","240","164","39360","39360","39360","td","null","null","null","null","null","null","[2,1]","507.5146372905538","497.5645873028556","452.5687790387221"
"","canvas-keyboard-response","204","149947","0.0-6.0-2.28","500","","","","","rectangles no change","null","null","","","critical","d","t","c","240","164","240","164","164","240","trueblood","0","w","240","164","164","240","240","164","39360","39360","39360","td","null","null","null","null","null","null","[2,1]","507.5146372905538","497.5645873028556","452.5687790387221"
"","canvas-keyboard-response","205","151284","0.0-6.0-3.28","500","","","","","rectangles with change","null","null","","","critical","d","t","c","240","164","240","164","164","240","trueblood","0","w","240","164","164","240","240","164","39360","39360","39360","td","null","null","null","null","null","null","[2,1]","507.5146372905538","497.5645873028556","452.5687790387221"
"","canvas-keyboard-response","206","151301","0.0-6.0-4.28","500","","","","","clear_screen","null","null","","","critical","d","t","c","240","164","240","164","164","240","trueblood","0","w","240","164","164","240","240","164","39360","39360","39360","td","null","null","null","null","null","null","[2,1]","507.5146372905538","497.5645873028556","452.5687790387221"
"","canvas-keyboard-response","207","151590","0.0-6.0-5.28","500","","","","","make choice","282","1","","","critical","d","t","c","240","164","240","164","164","240","trueblood","0","w","240","164","164","240","240","164","39360","39360","39360","td","null","null","null","null","null","null","[2,1]","","",""
"","canvas-keyboard-response","208","151612","0.0-6.0-6.28","500","","","","","clear_screen","null","null","","","critical","d","t","c","240","164","240","164","164","240","trueblood","0","w","240","164","164","240","240","164","39360","39360","39360","td","null","null","null","null","null","null","[2,1]","","",""
"","canvas-keyboard-response","209","151813","0.0-6.0-0.29","500","","","","","pre trial waiting period","null","null","","","catch","l","sh","sw","259","226","205","155","149","193","trueblood","null","null","null","null","null","null","null","null","null","null","null","","180","200","260","200","36000","52000","[1,2]","461.1571221504445","520.313435674854","497.93413631440967"
"","canvas-keyboard-response","210","151833","0.0-6.0-1.29","500","","","","","clear_screen","null","null","","","catch","l","sh","sw","259","226","205","155","149","193","trueblood","null","null","null","null","null","null","null","null","null","null","null","","180","200","260","200","36000","52000","[1,2]","461.1571221504445","520.313435674854","497.93413631440967"
"","canvas-keyboard-response","211","152343","0.0-6.0-2.29","500","","","","","rectangles no change","null","null","","","catch","l","sh","sw","259","226","205","155","149","193","trueblood","null","null","null","null","null","null","null","null","null","null","null","","180","200","260","200","36000","52000","[1,2]","461.1571221504445","520.313435674854","497.93413631440967"
"","canvas-keyboard-response","212","153684","0.0-6.0-3.29","500","","","","","rectangles with change","null","null","","","catch","l","sh","sw","259","226","205","155","149","193","trueblood","null","null","null","null","null","null","null","null","null","null","null","","180","200","260","200","36000","52000","[1,2]","461.1571221504445","520.313435674854","497.93413631440967"
"","canvas-keyboard-response","213","153705","0.0-6.0-4.29","500","","","","","clear_screen","null","null","","","catch","l","sh","sw","259","226","205","155","149","193","trueblood","null","null","null","null","null","null","null","null","null","null","null","","180","200","260","200","36000","52000","[1,2]","461.1571221504445","520.313435674854","497.93413631440967"
"","canvas-keyboard-response","214","153950","0.0-6.0-5.29","500","","","","","make choice","238","1","","","catch","l","sh","sw","259","226","205","155","149","193","trueblood","null","null","null","null","null","null","null","null","null","null","null","","180","200","260","200","36000","52000","[1,2]","","",""
"","canvas-keyboard-response","215","153971","0.0-6.0-6.29","500","","","","","clear_screen","null","null","","","catch","l","sh","sw","259","226","205","155","149","193","trueblood","null","null","null","null","null","null","null","null","null","null","null","","180","200","260","200","36000","52000","[1,2]","","",""
"","canvas-keyboard-response","216","154172","0.0-6.0-0.30","500","","","","","pre trial waiting period","null","null","","","critical","c","t","d","240","164","164","240","162.6685","237.1485","trueblood","0.02","h","164","240","240","164","162.6685","237.1485","39360","39360","38576.5967","dc","null","null","null","null","null","null","[3,1]","510.86226876627495","428.8802460340419","440.25026965151466"
"","canvas-keyboard-response","217","154194","0.0-6.0-1.30","500","","","","","clear_screen","null","null","","","critical","c","t","d","240","164","164","240","162.6685","237.1485","trueblood","0.02","h","164","240","240","164","162.6685","237.1485","39360","39360","38576.5967","dc","null","null","null","null","null","null","[3,1]","510.86226876627495","428.8802460340419","440.25026965151466"
"","canvas-keyboard-response","218","154701","0.0-6.0-2.30","500","","","","","rectangles no change","null","null","","","critical","c","t","d","240","164","164","240","162.6685","237.1485","trueblood","0.02","h","164","240","240","164","162.6685","237.1485","39360","39360","38576.5967","dc","null","null","null","null","null","null","[3,1]","510.86226876627495","428.8802460340419","440.25026965151466"
"","canvas-keyboard-response","219","156040","0.0-6.0-3.30","500","","","","","rectangles with change","null","null","","","critical","c","t","d","240","164","164","240","162.6685","237.1485","trueblood","0.02","h","164","240","240","164","162.6685","237.1485","39360","39360","38576.5967","dc","null","null","null","null","null","null","[3,1]","510.86226876627495","428.8802460340419","440.25026965151466"
"","canvas-keyboard-response","220","156061","0.0-6.0-4.30","500","","","","","clear_screen","null","null","","","critical","c","t","d","240","164","164","240","162.6685","237.1485","trueblood","0.02","h","164","240","240","164","162.6685","237.1485","39360","39360","38576.5967","dc","null","null","null","null","null","null","[3,1]","510.86226876627495","428.8802460340419","440.25026965151466"
"","canvas-keyboard-response","221","156487","0.0-6.0-5.30","500","","","","","make choice","419","1","","","critical","c","t","d","240","164","164","240","162.6685","237.1485","trueblood","0.02","h","164","240","240","164","162.6685","237.1485","39360","39360","38576.5967","dc","null","null","null","null","null","null","[3,1]","","",""
"","canvas-keyboard-response","222","156506","0.0-6.0-6.30","500","","","","","clear_screen","null","null","","","critical","c","t","d","240","164","164","240","162.6685","237.1485","trueblood","0.02","h","164","240","240","164","162.6685","237.1485","39360","39360","38576.5967","dc","null","null","null","null","null","null","[3,1]","","",""
"","canvas-keyboard-response","223","156707","0.0-6.0-0.31","500","","","","","pre trial waiting period","null","null","","","critical","d","t","c","220.0396","154.6796","240","164","164","240","spektor","0.14","w","240","164","164","240","220.0396","154.6796","39360","39360","34035.6388","tc","null","null","null","null","null","null","[2,3]","504.45295945964943","169.72877669275408","480.1704218057451"
"","canvas-keyboard-response","224","156729","0.0-6.0-1.31","500","","","","","clear_screen","null","null","","","critical","d","t","c","220.0396","154.6796","240","164","164","240","spektor","0.14","w","240","164","164","240","220.0396","154.6796","39360","39360","34035.6388","tc","null","null","null","null","null","null","[2,3]","504.45295945964943","169.72877669275408","480.1704218057451"
"","canvas-keyboard-response","225","157241","0.0-6.0-2.31","500","","","","","rectangles no change","null","null","","","critical","d","t","c","220.0396","154.6796","240","164","164","240","spektor","0.14","w","240","164","164","240","220.0396","154.6796","39360","39360","34035.6388","tc","null","null","null","null","null","null","[2,3]","504.45295945964943","169.72877669275408","480.1704218057451"
"","canvas-keyboard-response","226","158580","0.0-6.0-3.31","500","","","","","rectangles with change","null","null","","","critical","d","t","c","220.0396","154.6796","240","164","164","240","spektor","0.14","w","240","164","164","240","220.0396","154.6796","39360","39360","34035.6388","tc","null","null","null","null","null","null","[2,3]","504.45295945964943","169.72877669275408","480.1704218057451"
"","canvas-keyboard-response","227","158601","0.0-6.0-4.31","500","","","","","clear_screen","null","null","","","critical","d","t","c","220.0396","154.6796","240","164","164","240","spektor","0.14","w","240","164","164","240","220.0396","154.6796","39360","39360","34035.6388","tc","null","null","null","null","null","null","[2,3]","504.45295945964943","169.72877669275408","480.1704218057451"
"","canvas-keyboard-response","228","158878","0.0-6.0-5.31","500","","","","","make choice","270","3","","","critical","d","t","c","220.0396","154.6796","240","164","164","240","spektor","0.14","w","240","164","164","240","220.0396","154.6796","39360","39360","34035.6388","tc","null","null","null","null","null","null","[2,3]","","",""
"","canvas-keyboard-response","229","158898","0.0-6.0-6.31","500","","","","","clear_screen","null","null","","","critical","d","t","c","220.0396","154.6796","240","164","164","240","spektor","0.14","w","240","164","164","240","220.0396","154.6796","39360","39360","34035.6388","tc","null","null","null","null","null","null","[2,3]","","",""
"","canvas-keyboard-response","230","159099","0.0-6.0-0.32","500","","","","","pre trial waiting period","null","null","","","critical","t","d","c","164","240","158.0083","227.1683","240","164","trueblood","0.09","h","164","240","240","164","158.0083","227.1683","39360","39360","35894.4834","tc","null","null","null","null","null","null","[1,3]","440.71529429525464","469.5754099776311","500.0275220449419"
"","canvas-keyboard-response","231","159122","0.0-6.0-1.32","500","","","","","clear_screen","null","null","","","critical","t","d","c","164","240","158.0083","227.1683","240","164","trueblood","0.09","h","164","240","240","164","158.0083","227.1683","39360","39360","35894.4834","tc","null","null","null","null","null","null","[1,3]","440.71529429525464","469.5754099776311","500.0275220449419"
"","canvas-keyboard-response","232","159628","0.0-6.0-2.32","500","","","","","rectangles no change","null","null","","","critical","t","d","c","164","240","158.0083","227.1683","240","164","trueblood","0.09","h","164","240","240","164","158.0083","227.1683","39360","39360","35894.4834","tc","null","null","null","null","null","null","[1,3]","440.71529429525464","469.5754099776311","500.0275220449419"
"","canvas-keyboard-response","233","160965","0.0-6.0-3.32","500","","","","","rectangles with change","null","null","","","critical","t","d","c","164","240","158.0083","227.1683","240","164","trueblood","0.09","h","164","240","240","164","158.0083","227.1683","39360","39360","35894.4834","tc","null","null","null","null","null","null","[1,3]","440.71529429525464","469.5754099776311","500.0275220449419"
"","canvas-keyboard-response","234","160989","0.0-6.0-4.32","500","","","","","clear_screen","null","null","","","critical","t","d","c","164","240","158.0083","227.1683","240","164","trueblood","0.09","h","164","240","240","164","158.0083","227.1683","39360","39360","35894.4834","tc","null","null","null","null","null","null","[1,3]","440.71529429525464","469.5754099776311","500.0275220449419"
"","canvas-keyboard-response","235","161246","0.0-6.0-5.32","500","","","","","make choice","250","1","","","critical","t","d","c","164","240","158.0083","227.1683","240","164","trueblood","0.09","h","164","240","240","164","158.0083","227.1683","39360","39360","35894.4834","tc","null","null","null","null","null","null","[1,3]","","",""
"","canvas-keyboard-response","236","161264","0.0-6.0-6.32","500","","","","","clear_screen","null","null","","","critical","t","d","c","164","240","158.0083","227.1683","240","164","trueblood","0.09","h","164","240","240","164","158.0083","227.1683","39360","39360","35894.4834","tc","null","null","null","null","null","null","[1,3]","","",""
"","canvas-keyboard-response","237","161466","0.0-6.0-0.33","500","","","","","pre trial waiting period","null","null","","","critical","c","t","d","164","240","240","164","220.0396","154.6796","trueblood","0.14","w","240","164","164","240","220.0396","154.6796","39360","39360","34035.6388","tc","null","null","null","null","null","null","[2,1]","423.00153461200637","511.2181214281797","480.7903747335922"
"","canvas-keyboard-response","238","161489","0.0-6.0-1.33","500","","","","","clear_screen","null","null","","","critical","c","t","d","164","240","240","164","220.0396","154.6796","trueblood","0.14","w","240","164","164","240","220.0396","154.6796","39360","39360","34035.6388","tc","null","null","null","null","null","null","[2,1]","423.00153461200637","511.2181214281797","480.7903747335922"
"","canvas-keyboard-response","239","161996","0.0-6.0-2.33","500","","","","","rectangles no change","null","null","","","critical","c","t","d","164","240","240","164","220.0396","154.6796","trueblood","0.14","w","240","164","164","240","220.0396","154.6796","39360","39360","34035.6388","tc","null","null","null","null","null","null","[2,1]","423.00153461200637","511.2181214281797","480.7903747335922"
"","canvas-keyboard-response","240","163331","0.0-6.0-3.33","500","","","","","rectangles with change","null","null","","","critical","c","t","d","164","240","240","164","220.0396","154.6796","trueblood","0.14","w","240","164","164","240","220.0396","154.6796","39360","39360","34035.6388","tc","null","null","null","null","null","null","[2,1]","423.00153461200637","511.2181214281797","480.7903747335922"
"","canvas-keyboard-response","241","163350","0.0-6.0-4.33","500","","","","","clear_screen","null","null","","","critical","c","t","d","164","240","240","164","220.0396","154.6796","trueblood","0.14","w","240","164","164","240","220.0396","154.6796","39360","39360","34035.6388","tc","null","null","null","null","null","null","[2,1]","423.00153461200637","511.2181214281797","480.7903747335922"
"","canvas-keyboard-response","242","163574","0.0-6.0-5.33","500","","","","","make choice","216","2","","","critical","c","t","d","164","240","240","164","220.0396","154.6796","trueblood","0.14","w","240","164","164","240","220.0396","154.6796","39360","39360","34035.6388","tc","null","null","null","null","null","null","[2,1]","","",""
"","canvas-keyboard-response","243","163595","0.0-6.0-6.33","500","","","","","clear_screen","null","null","","","critical","c","t","d","164","240","240","164","220.0396","154.6796","trueblood","0.14","w","240","164","164","240","220.0396","154.6796","39360","39360","34035.6388","tc","null","null","null","null","null","null","[2,1]","","",""
"","canvas-keyboard-response","244","163795","0.0-6.0-0.34","500","","","","","pre trial waiting period","null","null","","","critical","d","t","c","220.0396","154.6796","240","164","164","240","spektor","0.14","w","240","164","164","240","220.0396","154.6796","39360","39360","34035.6388","td","null","null","null","null","null","null","[2,1]","514.020442252492","215.32485507265454","480.5914152917423"
"","canvas-keyboard-response","245","163815","0.0-6.0-1.34","500","","","","","clear_screen","null","null","","","critical","d","t","c","220.0396","154.6796","240","164","164","240","spektor","0.14","w","240","164","164","240","220.0396","154.6796","39360","39360","34035.6388","td","null","null","null","null","null","null","[2,1]","514.020442252492","215.32485507265454","480.5914152917423"
"","canvas-keyboard-response","246","164322","0.0-6.0-2.34","500","","","","","rectangles no change","null","null","","","critical","d","t","c","220.0396","154.6796","240","164","164","240","spektor","0.14","w","240","164","164","240","220.0396","154.6796","39360","39360","34035.6388","td","null","null","null","null","null","null","[2,1]","514.020442252492","215.32485507265454","480.5914152917423"
"","canvas-keyboard-response","247","165661","0.0-6.0-3.34","500","","","","","rectangles with change","null","null","","","critical","d","t","c","220.0396","154.6796","240","164","164","240","spektor","0.14","w","240","164","164","240","220.0396","154.6796","39360","39360","34035.6388","td","null","null","null","null","null","null","[2,1]","514.020442252492","215.32485507265454","480.5914152917423"
"","canvas-keyboard-response","248","165681","0.0-6.0-4.34","500","","","","","clear_screen","null","null","","","critical","d","t","c","220.0396","154.6796","240","164","164","240","spektor","0.14","w","240","164","164","240","220.0396","154.6796","39360","39360","34035.6388","td","null","null","null","null","null","null","[2,1]","514.020442252492","215.32485507265454","480.5914152917423"
"","canvas-keyboard-response","249","165959","0.0-6.0-5.34","500","","","","","make choice","271","2","","","critical","d","t","c","220.0396","154.6796","240","164","164","240","spektor","0.14","w","240","164","164","240","220.0396","154.6796","39360","39360","34035.6388","td","null","null","null","null","null","null","[2,1]","","",""
"","canvas-keyboard-response","250","165976","0.0-6.0-6.34","500","","","","","clear_screen","null","null","","","critical","d","t","c","220.0396","154.6796","240","164","164","240","spektor","0.14","w","240","164","164","240","220.0396","154.6796","39360","39360","34035.6388","td","null","null","null","null","null","null","[2,1]","","",""
"","canvas-keyboard-response","251","166177","0.0-6.0-0.35","500","","","","","pre trial waiting period","null","null","","","catch","sw","sh","l","180","200","202","166","253","208","trueblood","null","null","null","null","null","null","null","null","null","null","null","","180","200","260","200","36000","52000","[1,3]","450.6494569056755","515.129709070301","455.1314038154132"
"","canvas-keyboard-response","252","166196","0.0-6.0-1.35","500","","","","","clear_screen","null","null","","","catch","sw","sh","l","180","200","202","166","253","208","trueblood","null","null","null","null","null","null","null","null","null","null","null","","180","200","260","200","36000","52000","[1,3]","450.6494569056755","515.129709070301","455.1314038154132"
"","canvas-keyboard-response","253","166703","0.0-6.0-2.35","500","","","","","rectangles no change","null","null","","","catch","sw","sh","l","180","200","202","166","253","208","trueblood","null","null","null","null","null","null","null","null","null","null","null","","180","200","260","200","36000","52000","[1,3]","450.6494569056755","515.129709070301","455.1314038154132"
"","canvas-keyboard-response","254","168042","0.0-6.0-3.35","500","","","","","rectangles with change","null","null","","","catch","sw","sh","l","180","200","202","166","253","208","trueblood","null","null","null","null","null","null","null","null","null","null","null","","180","200","260","200","36000","52000","[1,3]","450.6494569056755","515.129709070301","455.1314038154132"
"","canvas-keyboard-response","255","168062","0.0-6.0-4.35","500","","","","","clear_screen","null","null","","","catch","sw","sh","l","180","200","202","166","253","208","trueblood","null","null","null","null","null","null","null","null","null","null","null","","180","200","260","200","36000","52000","[1,3]","450.6494569056755","515.129709070301","455.1314038154132"
"","canvas-keyboard-response","256","168373","0.0-6.0-5.35","500","","","","","make choice","306","3","","","catch","sw","sh","l","180","200","202","166","253","208","trueblood","null","null","null","null","null","null","null","null","null","null","null","","180","200","260","200","36000","52000","[1,3]","","",""
"","canvas-keyboard-response","257","168392","0.0-6.0-6.35","500","","","","","clear_screen","null","null","","","catch","sw","sh","l","180","200","202","166","253","208","trueblood","null","null","null","null","null","null","null","null","null","null","null","","180","200","260","200","36000","52000","[1,3]","","",""
"","canvas-keyboard-response","258","168593","0.0-6.0-0.36","500","","","","","pre trial waiting period","null","null","","","catch","sw","sh","l","180","200","211","144","182","251","spektor","null","null","null","null","null","null","null","null","null","null","null","","180","200","260","200","36000","52000","[2,3]","494.60261936322524","194.1273926094413","485.87681709207425"
"","canvas-keyboard-response","259","168614","0.0-6.0-1.36","500","","","","","clear_screen","null","null","","","catch","sw","sh","l","180","200","211","144","182","251","spektor","null","null","null","null","null","null","null","null","null","null","null","","180","200","260","200","36000","52000","[2,3]","494.60261936322524","194.1273926094413","485.87681709207425"
"","canvas-keyboard-response","260","169121","0.0-6.0-2.36","500","","","","","rectangles no change","null","null","","","catch","sw","sh","l","180","200","211","144","182","251","spektor","null","null","null","null","null","null","null","null","null","null","null","","180","200","260","200","36000","52000","[2,3]","494.60261936322524","194.1273926094413","485.87681709207425"
"","canvas-keyboard-response","261","170461","0.0-6.0-3.36","500","","","","","rectangles with change","null","null","","","catch","sw","sh","l","180","200","211","144","182","251","spektor","null","null","null","null","null","null","null","null","null","null","null","","180","200","260","200","36000","52000","[2,3]","494.60261936322524","194.1273926094413","485.87681709207425"
"","canvas-keyboard-response","262","170484","0.0-6.0-4.36","500","","","","","clear_screen","null","null","","","catch","sw","sh","l","180","200","211","144","182","251","spektor","null","null","null","null","null","null","null","null","null","null","null","","180","200","260","200","36000","52000","[2,3]","494.60261936322524","194.1273926094413","485.87681709207425"
"","canvas-keyboard-response","263","170789","0.0-6.0-5.36","500","","","","","make choice","295","3","","","catch","sw","sh","l","180","200","211","144","182","251","spektor","null","null","null","null","null","null","null","null","null","null","null","","180","200","260","200","36000","52000","[2,3]","","",""
"","canvas-keyboard-response","264","170805","0.0-6.0-6.36","500","","","","","clear_screen","null","null","","","catch","sw","sh","l","180","200","211","144","182","251","spektor","null","null","null","null","null","null","null","null","null","null","null","","180","200","260","200","36000","52000","[2,3]","","",""
"","canvas-keyboard-response","265","171006","0.0-6.0-0.37","500","","","","","pre trial waiting period","null","null","","","critical","d","c","t","160.6713","232.8713","240","164","164","240","spektor","0.05","h","164","240","240","164","160.6713","232.8713","39360","39360","37415.7294","dc","null","null","null","null","null","null","[1,2]","481.5786366393961","177.42945582107544","469.5103252185952"
"","canvas-keyboard-response","266","171029","0.0-6.0-1.37","500","","","","","clear_screen","null","null","","","critical","d","c","t","160.6713","232.8713","240","164","164","240","spektor","0.05","h","164","240","240","164","160.6713","232.8713","39360","39360","37415.7294","dc","null","null","null","null","null","null","[1,2]","481.5786366393961","177.42945582107544","469.5103252185952"
"","canvas-keyboard-response","267","171537","0.0-6.0-2.37","500","","","","","rectangles no change","null","null","","","critical","d","c","t","160.6713","232.8713","240","164","164","240","spektor","0.05","h","164","240","240","164","160.6713","232.8713","39360","39360","37415.7294","dc","null","null","null","null","null","null","[1,2]","481.5786366393961","177.42945582107544","469.5103252185952"
