"success","trial_type","trial_index","time_elapsed","internal_node_id","sub_n","timeout","failed_images","failed_audio","failed_video","screen_id","rt","response","stimulus","view_history","trial","r1","r2","r3","w1","h1","w2","h2","w3","h3","display","tdd","tdo","tw","th","cw","ch","dw","dh","ta","ca","da","probe","csls","csss","clls","clss","sa","la","probe_rects","r1yloc","r2yloc","r3yloc"
"true","fullscreen","0","3979","0.0-0.0","544","","","","","","","","","","","","","","","","","","","","","","","","","","","","","","","","","","","","","","","","","",""
"true","preload","1","3990","0.0-1.0","544","false","[]","[]","[]","img preload","","","","","","","","","","","","","","","","","","","","","","","","","","","","","","","","","","","","",""
"","survey-html-form","2","6109","0.0-2.0","544","","","","","enter-sub-number","2100","{""response"":""544""}","","","","","","","","","","","","","","","","","","","","","","","","","","","","","","","","","","",""
"","image-button-response","3","12849","0.0-3.0","544","","","","","","6605","0","consent.png","","","","","","","","","","","","","","","","","","","","","","","","","","","","","","","","","",""
"","html-button-response","4","18680","0.0-4.0","544","","","","","intro mssg","5827","0","<div style= ""font-size:25px;"" <p> <strong> Welcome! </strong><br> <p style=""color:#8B0000; font-size:25px;""><strong> Please do NOT exit full screen until you are done with the experiment. </strong> </p><p style=""font-size:25px;color:#8B0000;""> <strong> Your data will be lost <br> if you try to go back or refresh the page after the experiment starts. Feel free to click ""previous"" during the instructions, however.</strong> </p><br><p> <strong> Thanks in advance for your contribution to our research! </strong></p>","","","","","","","","","","","","","","","","","","","","","","","","","","","","","","","","","",""
"","instructions","5","54241","0.0-5.0","544","","","","","instructions","35557","","","[{""page_index"":0,""viewing_time"":5405},{""page_index"":1,""viewing_time"":6039},{""page_index"":2,""viewing_time"":3088},{""page_index"":3,""viewing_time"":11193},{""page_index"":4,""viewing_time"":4118},{""page_index"":5,""viewing_time"":2497},{""page_index"":6,""viewing_time"":2215},{""page_index"":7,""viewing_time"":1002}]","","","","","","","","","","","","","","","","","","","","","","","","","","","","","","","","",""
"","canvas-keyboard-response","6","54444","0.0-6.0-0.0","544","","","","","pre trial waiting period","null","null","","","critical","c","d","t","240","164","160.6713","232.8713","164","240","spektor","0.05","h","164","240","240","164","160.6713","232.8713","39360","39360","37415.7294","dc","null","null","null","null","null","null","[2,1]","528.8599368963053","118.18392316958008","503.64959283148744"
"","canvas-keyboard-response","7","54470","0.0-6.0-1.0","544","","","","","clear_screen","null","null","","","critical","c","d","t","240","164","160.6713","232.8713","164","240","spektor","0.05","h","164","240","240","164","160.6713","232.8713","39360","39360","37415.7294","dc","null","null","null","null","null","null","[2,1]","528.8599368963053","118.18392316958008","503.64959283148744"
"","canvas-keyboard-response","8","54988","0.0-6.0-2.0","544","","","","","rectangles no change","null","null","","","critical","c","d","t","240","164","160.6713","232.8713","164","240","spektor","0.05","h","164","240","240","164","160.6713","232.8713","39360","39360","37415.7294","dc","null","null","null","null","null","null","[2,1]","528.8599368963053","118.18392316958008","503.64959283148744"
"","canvas-keyboard-response","9","56329","0.0-6.0-3.0","544","","","","","rectangles with change","null","null","","","critical","c","d","t","240","164","160.6713","232.8713","164","240","spektor","0.05","h","164","240","240","164","160.6713","232.8713","39360","39360","37415.7294","dc","null","null","null","null","null","null","[2,1]","528.8599368963053","118.18392316958008","503.64959283148744"
"","canvas-keyboard-response","10","56349","0.0-6.0-4.0","544","","","","","clear_screen","null","null","","","critical","c","d","t","240","164","160.6713","232.8713","164","240","spektor","0.05","h","164","240","240","164","160.6713","232.8713","39360","39360","37415.7294","dc","null","null","null","null","null","null","[2,1]","528.8599368963053","118.18392316958008","503.64959283148744"
"","canvas-keyboard-response","11","58276","0.0-6.0-5.0","544","","","","","make choice","1916","2","","","critical","c","d","t","240","164","160.6713","232.8713","164","240","spektor","0.05","h","164","240","240","164","160.6713","232.8713","39360","39360","37415.7294","dc","null","null","null","null","null","null","[2,1]","","",""
"","canvas-keyboard-response","12","58293","0.0-6.0-6.0","544","","","","","clear_screen","null","null","","","critical","c","d","t","240","164","160.6713","232.8713","164","240","spektor","0.05","h","164","240","240","164","160.6713","232.8713","39360","39360","37415.7294","dc","null","null","null","null","null","null","[2,1]","","",""
"","canvas-keyboard-response","13","58495","0.0-6.0-0.1","544","","","","","pre trial waiting period","null","null","","","catch","l","sw","sh","284","193","166","198","223","160","spektor","null","null","null","null","null","null","null","null","null","null","null","","180","200","260","200","36000","52000","[1,3]","493.85916731715855","163.8813941206775","518.2448281522425"
"","canvas-keyboard-response","14","58515","0.0-6.0-1.1","544","","","","","clear_screen","null","null","","","catch","l","sw","sh","284","193","166","198","223","160","spektor","null","null","null","null","null","null","null","null","null","null","null","","180","200","260","200","36000","52000","[1,3]","493.85916731715855","163.8813941206775","518.2448281522425"
"","canvas-keyboard-response","15","59028","0.0-6.0-2.1","544","","","","","rectangles no change","null","null","","","catch","l","sw","sh","284","193","166","198","223","160","spektor","null","null","null","null","null","null","null","null","null","null","null","","180","200","260","200","36000","52000","[1,3]","493.85916731715855","163.8813941206775","518.2448281522425"
"","canvas-keyboard-response","16","60364","0.0-6.0-3.1","544","","","","","rectangles with change","null","null","","","catch","l","sw","sh","284","193","166","198","223","160","spektor","null","null","null","null","null","null","null","null","null","null","null","","180","200","260","200","36000","52000","[1,3]","493.85916731715855","163.8813941206775","518.2448281522425"
"","canvas-keyboard-response","17","60388","0.0-6.0-4.1","544","","","","","clear_screen","null","null","","","catch","l","sw","sh","284","193","166","198","223","160","spektor","null","null","null","null","null","null","null","null","null","null","null","","180","200","260","200","36000","52000","[1,3]","493.85916731715855","163.8813941206775","518.2448281522425"
"","canvas-keyboard-response","18","61075","0.0-6.0-5.1","544","","","","","make choice","671","1","","","catch","l","sw","sh","284","193","166","198","223","160","spektor","null","null","null","null","null","null","null","null","null","null","null","","180","200","260","200","36000","52000","[1,3]","","",""
"","canvas-keyboard-response","19","61094","0.0-6.0-6.1","544","","","","","clear_screen","null","null","","","catch","l","sw","sh","284","193","166","198","223","160","spektor","null","null","null","null","null","null","null","null","null","null","null","","180","200","260","200","36000","52000","[1,3]","","",""
"","canvas-keyboard-response","20","61295","0.0-6.0-0.2","544","","","","","pre trial waiting period","null","null","","","critical","t","d","c","240","164","227.1683","158.0083","164","240","spektor","0.09","w","240","164","164","240","227.1683","158.0083","39360","39360","35894.4834","dc","null","null","null","null","null","null","[2,3]","498.3736027449283","219.43198675178274","478.32247680578183"
"","canvas-keyboard-response","21","61316","0.0-6.0-1.2","544","","","","","clear_screen","null","null","","","critical","t","d","c","240","164","227.1683","158.0083","164","240","spektor","0.09","w","240","164","164","240","227.1683","158.0083","39360","39360","35894.4834","dc","null","null","null","null","null","null","[2,3]","498.3736027449283","219.43198675178274","478.32247680578183"
"","canvas-keyboard-response","22","61827","0.0-6.0-2.2","544","","","","","rectangles no change","null","null","","","critical","t","d","c","240","164","227.1683","158.0083","164","240","spektor","0.09","w","240","164","164","240","227.1683","158.0083","39360","39360","35894.4834","dc","null","null","null","null","null","null","[2,3]","498.3736027449283","219.43198675178274","478.32247680578183"
"","canvas-keyboard-response","23","63163","0.0-6.0-3.2","544","","","","","rectangles with change","null","null","","","critical","t","d","c","240","164","227.1683","158.0083","164","240","spektor","0.09","w","240","164","164","240","227.1683","158.0083","39360","39360","35894.4834","dc","null","null","null","null","null","null","[2,3]","498.3736027449283","219.43198675178274","478.32247680578183"
"","canvas-keyboard-response","24","63184","0.0-6.0-4.2","544","","","","","clear_screen","null","null","","","critical","t","d","c","240","164","227.1683","158.0083","164","240","spektor","0.09","w","240","164","164","240","227.1683","158.0083","39360","39360","35894.4834","dc","null","null","null","null","null","null","[2,3]","498.3736027449283","219.43198675178274","478.32247680578183"
"","canvas-keyboard-response","25","63788","0.0-6.0-5.2","544","","","","","make choice","597","2","","","critical","t","d","c","240","164","227.1683","158.0083","164","240","spektor","0.09","w","240","164","164","240","227.1683","158.0083","39360","39360","35894.4834","dc","null","null","null","null","null","null","[2,3]","","",""
"","canvas-keyboard-response","26","63806","0.0-6.0-6.2","544","","","","","clear_screen","null","null","","","critical","t","d","c","240","164","227.1683","158.0083","164","240","spektor","0.09","w","240","164","164","240","227.1683","158.0083","39360","39360","35894.4834","dc","null","null","null","null","null","null","[2,3]","","",""
"","canvas-keyboard-response","27","64007","0.0-6.0-0.3","544","","","","","pre trial waiting period","null","null","","","critical","d","c","t","164","240","240","164","164","240","trueblood","0","h","164","240","240","164","164","240","39360","39360","39360","td","null","null","null","null","null","null","[3,1]","447.1041098139186","488.29885879185093","435.98901883126774"
"","canvas-keyboard-response","28","64027","0.0-6.0-1.3","544","","","","","clear_screen","null","null","","","critical","d","c","t","164","240","240","164","164","240","trueblood","0","h","164","240","240","164","164","240","39360","39360","39360","td","null","null","null","null","null","null","[3,1]","447.1041098139186","488.29885879185093","435.98901883126774"
"","canvas-keyboard-response","29","64537","0.0-6.0-2.3","544","","","","","rectangles no change","null","null","","","critical","d","c","t","164","240","240","164","164","240","trueblood","0","h","164","240","240","164","164","240","39360","39360","39360","td","null","null","null","null","null","null","[3,1]","447.1041098139186","488.29885879185093","435.98901883126774"
"","canvas-keyboard-response","30","65873","0.0-6.0-3.3","544","","","","","rectangles with change","null","null","","","critical","d","c","t","164","240","240","164","164","240","trueblood","0","h","164","240","240","164","164","240","39360","39360","39360","td","null","null","null","null","null","null","[3,1]","447.1041098139186","488.29885879185093","435.98901883126774"
"","canvas-keyboard-response","31","65893","0.0-6.0-4.3","544","","","","","clear_screen","null","null","","","critical","d","c","t","164","240","240","164","164","240","trueblood","0","h","164","240","240","164","164","240","39360","39360","39360","td","null","null","null","null","null","null","[3,1]","447.1041098139186","488.29885879185093","435.98901883126774"
"","canvas-keyboard-response","32","66603","0.0-6.0-5.3","544","","","","","make choice","702","3","","","critical","d","c","t","164","240","240","164","164","240","trueblood","0","h","164","240","240","164","164","240","39360","39360","39360","td","null","null","null","null","null","null","[3,1]","","",""
"","canvas-keyboard-response","33","66621","0.0-6.0-6.3","544","","","","","clear_screen","null","null","","","critical","d","c","t","164","240","240","164","164","240","trueblood","0","h","164","240","240","164","164","240","39360","39360","39360","td","null","null","null","null","null","null","[3,1]","","",""
"","canvas-keyboard-response","34","66823","0.0-6.0-0.4","544","","","","","pre trial waiting period","null","null","","","critical","c","d","t","164","240","240","164","240","164","spektor","0","w","240","164","164","240","240","164","39360","39360","39360","tc","null","null","null","null","null","null","[3,1]","464.9335506791416","183.24867998507128","538.8833339981957"
"","canvas-keyboard-response","35","66842","0.0-6.0-1.4","544","","","","","clear_screen","null","null","","","critical","c","d","t","164","240","240","164","240","164","spektor","0","w","240","164","164","240","240","164","39360","39360","39360","tc","null","null","null","null","null","null","[3,1]","464.9335506791416","183.24867998507128","538.8833339981957"
"","canvas-keyboard-response","36","67354","0.0-6.0-2.4","544","","","","","rectangles no change","null","null","","","critical","c","d","t","164","240","240","164","240","164","spektor","0","w","240","164","164","240","240","164","39360","39360","39360","tc","null","null","null","null","null","null","[3,1]","464.9335506791416","183.24867998507128","538.8833339981957"
"","canvas-keyboard-response","37","68688","0.0-6.0-3.4","544","","","","","rectangles with change","null","null","","","critical","c","d","t","164","240","240","164","240","164","spektor","0","w","240","164","164","240","240","164","39360","39360","39360","tc","null","null","null","null","null","null","[3,1]","464.9335506791416","183.24867998507128","538.8833339981957"
"","canvas-keyboard-response","38","68708","0.0-6.0-4.4","544","","","","","clear_screen","null","null","","","critical","c","d","t","164","240","240","164","240","164","spektor","0","w","240","164","164","240","240","164","39360","39360","39360","tc","null","null","null","null","null","null","[3,1]","464.9335506791416","183.24867998507128","538.8833339981957"
"","canvas-keyboard-response","39","69379","0.0-6.0-5.4","544","","","","","make choice","663","3","","","critical","c","d","t","164","240","240","164","240","164","spektor","0","w","240","164","164","240","240","164","39360","39360","39360","tc","null","null","null","null","null","null","[3,1]","","",""
"","canvas-keyboard-response","40","69400","0.0-6.0-6.4","544","","","","","clear_screen","null","null","","","critical","c","d","t","164","240","240","164","240","164","spektor","0","w","240","164","164","240","240","164","39360","39360","39360","tc","null","null","null","null","null","null","[3,1]","","",""
"","canvas-keyboard-response","41","69602","0.0-6.0-0.5","544","","","","","pre trial waiting period","null","null","","","catch","sw","l","sh","180","200","229","218","178","163","trueblood","null","null","null","null","null","null","null","null","null","null","null","","180","200","260","200","36000","52000","[2,3]","455.10060915642674","471.6045597494409","503.0573209943441"
"","canvas-keyboard-response","42","69623","0.0-6.0-1.5","544","","","","","clear_screen","null","null","","","catch","sw","l","sh","180","200","229","218","178","163","trueblood","null","null","null","null","null","null","null","null","null","null","null","","180","200","260","200","36000","52000","[2,3]","455.10060915642674","471.6045597494409","503.0573209943441"
"","canvas-keyboard-response","43","70133","0.0-6.0-2.5","544","","","","","rectangles no change","null","null","","","catch","sw","l","sh","180","200","229","218","178","163","trueblood","null","null","null","null","null","null","null","null","null","null","null","","180","200","260","200","36000","52000","[2,3]","455.10060915642674","471.6045597494409","503.0573209943441"
"","canvas-keyboard-response","44","71471","0.0-6.0-3.5","544","","","","","rectangles with change","null","null","","","catch","sw","l","sh","180","200","229","218","178","163","trueblood","null","null","null","null","null","null","null","null","null","null","null","","180","200","260","200","36000","52000","[2,3]","455.10060915642674","471.6045597494409","503.0573209943441"
"","canvas-keyboard-response","45","71488","0.0-6.0-4.5","544","","","","","clear_screen","null","null","","","catch","sw","l","sh","180","200","229","218","178","163","trueblood","null","null","null","null","null","null","null","null","null","null","null","","180","200","260","200","36000","52000","[2,3]","455.10060915642674","471.6045597494409","503.0573209943441"
"","canvas-keyboard-response","46","71820","0.0-6.0-5.5","544","","","","","make choice","324","2","","","catch","sw","l","sh","180","200","229","218","178","163","trueblood","null","null","null","null","null","null","null","null","null","null","null","","180","200","260","200","36000","52000","[2,3]","","",""
"","canvas-keyboard-response","47","71838","0.0-6.0-6.5","544","","","","","clear_screen","null","null","","","catch","sw","l","sh","180","200","229","218","178","163","trueblood","null","null","null","null","null","null","null","null","null","null","null","","180","200","260","200","36000","52000","[2,3]","","",""
"","canvas-keyboard-response","48","72040","0.0-6.0-0.6","544","","","","","pre trial waiting period","null","null","","","catch","l","sw","sh","225","240","159","172","194","142","spektor","null","null","null","null","null","null","null","null","null","null","null","","180","200","260","200","36000","52000","[1,3]","475.877453081313","186.92200324922433","536.8432587009407"
"","canvas-keyboard-response","49","72059","0.0-6.0-1.6","544","","","","","clear_screen","null","null","","","catch","l","sw","sh","225","240","159","172","194","142","spektor","null","null","null","null","null","null","null","null","null","null","null","","180","200","260","200","36000","52000","[1,3]","475.877453081313","186.92200324922433","536.8432587009407"
"","canvas-keyboard-response","50","72574","0.0-6.0-2.6","544","","","","","rectangles no change","null","null","","","catch","l","sw","sh","225","240","159","172","194","142","spektor","null","null","null","null","null","null","null","null","null","null","null","","180","200","260","200","36000","52000","[1,3]","475.877453081313","186.92200324922433","536.8432587009407"
"","canvas-keyboard-response","51","73910","0.0-6.0-3.6","544","","","","","rectangles with change","null","null","","","catch","l","sw","sh","225","240","159","172","194","142","spektor","null","null","null","null","null","null","null","null","null","null","null","","180","200","260","200","36000","52000","[1,3]","475.877453081313","186.92200324922433","536.8432587009407"
"","canvas-keyboard-response","52","73928","0.0-6.0-4.6","544","","","","","clear_screen","null","null","","","catch","l","sw","sh","225","240","159","172","194","142","spektor","null","null","null","null","null","null","null","null","null","null","null","","180","200","260","200","36000","52000","[1,3]","475.877453081313","186.92200324922433","536.8432587009407"
"","canvas-keyboard-response","53","74187","0.0-6.0-5.6","544","","","","","make choice","253","1","","","catch","l","sw","sh","225","240","159","172","194","142","spektor","null","null","null","null","null","null","null","null","null","null","null","","180","200","260","200","36000","52000","[1,3]","","",""
"","canvas-keyboard-response","54","74206","0.0-6.0-6.6","544","","","","","clear_screen","null","null","","","catch","l","sw","sh","225","240","159","172","194","142","spektor","null","null","null","null","null","null","null","null","null","null","null","","180","200","260","200","36000","52000","[1,3]","","",""
"","canvas-keyboard-response","55","74407","0.0-6.0-0.7","544","","","","","pre trial waiting period","null","null","","","critical","c","d","t","164","240","220.0396","154.6796","240","164","trueblood","0.14","w","240","164","164","240","220.0396","154.6796","39360","39360","34035.6388","tc","null","null","null","null","null","null","[3,1]","420.97753159322","497.47838347331174","488.3863466136175"
"","canvas-keyboard-response","56","74426","0.0-6.0-1.7","544","","","","","clear_screen","null","null","","","critical","c","d","t","164","240","220.0396","154.6796","240","164","trueblood","0.14","w","240","164","164","240","220.0396","154.6796","39360","39360","34035.6388","tc","null","null","null","null","null","null","[3,1]","420.97753159322","497.47838347331174","488.3863466136175"
"","canvas-keyboard-response","57","74936","0.0-6.0-2.7","544","","","","","rectangles no change","null","null","","","critical","c","d","t","164","240","220.0396","154.6796","240","164","trueblood","0.14","w","240","164","164","240","220.0396","154.6796","39360","39360","34035.6388","tc","null","null","null","null","null","null","[3,1]","420.97753159322","497.47838347331174","488.3863466136175"
"","canvas-keyboard-response","58","76271","0.0-6.0-3.7","544","","","","","rectangles with change","null","null","","","critical","c","d","t","164","240","220.0396","154.6796","240","164","trueblood","0.14","w","240","164","164","240","220.0396","154.6796","39360","39360","34035.6388","tc","null","null","null","null","null","null","[3,1]","420.97753159322","497.47838347331174","488.3863466136175"
"","canvas-keyboard-response","59","76290","0.0-6.0-4.7","544","","","","","clear_screen","null","null","","","critical","c","d","t","164","240","220.0396","154.6796","240","164","trueblood","0.14","w","240","164","164","240","220.0396","154.6796","39360","39360","34035.6388","tc","null","null","null","null","null","null","[3,1]","420.97753159322","497.47838347331174","488.3863466136175"
"","canvas-keyboard-response","60","76772","0.0-6.0-5.7","544","","","","","make choice","473","3","","","critical","c","d","t","164","240","220.0396","154.6796","240","164","trueblood","0.14","w","240","164","164","240","220.0396","154.6796","39360","39360","34035.6388","tc","null","null","null","null","null","null","[3,1]","","",""
"","canvas-keyboard-response","61","76791","0.0-6.0-6.7","544","","","","","clear_screen","null","null","","","critical","c","d","t","164","240","220.0396","154.6796","240","164","trueblood","0.14","w","240","164","164","240","220.0396","154.6796","39360","39360","34035.6388","tc","null","null","null","null","null","null","[3,1]","","",""
"","canvas-keyboard-response","62","76992","0.0-6.0-0.8","544","","","","","pre trial waiting period","null","null","","","catch","sw","sh","l","180","200","210","198","262","216","trueblood","null","null","null","null","null","null","null","null","null","null","null","","180","200","260","200","36000","52000","[1,3]","453.6319893227893","459.567111923417","439.2287899946734"
"","canvas-keyboard-response","63","77012","0.0-6.0-1.8","544","","","","","clear_screen","null","null","","","catch","sw","sh","l","180","200","210","198","262","216","trueblood","null","null","null","null","null","null","null","null","null","null","null","","180","200","260","200","36000","52000","[1,3]","453.6319893227893","459.567111923417","439.2287899946734"
"","canvas-keyboard-response","64","77522","0.0-6.0-2.8","544","","","","","rectangles no change","null","null","","","catch","sw","sh","l","180","200","210","198","262","216","trueblood","null","null","null","null","null","null","null","null","null","null","null","","180","200","260","200","36000","52000","[1,3]","453.6319893227893","459.567111923417","439.2287899946734"
"","canvas-keyboard-response","65","78855","0.0-6.0-3.8","544","","","","","rectangles with change","null","null","","","catch","sw","sh","l","180","200","210","198","262","216","trueblood","null","null","null","null","null","null","null","null","null","null","null","","180","200","260","200","36000","52000","[1,3]","453.6319893227893","459.567111923417","439.2287899946734"
"","canvas-keyboard-response","66","78874","0.0-6.0-4.8","544","","","","","clear_screen","null","null","","","catch","sw","sh","l","180","200","210","198","262","216","trueblood","null","null","null","null","null","null","null","null","null","null","null","","180","200","260","200","36000","52000","[1,3]","453.6319893227893","459.567111923417","439.2287899946734"
"","canvas-keyboard-response","67","79348","0.0-6.0-5.8","544","","","","","make choice","467","3","","","catch","sw","sh","l","180","200","210","198","262","216","trueblood","null","null","null","null","null","null","null","null","null","null","null","","180","200","260","200","36000","52000","[1,3]","","",""
"","canvas-keyboard-response","68","79365","0.0-6.0-6.8","544","","","","","clear_screen","null","null","","","catch","sw","sh","l","180","200","210","198","262","216","trueblood","null","null","null","null","null","null","null","null","null","null","null","","180","200","260","200","36000","52000","[1,3]","","",""
"","canvas-keyboard-response","69","79566","0.0-6.0-0.9","544","","","","","pre trial waiting period","null","null","","","critical","c","t","d","164","240","240","164","240","164","trueblood","0","w","240","164","164","240","240","164","39360","39360","39360","td","null","null","null","null","null","null","[2,3]","450.7865941343143","507.1764937141865","474.72181921900005"
"","canvas-keyboard-response","70","79585","0.0-6.0-1.9","544","","","","","clear_screen","null","null","","","critical","c","t","d","164","240","240","164","240","164","trueblood","0","w","240","164","164","240","240","164","39360","39360","39360","td","null","null","null","null","null","null","[2,3]","450.7865941343143","507.1764937141865","474.72181921900005"
"","canvas-keyboard-response","71","80096","0.0-6.0-2.9","544","","","","","rectangles no change","null","null","","","critical","c","t","d","164","240","240","164","240","164","trueblood","0","w","240","164","164","240","240","164","39360","39360","39360","td","null","null","null","null","null","null","[2,3]","450.7865941343143","507.1764937141865","474.72181921900005"
"","canvas-keyboard-response","72","81431","0.0-6.0-3.9","544","","","","","rectangles with change","null","null","","","critical","c","t","d","164","240","240","164","240","164","trueblood","0","w","240","164","164","240","240","164","39360","39360","39360","td","null","null","null","null","null","null","[2,3]","450.7865941343143","507.1764937141865","474.72181921900005"
"","canvas-keyboard-response","73","81445","0.0-6.0-4.9","544","","","","","clear_screen","2","2","","","critical","c","t","d","164","240","240","164","240","164","trueblood","0","w","240","164","164","240","240","164","39360","39360","39360","td","null","null","null","null","null","null","[2,3]","450.7865941343143","507.1764937141865","474.72181921900005"
"","canvas-keyboard-response","74","82028","0.0-6.0-5.9","544","","","","","make choice","574","2","","","critical","c","t","d","164","240","240","164","240","164","trueblood","0","w","240","164","164","240","240","164","39360","39360","39360","td","null","null","null","null","null","null","[2,3]","","",""
"","canvas-keyboard-response","75","82046","0.0-6.0-6.9","544","","","","","clear_screen","null","null","","","critical","c","t","d","164","240","240","164","240","164","trueblood","0","w","240","164","164","240","240","164","39360","39360","39360","td","null","null","null","null","null","null","[2,3]","","",""
"","canvas-keyboard-response","76","82248","0.0-6.0-0.10","544","","","","","pre trial waiting period","null","null","","","catch","sh","sw","l","175","215","216","228","217","283","trueblood","null","null","null","null","null","null","null","null","null","null","null","","180","200","260","200","36000","52000","[2,3]","453.19340530336257","447.84196405855147","396.20889066171895"
"","canvas-keyboard-response","77","82267","0.0-6.0-1.10","544","","","","","clear_screen","null","null","","","catch","sh","sw","l","175","215","216","228","217","283","trueblood","null","null","null","null","null","null","null","null","null","null","null","","180","200","260","200","36000","52000","[2,3]","453.19340530336257","447.84196405855147","396.20889066171895"
"","canvas-keyboard-response","78","82778","0.0-6.0-2.10","544","","","","","rectangles no change","null","null","","","catch","sh","sw","l","175","215","216","228","217","283","trueblood","null","null","null","null","null","null","null","null","null","null","null","","180","200","260","200","36000","52000","[2,3]","453.19340530336257","447.84196405855147","396.20889066171895"
"","canvas-keyboard-response","79","84113","0.0-6.0-3.10","544","","","","","rectangles with change","null","null","","","catch","sh","sw","l","175","215","216","228","217","283","trueblood","null","null","null","null","null","null","null","null","null","null","null","","180","200","260","200","36000","52000","[2,3]","453.19340530336257","447.84196405855147","396.20889066171895"
"","canvas-keyboard-response","80","84132","0.0-6.0-4.10","544","","","","","clear_screen","null","null","","","catch","sh","sw","l","175","215","216","228","217","283","trueblood","null","null","null","null","null","null","null","null","null","null","null","","180","200","260","200","36000","52000","[2,3]","453.19340530336257","447.84196405855147","396.20889066171895"
"","canvas-keyboard-response","81","84739","0.0-6.0-5.10","544","","","","","make choice","599","3","","","catch","sh","sw","l","175","215","216","228","217","283","trueblood","null","null","null","null","null","null","null","null","null","null","null","","180","200","260","200","36000","52000","[2,3]","","",""
"","canvas-keyboard-response","82","84757","0.0-6.0-6.10","544","","","","","clear_screen","null","null","","","catch","sh","sw","l","175","215","216","228","217","283","trueblood","null","null","null","null","null","null","null","null","null","null","null","","180","200","260","200","36000","52000","[2,3]","","",""
"","canvas-keyboard-response","83","84958","0.0-6.0-0.11","544","","","","","pre trial waiting period","null","null","","","critical","d","c","t","232.8713","160.6713","164","240","240","164","spektor","0.05","w","240","164","164","240","232.8713","160.6713","39360","39360","37415.7294","dc","null","null","null","null","null","null","[1,2]","532.4849243993715","125.05498736246669","509.0841903688747"
"","canvas-keyboard-response","84","84976","0.0-6.0-1.11","544","","","","","clear_screen","null","null","","","critical","d","c","t","232.8713","160.6713","164","240","240","164","spektor","0.05","w","240","164","164","240","232.8713","160.6713","39360","39360","37415.7294","dc","null","null","null","null","null","null","[1,2]","532.4849243993715","125.05498736246669","509.0841903688747"
"","canvas-keyboard-response","85","85487","0.0-6.0-2.11","544","","","","","rectangles no change","null","null","","","critical","d","c","t","232.8713","160.6713","164","240","240","164","spektor","0.05","w","240","164","164","240","232.8713","160.6713","39360","39360","37415.7294","dc","null","null","null","null","null","null","[1,2]","532.4849243993715","125.05498736246669","509.0841903688747"
"","canvas-keyboard-response","86","86822","0.0-6.0-3.11","544","","","","","rectangles with change","null","null","","","critical","d","c","t","232.8713","160.6713","164","240","240","164","spektor","0.05","w","240","164","164","240","232.8713","160.6713","39360","39360","37415.7294","dc","null","null","null","null","null","null","[1,2]","532.4849243993715","125.05498736246669","509.0841903688747"
"","canvas-keyboard-response","87","86841","0.0-6.0-4.11","544","","","","","clear_screen","null","null","","","critical","d","c","t","232.8713","160.6713","164","240","240","164","spektor","0.05","w","240","164","164","240","232.8713","160.6713","39360","39360","37415.7294","dc","null","null","null","null","null","null","[1,2]","532.4849243993715","125.05498736246669","509.0841903688747"
"","canvas-keyboard-response","88","87299","0.0-6.0-5.11","544","","","","","make choice","452","1","","","critical","d","c","t","232.8713","160.6713","164","240","240","164","spektor","0.05","w","240","164","164","240","232.8713","160.6713","39360","39360","37415.7294","dc","null","null","null","null","null","null","[1,2]","","",""
"","canvas-keyboard-response","89","87317","0.0-6.0-6.11","544","","","","","clear_screen","null","null","","","critical","d","c","t","232.8713","160.6713","164","240","240","164","spektor","0.05","w","240","164","164","240","232.8713","160.6713","39360","39360","37415.7294","dc","null","null","null","null","null","null","[1,2]","","",""
"","canvas-keyboard-response","90","87519","0.0-6.0-0.12","544","","","","","pre trial waiting period","null","null","","","catch","sh","l","sw","201","217","220","297","199","225","spektor","null","null","null","null","null","null","null","null","null","null","null","","180","200","260","200","36000","52000","[1,2]","481.33722179404776","48.1043244619306","464.5860564875468"
"","canvas-keyboard-response","91","87538","0.0-6.0-1.12","544","","","","","clear_screen","null","null","","","catch","sh","l","sw","201","217","220","297","199","225","spektor","null","null","null","null","null","null","null","null","null","null","null","","180","200","260","200","36000","52000","[1,2]","481.33722179404776","48.1043244619306","464.5860564875468"
"","canvas-keyboard-response","92","88048","0.0-6.0-2.12","544","","","","","rectangles no change","null","null","","","catch","sh","l","sw","201","217","220","297","199","225","spektor","null","null","null","null","null","null","null","null","null","null","null","","180","200","260","200","36000","52000","[1,2]","481.33722179404776","48.1043244619306","464.5860564875468"
"","canvas-keyboard-response","93","89383","0.0-6.0-3.12","544","","","","","rectangles with change","null","null","","","catch","sh","l","sw","201","217","220","297","199","225","spektor","null","null","null","null","null","null","null","null","null","null","null","","180","200","260","200","36000","52000","[1,2]","481.33722179404776","48.1043244619306","464.5860564875468"
"","canvas-keyboard-response","94","89400","0.0-6.0-4.12","544","","","","","clear_screen","null","null","","","catch","sh","l","sw","201","217","220","297","199","225","spektor","null","null","null","null","null","null","null","null","null","null","null","","180","200","260","200","36000","52000","[1,2]","481.33722179404776","48.1043244619306","464.5860564875468"
"","canvas-keyboard-response","95","89731","0.0-6.0-5.12","544","","","","","make choice","324","2","","","catch","sh","l","sw","201","217","220","297","199","225","spektor","null","null","null","null","null","null","null","null","null","null","null","","180","200","260","200","36000","52000","[1,2]","","",""
"","canvas-keyboard-response","96","89749","0.0-6.0-6.12","544","","","","","clear_screen","null","null","","","catch","sh","l","sw","201","217","220","297","199","225","spektor","null","null","null","null","null","null","null","null","null","null","null","","180","200","260","200","36000","52000","[1,2]","","",""
"","canvas-keyboard-response","97","89950","0.0-6.0-0.13","544","","","","","pre trial waiting period","null","null","","","critical","d","c","t","237.1485","162.6685","164","240","240","164","spektor","0.02","w","240","164","164","240","237.1485","162.6685","39360","39360","38576.5967","dc","null","null","null","null","null","null","[1,2]","515.3134007088051","119.42697640997953","540.428460813272"
"","canvas-keyboard-response","98","89968","0.0-6.0-1.13","544","","","","","clear_screen","null","null","","","critical","d","c","t","237.1485","162.6685","164","240","240","164","spektor","0.02","w","240","164","164","240","237.1485","162.6685","39360","39360","38576.5967","dc","null","null","null","null","null","null","[1,2]","515.3134007088051","119.42697640997953","540.428460813272"
"","canvas-keyboard-response","99","90484","0.0-6.0-2.13","544","","","","","rectangles no change","null","null","","","critical","d","c","t","237.1485","162.6685","164","240","240","164","spektor","0.02","w","240","164","164","240","237.1485","162.6685","39360","39360","38576.5967","dc","null","null","null","null","null","null","[1,2]","515.3134007088051","119.42697640997953","540.428460813272"
"","canvas-keyboard-response","100","91819","0.0-6.0-3.13","544","","","","","rectangles with change","null","null","","","critical","d","c","t","237.1485","162.6685","164","240","240","164","spektor","0.02","w","240","164","164","240","237.1485","162.6685","39360","39360","38576.5967","dc","null","null","null","null","null","null","[1,2]","515.3134007088051","119.42697640997953","540.428460813272"
"","canvas-keyboard-response","101","91837","0.0-6.0-4.13","544","","","","","clear_screen","null","null","","","critical","d","c","t","237.1485","162.6685","164","240","240","164","spektor","0.02","w","240","164","164","240","237.1485","162.6685","39360","39360","38576.5967","dc","null","null","null","null","null","null","[1,2]","515.3134007088051","119.42697640997953","540.428460813272"
"","canvas-keyboard-response","102","92291","0.0-6.0-5.13","544","","","","","make choice","448","1","","","critical","d","c","t","237.1485","162.6685","164","240","240","164","spektor","0.02","w","240","164","164","240","237.1485","162.6685","39360","39360","38576.5967","dc","null","null","null","null","null","null","[1,2]","","",""
"","canvas-keyboard-response","103","92309","0.0-6.0-6.13","544","","","","","clear_screen","null","null","","","critical","d","c","t","237.1485","162.6685","164","240","240","164","spektor","0.02","w","240","164","164","240","237.1485","162.6685","39360","39360","38576.5967","dc","null","null","null","null","null","null","[1,2]","","",""
"","canvas-keyboard-response","104","92510","0.0-6.0-0.14","544","","","","","pre trial waiting period","null","null","","","critical","t","c","d","164","240","240","164","164","240","spektor","0","h","164","240","240","164","164","240","39360","39360","39360","td","null","null","null","null","null","null","[1,3]","490.06117286165346","175.1972858288085","494.36768264815436"
"","canvas-keyboard-response","105","92528","0.0-6.0-1.14","544","","","","","clear_screen","null","null","","","critical","t","c","d","164","240","240","164","164","240","spektor","0","h","164","240","240","164","164","240","39360","39360","39360","td","null","null","null","null","null","null","[1,3]","490.06117286165346","175.1972858288085","494.36768264815436"
"","canvas-keyboard-response","106","93039","0.0-6.0-2.14","544","","","","","rectangles no change","null","null","","","critical","t","c","d","164","240","240","164","164","240","spektor","0","h","164","240","240","164","164","240","39360","39360","39360","td","null","null","null","null","null","null","[1,3]","490.06117286165346","175.1972858288085","494.36768264815436"
"","canvas-keyboard-response","107","94374","0.0-6.0-3.14","544","","","","","rectangles with change","null","null","","","critical","t","c","d","164","240","240","164","164","240","spektor","0","h","164","240","240","164","164","240","39360","39360","39360","td","null","null","null","null","null","null","[1,3]","490.06117286165346","175.1972858288085","494.36768264815436"
"","canvas-keyboard-response","108","94392","0.0-6.0-4.14","544","","","","","clear_screen","null","null","","","critical","t","c","d","164","240","240","164","164","240","spektor","0","h","164","240","240","164","164","240","39360","39360","39360","td","null","null","null","null","null","null","[1,3]","490.06117286165346","175.1972858288085","494.36768264815436"
"","canvas-keyboard-response","109","94795","0.0-6.0-5.14","544","","","","","make choice","396","3","","","critical","t","c","d","164","240","240","164","164","240","spektor","0","h","164","240","240","164","164","240","39360","39360","39360","td","null","null","null","null","null","null","[1,3]","","",""
"","canvas-keyboard-response","110","94812","0.0-6.0-6.14","544","","","","","clear_screen","null","null","","","critical","t","c","d","164","240","240","164","164","240","spektor","0","h","164","240","240","164","164","240","39360","39360","39360","td","null","null","null","null","null","null","[1,3]","","",""
"","canvas-keyboard-response","111","95014","0.0-6.0-0.15","544","","","","","pre trial waiting period","null","null","","","critical","d","c","t","162.6685","237.1485","240","164","164","240","spektor","0.02","h","164","240","240","164","162.6685","237.1485","39360","39360","38576.5967","dc","null","null","null","null","null","null","[1,2]","481.90089133825046","149.13132749448698","466.72988330970657"
"","canvas-keyboard-response","112","95032","0.0-6.0-1.15","544","","","","","clear_screen","null","null","","","critical","d","c","t","162.6685","237.1485","240","164","164","240","spektor","0.02","h","164","240","240","164","162.6685","237.1485","39360","39360","38576.5967","dc","null","null","null","null","null","null","[1,2]","481.90089133825046","149.13132749448698","466.72988330970657"
"","canvas-keyboard-response","113","95544","0.0-6.0-2.15","544","","","","","rectangles no change","null","null","","","critical","d","c","t","162.6685","237.1485","240","164","164","240","spektor","0.02","h","164","240","240","164","162.6685","237.1485","39360","39360","38576.5967","dc","null","null","null","null","null","null","[1,2]","481.90089133825046","149.13132749448698","466.72988330970657"
"","canvas-keyboard-response","114","96881","0.0-6.0-3.15","544","","","","","rectangles with change","null","null","","","critical","d","c","t","162.6685","237.1485","240","164","164","240","spektor","0.02","h","164","240","240","164","162.6685","237.1485","39360","39360","38576.5967","dc","null","null","null","null","null","null","[1,2]","481.90089133825046","149.13132749448698","466.72988330970657"
"","canvas-keyboard-response","115","96902","0.0-6.0-4.15","544","","","","","clear_screen","null","null","","","critical","d","c","t","162.6685","237.1485","240","164","164","240","spektor","0.02","h","164","240","240","164","162.6685","237.1485","39360","39360","38576.5967","dc","null","null","null","null","null","null","[1,2]","481.90089133825046","149.13132749448698","466.72988330970657"
"","canvas-keyboard-response","116","97403","0.0-6.0-5.15","544","","","","","make choice","493","2","","","critical","d","c","t","162.6685","237.1485","240","164","164","240","spektor","0.02","h","164","240","240","164","162.6685","237.1485","39360","39360","38576.5967","dc","null","null","null","null","null","null","[1,2]","","",""
"","canvas-keyboard-response","117","97421","0.0-6.0-6.15","544","","","","","clear_screen","null","null","","","critical","d","c","t","162.6685","237.1485","240","164","164","240","spektor","0.02","h","164","240","240","164","162.6685","237.1485","39360","39360","38576.5967","dc","null","null","null","null","null","null","[1,2]","","",""
"","canvas-keyboard-response","118","97623","0.0-6.0-0.16","544","","","","","pre trial waiting period","null","null","","","catch","sw","sh","l","180","200","184","169","221","262","trueblood","null","null","null","null","null","null","null","null","null","null","null","","180","200","260","200","36000","52000","[1,3]","464.65223085781207","473.9952996936916","414.20679480250067"
"","canvas-keyboard-response","119","97641","0.0-6.0-1.16","544","","","","","clear_screen","null","null","","","catch","sw","sh","l","180","200","184","169","221","262","trueblood","null","null","null","null","null","null","null","null","null","null","null","","180","200","260","200","36000","52000","[1,3]","464.65223085781207","473.9952996936916","414.20679480250067"
"","canvas-keyboard-response","120","98150","0.0-6.0-2.16","544","","","","","rectangles no change","null","null","","","catch","sw","sh","l","180","200","184","169","221","262","trueblood","null","null","null","null","null","null","null","null","null","null","null","","180","200","260","200","36000","52000","[1,3]","464.65223085781207","473.9952996936916","414.20679480250067"
"","canvas-keyboard-response","121","99484","0.0-6.0-3.16","544","","","","","rectangles with change","null","null","","","catch","sw","sh","l","180","200","184","169","221","262","trueblood","null","null","null","null","null","null","null","null","null","null","null","","180","200","260","200","36000","52000","[1,3]","464.65223085781207","473.9952996936916","414.20679480250067"
"","canvas-keyboard-response","122","99501","0.0-6.0-4.16","544","","","","","clear_screen","null","null","","","catch","sw","sh","l","180","200","184","169","221","262","trueblood","null","null","null","null","null","null","null","null","null","null","null","","180","200","260","200","36000","52000","[1,3]","464.65223085781207","473.9952996936916","414.20679480250067"
"","canvas-keyboard-response","123","99963","0.0-6.0-5.16","544","","","","","make choice","452","3","","","catch","sw","sh","l","180","200","184","169","221","262","trueblood","null","null","null","null","null","null","null","null","null","null","null","","180","200","260","200","36000","52000","[1,3]","","",""
"","canvas-keyboard-response","124","99980","0.0-6.0-6.16","544","","","","","clear_screen","null","null","","","catch","sw","sh","l","180","200","184","169","221","262","trueblood","null","null","null","null","null","null","null","null","null","null","null","","180","200","260","200","36000","52000","[1,3]","","",""
"","canvas-keyboard-response","125","100182","0.0-6.0-0.17","544","","","","","pre trial waiting period","null","null","","","catch","l","sw","sh","214","250","152","232","176","181","spektor","null","null","null","null","null","null","null","null","null","null","null","","180","200","260","200","36000","52000","[1,3]","465.43286931064114","101.3271749661086","489.3605437297586"
"","canvas-keyboard-response","126","100201","0.0-6.0-1.17","544","","","","","clear_screen","null","null","","","catch","l","sw","sh","214","250","152","232","176","181","spektor","null","null","null","null","null","null","null","null","null","null","null","","180","200","260","200","36000","52000","[1,3]","465.43286931064114","101.3271749661086","489.3605437297586"
"","canvas-keyboard-response","127","100711","0.0-6.0-2.17","544","","","","","rectangles no change","null","null","","","catch","l","sw","sh","214","250","152","232","176","181","spektor","null","null","null","null","null","null","null","null","null","null","null","","180","200","260","200","36000","52000","[1,3]","465.43286931064114","101.3271749661086","489.3605437297586"
"","canvas-keyboard-response","128","102046","0.0-6.0-3.17","544","","","","","rectangles with change","null","null","","","catch","l","sw","sh","214","250","152","232","176","181","spektor","null","null","null","null","null","null","null","null","null","null","null","","180","200","260","200","36000","52000","[1,3]","465.43286931064114","101.3271749661086","489.3605437297586"
"","canvas-keyboard-response","129","102065","0.0-6.0-4.17","544","","","","","clear_screen","null","null","","","catch","l","sw","sh","214","250","152","232","176","181","spektor","null","null","null","null","null","null","null","null","null","null","null","","180","200","260","200","36000","52000","[1,3]","465.43286931064114","101.3271749661086","489.3605437297586"
"","canvas-keyboard-response","130","102372","0.0-6.0-5.17","544","","","","","make choice","300","1","","","catch","l","sw","sh","214","250","152","232","176","181","spektor","null","null","null","null","null","null","null","null","null","null","null","","180","200","260","200","36000","52000","[1,3]","","",""
"","canvas-keyboard-response","131","102389","0.0-6.0-6.17","544","","","","","clear_screen","null","null","","","catch","l","sw","sh","214","250","152","232","176","181","spektor","null","null","null","null","null","null","null","null","null","null","null","","180","200","260","200","36000","52000","[1,3]","","",""
"","canvas-keyboard-response","132","102591","0.0-6.0-0.18","544","","","","","pre trial waiting period","null","null","","","critical","t","c","d","164","240","240","164","158.0083","227.1683","spektor","0.09","h","164","240","240","164","158.0083","227.1683","39360","39360","35894.4834","tc","null","null","null","null","null","null","[1,2]","482.81928152421403","195.28787926289564","462.82442894349487"
"","canvas-keyboard-response","133","102608","0.0-6.0-1.18","544","","","","","clear_screen","null","null","","","critical","t","c","d","164","240","240","164","158.0083","227.1683","spektor","0.09","h","164","240","240","164","158.0083","227.1683","39360","39360","35894.4834","tc","null","null","null","null","null","null","[1,2]","482.81928152421403","195.28787926289564","462.82442894349487"
"","canvas-keyboard-response","134","103118","0.0-6.0-2.18","544","","","","","rectangles no change","null","null","","","critical","t","c","d","164","240","240","164","158.0083","227.1683","spektor","0.09","h","164","240","240","164","158.0083","227.1683","39360","39360","35894.4834","tc","null","null","null","null","null","null","[1,2]","482.81928152421403","195.28787926289564","462.82442894349487"
"","canvas-keyboard-response","135","104453","0.0-6.0-3.18","544","","","","","rectangles with change","null","null","","","critical","t","c","d","164","240","240","164","158.0083","227.1683","spektor","0.09","h","164","240","240","164","158.0083","227.1683","39360","39360","35894.4834","tc","null","null","null","null","null","null","[1,2]","482.81928152421403","195.28787926289564","462.82442894349487"
"","canvas-keyboard-response","136","104471","0.0-6.0-4.18","544","","","","","clear_screen","null","null","","","critical","t","c","d","164","240","240","164","158.0083","227.1683","spektor","0.09","h","164","240","240","164","158.0083","227.1683","39360","39360","35894.4834","tc","null","null","null","null","null","null","[1,2]","482.81928152421403","195.28787926289564","462.82442894349487"
"","canvas-keyboard-response","137","104995","0.0-6.0-5.18","544","","","","","make choice","517","1","","","critical","t","c","d","164","240","240","164","158.0083","227.1683","spektor","0.09","h","164","240","240","164","158.0083","227.1683","39360","39360","35894.4834","tc","null","null","null","null","null","null","[1,2]","","",""
"","canvas-keyboard-response","138","105014","0.0-6.0-6.18","544","","","","","clear_screen","null","null","","","critical","t","c","d","164","240","240","164","158.0083","227.1683","spektor","0.09","h","164","240","240","164","158.0083","227.1683","39360","39360","35894.4834","tc","null","null","null","null","null","null","[1,2]","","",""
"","canvas-keyboard-response","139","105216","0.0-6.0-0.19","544","","","","","pre trial waiting period","null","null","","","catch","l","sw","sh","178","256","170","188","229","184","spektor","null","null","null","null","null","null","null","null","null","null","null","","180","200","260","200","36000","52000","[1,3]","467.93889841592545","173.70884680083788","520.1513483642759"
"","canvas-keyboard-response","140","105234","0.0-6.0-1.19","544","","","","","clear_screen","null","null","","","catch","l","sw","sh","178","256","170","188","229","184","spektor","null","null","null","null","null","null","null","null","null","null","null","","180","200","260","200","36000","52000","[1,3]","467.93889841592545","173.70884680083788","520.1513483642759"
"","canvas-keyboard-response","141","105744","0.0-6.0-2.19","544","","","","","rectangles no change","null","null","","","catch","l","sw","sh","178","256","170","188","229","184","spektor","null","null","null","null","null","null","null","null","null","null","null","","180","200","260","200","36000","52000","[1,3]","467.93889841592545","173.70884680083788","520.1513483642759"
"","canvas-keyboard-response","142","107080","0.0-6.0-3.19","544","","","","","rectangles with change","null","null","","","catch","l","sw","sh","178","256","170","188","229","184","spektor","null","null","null","null","null","null","null","null","null","null","null","","180","200","260","200","36000","52000","[1,3]","467.93889841592545","173.70884680083788","520.1513483642759"
"","canvas-keyboard-response","143","107098","0.0-6.0-4.19","544","","","","","clear_screen","null","null","","","catch","l","sw","sh","178","256","170","188","229","184","spektor","null","null","null","null","null","null","null","null","null","null","null","","180","200","260","200","36000","52000","[1,3]","467.93889841592545","173.70884680083788","520.1513483642759"
"","canvas-keyboard-response","144","107595","0.0-6.0-5.19","544","","","","","make choice","489","3","","","catch","l","sw","sh","178","256","170","188","229","184","spektor","null","null","null","null","null","null","null","null","null","null","null","","180","200","260","200","36000","52000","[1,3]","","",""
"","canvas-keyboard-response","145","107612","0.0-6.0-6.19","544","","","","","clear_screen","null","null","","","catch","l","sw","sh","178","256","170","188","229","184","spektor","null","null","null","null","null","null","null","null","null","null","null","","180","200","260","200","36000","52000","[1,3]","","",""
"","canvas-keyboard-response","146","107814","0.0-6.0-0.20","544","","","","","pre trial waiting period","null","null","","","critical","c","d","t","164","240","237.1485","162.6685","240","164","trueblood","0.02","w","240","164","164","240","237.1485","162.6685","39360","39360","38576.5967","td","null","null","null","null","null","null","[3,2]","443.700023836663","499.89933337377477","496.11708442281474"
"","canvas-keyboard-response","147","107833","0.0-6.0-1.20","544","","","","","clear_screen","null","null","","","critical","c","d","t","164","240","237.1485","162.6685","240","164","trueblood","0.02","w","240","164","164","240","237.1485","162.6685","39360","39360","38576.5967","td","null","null","null","null","null","null","[3,2]","443.700023836663","499.89933337377477","496.11708442281474"
"","canvas-keyboard-response","148","108346","0.0-6.0-2.20","544","","","","","rectangles no change","null","null","","","critical","c","d","t","164","240","237.1485","162.6685","240","164","trueblood","0.02","w","240","164","164","240","237.1485","162.6685","39360","39360","38576.5967","td","null","null","null","null","null","null","[3,2]","443.700023836663","499.89933337377477","496.11708442281474"
"","canvas-keyboard-response","149","109681","0.0-6.0-3.20","544","","","","","rectangles with change","null","null","","","critical","c","d","t","164","240","237.1485","162.6685","240","164","trueblood","0.02","w","240","164","164","240","237.1485","162.6685","39360","39360","38576.5967","td","null","null","null","null","null","null","[3,2]","443.700023836663","499.89933337377477","496.11708442281474"
"","canvas-keyboard-response","150","109698","0.0-6.0-4.20","544","","","","","clear_screen","null","null","","","critical","c","d","t","164","240","237.1485","162.6685","240","164","trueblood","0.02","w","240","164","164","240","237.1485","162.6685","39360","39360","38576.5967","td","null","null","null","null","null","null","[3,2]","443.700023836663","499.89933337377477","496.11708442281474"
"","canvas-keyboard-response","151","110275","0.0-6.0-5.20","544","","","","","make choice","568","3","","","critical","c","d","t","164","240","237.1485","162.6685","240","164","trueblood","0.02","w","240","164","164","240","237.1485","162.6685","39360","39360","38576.5967","td","null","null","null","null","null","null","[3,2]","","",""
"","canvas-keyboard-response","152","110293","0.0-6.0-6.20","544","","","","","clear_screen","null","null","","","critical","c","d","t","164","240","237.1485","162.6685","240","164","trueblood","0.02","w","240","164","164","240","237.1485","162.6685","39360","39360","38576.5967","td","null","null","null","null","null","null","[3,2]","","",""
"","canvas-keyboard-response","153","110493","0.0-6.0-0.21","544","","","","","pre trial waiting period","null","null","","","catch","sw","l","sh","180","200","270","196","191","152","spektor","null","null","null","null","null","null","null","null","null","null","null","","180","200","260","200","36000","52000","[1,2]","504.4311644729261","168.81832282597654","538.7110693446534"
"","canvas-keyboard-response","154","110512","0.0-6.0-1.21","544","","","","","clear_screen","null","null","","","catch","sw","l","sh","180","200","270","196","191","152","spektor","null","null","null","null","null","null","null","null","null","null","null","","180","200","260","200","36000","52000","[1,2]","504.4311644729261","168.81832282597654","538.7110693446534"
"","canvas-keyboard-response","155","111025","0.0-6.0-2.21","544","","","","","rectangles no change","null","null","","","catch","sw","l","sh","180","200","270","196","191","152","spektor","null","null","null","null","null","null","null","null","null","null","null","","180","200","260","200","36000","52000","[1,2]","504.4311644729261","168.81832282597654","538.7110693446534"
"","canvas-keyboard-response","156","112361","0.0-6.0-3.21","544","","","","","rectangles with change","null","null","","","catch","sw","l","sh","180","200","270","196","191","152","spektor","null","null","null","null","null","null","null","null","null","null","null","","180","200","260","200","36000","52000","[1,2]","504.4311644729261","168.81832282597654","538.7110693446534"
"","canvas-keyboard-response","157","112378","0.0-6.0-4.21","544","","","","","clear_screen","null","null","","","catch","sw","l","sh","180","200","270","196","191","152","spektor","null","null","null","null","null","null","null","null","null","null","null","","180","200","260","200","36000","52000","[1,2]","504.4311644729261","168.81832282597654","538.7110693446534"
"","canvas-keyboard-response","158","112803","0.0-6.0-5.21","544","","","","","make choice","418","2","","","catch","sw","l","sh","180","200","270","196","191","152","spektor","null","null","null","null","null","null","null","null","null","null","null","","180","200","260","200","36000","52000","[1,2]","","",""
"","canvas-keyboard-response","159","112821","0.0-6.0-6.21","544","","","","","clear_screen","null","null","","","catch","sw","l","sh","180","200","270","196","191","152","spektor","null","null","null","null","null","null","null","null","null","null","null","","180","200","260","200","36000","52000","[1,2]","","",""
"","canvas-keyboard-response","160","113022","0.0-6.0-0.22","544","","","","","pre trial waiting period","null","null","","","critical","d","c","t","227.1683","158.0083","164","240","240","164","trueblood","0.09","w","240","164","164","240","227.1683","158.0083","39360","39360","35894.4834","tc","null","null","null","null","null","null","[3,2]","520.8530935666137","465.5830858785486","513.7270569914665"
"","canvas-keyboard-response","161","113041","0.0-6.0-1.22","544","","","","","clear_screen","null","null","","","critical","d","c","t","227.1683","158.0083","164","240","240","164","trueblood","0.09","w","240","164","164","240","227.1683","158.0083","39360","39360","35894.4834","tc","null","null","null","null","null","null","[3,2]","520.8530935666137","465.5830858785486","513.7270569914665"
"","canvas-keyboard-response","162","113551","0.0-6.0-2.22","544","","","","","rectangles no change","null","null","","","critical","d","c","t","227.1683","158.0083","164","240","240","164","trueblood","0.09","w","240","164","164","240","227.1683","158.0083","39360","39360","35894.4834","tc","null","null","null","null","null","null","[3,2]","520.8530935666137","465.5830858785486","513.7270569914665"
"","canvas-keyboard-response","163","114885","0.0-6.0-3.22","544","","","","","rectangles with change","null","null","","","critical","d","c","t","227.1683","158.0083","164","240","240","164","trueblood","0.09","w","240","164","164","240","227.1683","158.0083","39360","39360","35894.4834","tc","null","null","null","null","null","null","[3,2]","520.8530935666137","465.5830858785486","513.7270569914665"
"","canvas-keyboard-response","164","114903","0.0-6.0-4.22","544","","","","","clear_screen","null","null","","","critical","d","c","t","227.1683","158.0083","164","240","240","164","trueblood","0.09","w","240","164","164","240","227.1683","158.0083","39360","39360","35894.4834","tc","null","null","null","null","null","null","[3,2]","520.8530935666137","465.5830858785486","513.7270569914665"
"","canvas-keyboard-response","165","115362","0.0-6.0-5.22","544","","","","","make choice","451","3","","","critical","d","c","t","227.1683","158.0083","164","240","240","164","trueblood","0.09","w","240","164","164","240","227.1683","158.0083","39360","39360","35894.4834","tc","null","null","null","null","null","null","[3,2]","","",""
"","canvas-keyboard-response","166","115380","0.0-6.0-6.22","544","","","","","clear_screen","null","null","","","critical","d","c","t","227.1683","158.0083","164","240","240","164","trueblood","0.09","w","240","164","164","240","227.1683","158.0083","39360","39360","35894.4834","tc","null","null","null","null","null","null","[3,2]","","",""
"","canvas-keyboard-response","167","115582","0.0-6.0-0.23","544","","","","","pre trial waiting period","null","null","","","critical","d","t","c","237.1485","162.6685","240","164","164","240","trueblood","0.02","w","240","164","164","240","237.1485","162.6685","39360","39360","38576.5967","tc","null","null","null","null","null","null","[2,3]","494.9696360666283","480.180854622851","442.629039864036"
"","canvas-keyboard-response","168","115601","0.0-6.0-1.23","544","","","","","clear_screen","null","null","","","critical","d","t","c","237.1485","162.6685","240","164","164","240","trueblood","0.02","w","240","164","164","240","237.1485","162.6685","39360","39360","38576.5967","tc","null","null","null","null","null","null","[2,3]","494.9696360666283","480.180854622851","442.629039864036"
"","canvas-keyboard-response","169","116111","0.0-6.0-2.23","544","","","","","rectangles no change","null","null","","","critical","d","t","c","237.1485","162.6685","240","164","164","240","trueblood","0.02","w","240","164","164","240","237.1485","162.6685","39360","39360","38576.5967","tc","null","null","null","null","null","null","[2,3]","494.9696360666283","480.180854622851","442.629039864036"
"","canvas-keyboard-response","170","117445","0.0-6.0-3.23","544","","","","","rectangles with change","null","null","","","critical","d","t","c","237.1485","162.6685","240","164","164","240","trueblood","0.02","w","240","164","164","240","237.1485","162.6685","39360","39360","38576.5967","tc","null","null","null","null","null","null","[2,3]","494.9696360666283","480.180854622851","442.629039864036"
"","canvas-keyboard-response","171","117467","0.0-6.0-4.23","544","","","","","clear_screen","null","null","","","critical","d","t","c","237.1485","162.6685","240","164","164","240","trueblood","0.02","w","240","164","164","240","237.1485","162.6685","39360","39360","38576.5967","tc","null","null","null","null","null","null","[2,3]","494.9696360666283","480.180854622851","442.629039864036"
"","canvas-keyboard-response","172","117779","0.0-6.0-5.23","544","","","","","make choice","304","2","","","critical","d","t","c","237.1485","162.6685","240","164","164","240","trueblood","0.02","w","240","164","164","240","237.1485","162.6685","39360","39360","38576.5967","tc","null","null","null","null","null","null","[2,3]","","",""
"","canvas-keyboard-response","173","117797","0.0-6.0-6.23","544","","","","","clear_screen","null","null","","","critical","d","t","c","237.1485","162.6685","240","164","164","240","trueblood","0.02","w","240","164","164","240","237.1485","162.6685","39360","39360","38576.5967","tc","null","null","null","null","null","null","[2,3]","","",""
"","canvas-keyboard-response","174","117998","0.0-6.0-0.24","544","","","","","pre trial waiting period","null","null","","","catch","l","sw","sh","188","278","191","222","214","190","trueblood","null","null","null","null","null","null","null","null","null","null","null","","180","200","260","200","36000","52000","[1,2]","443.28613680155917","437.310188581777","456.18285166143437"
"","canvas-keyboard-response","175","118016","0.0-6.0-1.24","544","","","","","clear_screen","null","null","","","catch","l","sw","sh","188","278","191","222","214","190","trueblood","null","null","null","null","null","null","null","null","null","null","null","","180","200","260","200","36000","52000","[1,2]","443.28613680155917","437.310188581777","456.18285166143437"
"","canvas-keyboard-response","176","118526","0.0-6.0-2.24","544","","","","","rectangles no change","null","null","","","catch","l","sw","sh","188","278","191","222","214","190","trueblood","null","null","null","null","null","null","null","null","null","null","null","","180","200","260","200","36000","52000","[1,2]","443.28613680155917","437.310188581777","456.18285166143437"
"","canvas-keyboard-response","177","119860","0.0-6.0-3.24","544","","","","","rectangles with change","null","null","","","catch","l","sw","sh","188","278","191","222","214","190","trueblood","null","null","null","null","null","null","null","null","null","null","null","","180","200","260","200","36000","52000","[1,2]","443.28613680155917","437.310188581777","456.18285166143437"
"","canvas-keyboard-response","178","119878","0.0-6.0-4.24","544","","","","","clear_screen","null","null","","","catch","l","sw","sh","188","278","191","222","214","190","trueblood","null","null","null","null","null","null","null","null","null","null","null","","180","200","260","200","36000","52000","[1,2]","443.28613680155917","437.310188581777","456.18285166143437"
"","canvas-keyboard-response","179","120139","0.0-6.0-5.24","544","","","","","make choice","253","1","","","catch","l","sw","sh","188","278","191","222","214","190","trueblood","null","null","null","null","null","null","null","null","null","null","null","","180","200","260","200","36000","52000","[1,2]","","",""
"","canvas-keyboard-response","180","120156","0.0-6.0-6.24","544","","","","","clear_screen","null","null","","","catch","l","sw","sh","188","278","191","222","214","190","trueblood","null","null","null","null","null","null","null","null","null","null","null","","180","200","260","200","36000","52000","[1,2]","","",""
"","canvas-keyboard-response","181","120357","0.0-6.0-0.25","544","","","","","pre trial waiting period","null","null","","","catch","sw","sh","l","180","200","224","158","209","246","trueblood","null","null","null","null","null","null","null","null","null","null","null","","180","200","260","200","36000","52000","[2,3]","450.2994926270258","480.57476402073263","450.8628233168101"
"","canvas-keyboard-response","182","120376","0.0-6.0-1.25","544","","","","","clear_screen","null","null","","","catch","sw","sh","l","180","200","224","158","209","246","trueblood","null","null","null","null","null","null","null","null","null","null","null","","180","200","260","200","36000","52000","[2,3]","450.2994926270258","480.57476402073263","450.8628233168101"
"","canvas-keyboard-response","183","120890","0.0-6.0-2.25","544","","","","","rectangles no change","null","null","","","catch","sw","sh","l","180","200","224","158","209","246","trueblood","null","null","null","null","null","null","null","null","null","null","null","","180","200","260","200","36000","52000","[2,3]","450.2994926270258","480.57476402073263","450.8628233168101"
"","canvas-keyboard-response","184","122226","0.0-6.0-3.25","544","","","","","rectangles with change","null","null","","","catch","sw","sh","l","180","200","224","158","209","246","trueblood","null","null","null","null","null","null","null","null","null","null","null","","180","200","260","200","36000","52000","[2,3]","450.2994926270258","480.57476402073263","450.8628233168101"
"","canvas-keyboard-response","185","122247","0.0-6.0-4.25","544","","","","","clear_screen","null","null","","","catch","sw","sh","l","180","200","224","158","209","246","trueblood","null","null","null","null","null","null","null","null","null","null","null","","180","200","260","200","36000","52000","[2,3]","450.2994926270258","480.57476402073263","450.8628233168101"
"","canvas-keyboard-response","186","122619","0.0-6.0-5.25","544","","","","","make choice","362","3","","","catch","sw","sh","l","180","200","224","158","209","246","trueblood","null","null","null","null","null","null","null","null","null","null","null","","180","200","260","200","36000","52000","[2,3]","","",""
"","canvas-keyboard-response","187","122638","0.0-6.0-6.25","544","","","","","clear_screen","null","null","","","catch","sw","sh","l","180","200","224","158","209","246","trueblood","null","null","null","null","null","null","null","null","null","null","null","","180","200","260","200","36000","52000","[2,3]","","",""
"","canvas-keyboard-response","188","122842","0.0-6.0-0.26","544","","","","","pre trial waiting period","null","null","","","catch","l","sw","sh","237","239","200","231","235","207","trueblood","null","null","null","null","null","null","null","null","null","null","null","","180","200","260","200","36000","52000","[1,2]","454.4584833778453","447.320931986313","462.7566414207923"
"","canvas-keyboard-response","189","122861","0.0-6.0-1.26","544","","","","","clear_screen","null","null","","","catch","l","sw","sh","237","239","200","231","235","207","trueblood","null","null","null","null","null","null","null","null","null","null","null","","180","200","260","200","36000","52000","[1,2]","454.4584833778453","447.320931986313","462.7566414207923"
"","canvas-keyboard-response","190","123375","0.0-6.0-2.26","544","","","","","rectangles no change","null","null","","","catch","l","sw","sh","237","239","200","231","235","207","trueblood","null","null","null","null","null","null","null","null","null","null","null","","180","200","260","200","36000","52000","[1,2]","454.4584833778453","447.320931986313","462.7566414207923"
"","canvas-keyboard-response","191","124711","0.0-6.0-3.26","544","","","","","rectangles with change","null","null","","","catch","l","sw","sh","237","239","200","231","235","207","trueblood","null","null","null","null","null","null","null","null","null","null","null","","180","200","260","200","36000","52000","[1,2]","454.4584833778453","447.320931986313","462.7566414207923"
"","canvas-keyboard-response","192","124729","0.0-6.0-4.26","544","","","","","clear_screen","null","null","","","catch","l","sw","sh","237","239","200","231","235","207","trueblood","null","null","null","null","null","null","null","null","null","null","null","","180","200","260","200","36000","52000","[1,2]","454.4584833778453","447.320931986313","462.7566414207923"
"","canvas-keyboard-response","193","124979","0.0-6.0-5.26","544","","","","","make choice","242","1","","","catch","l","sw","sh","237","239","200","231","235","207","trueblood","null","null","null","null","null","null","null","null","null","null","null","","180","200","260","200","36000","52000","[1,2]","","",""
"","canvas-keyboard-response","194","124998","0.0-6.0-6.26","544","","","","","clear_screen","null","null","","","catch","l","sw","sh","237","239","200","231","235","207","trueblood","null","null","null","null","null","null","null","null","null","null","null","","180","200","260","200","36000","52000","[1,2]","","",""
"","canvas-keyboard-response","195","125203","0.0-6.0-0.27","544","","","","","pre trial waiting period","null","null","","","critical","d","t","c","240","164","240","164","164","240","trueblood","0","w","240","164","164","240","240","164","39360","39360","39360","tc","null","null","null","null","null","null","[2,3]","478.92414919749586","500.4778698925382","425.5060512183544"
"","canvas-keyboard-response","196","125223","0.0-6.0-1.27","544","","","","","clear_screen","null","null","","","critical","d","t","c","240","164","240","164","164","240","trueblood","0","w","240","164","164","240","240","164","39360","39360","39360","tc","null","null","null","null","null","null","[2,3]","478.92414919749586","500.4778698925382","425.5060512183544"
"","canvas-keyboard-response","197","125737","0.0-6.0-2.27","544","","","","","rectangles no change","null","null","","","critical","d","t","c","240","164","240","164","164","240","trueblood","0","w","240","164","164","240","240","164","39360","39360","39360","tc","null","null","null","null","null","null","[2,3]","478.92414919749586","500.4778698925382","425.5060512183544"
"","canvas-keyboard-response","198","127073","0.0-6.0-3.27","544","","","","","rectangles with change","null","null","","","critical","d","t","c","240","164","240","164","164","240","trueblood","0","w","240","164","164","240","240","164","39360","39360","39360","tc","null","null","null","null","null","null","[2,3]","478.92414919749586","500.4778698925382","425.5060512183544"
"","canvas-keyboard-response","199","127090","0.0-6.0-4.27","544","","","","","clear_screen","null","null","","","critical","d","t","c","240","164","240","164","164","240","trueblood","0","w","240","164","164","240","240","164","39360","39360","39360","tc","null","null","null","null","null","null","[2,3]","478.92414919749586","500.4778698925382","425.5060512183544"
"","canvas-keyboard-response","200","127331","0.0-6.0-5.27","544","","","","","make choice","235","2","","","critical","d","t","c","240","164","240","164","164","240","trueblood","0","w","240","164","164","240","240","164","39360","39360","39360","tc","null","null","null","null","null","null","[2,3]","","",""
"","canvas-keyboard-response","201","127349","0.0-6.0-6.27","544","","","","","clear_screen","null","null","","","critical","d","t","c","240","164","240","164","164","240","trueblood","0","w","240","164","164","240","240","164","39360","39360","39360","tc","null","null","null","null","null","null","[2,3]","","",""
"","canvas-keyboard-response","202","127550","0.0-6.0-0.28","544","","","","","pre trial waiting period","null","null","","","critical","d","c","t","240","164","164","240","240","164","spektor","0","w","240","164","164","240","240","164","39360","39360","39360","td","null","null","null","null","null","null","[3,1]","514.9478313706803","154.48651030838968","531.8818790303047"
"","canvas-keyboard-response","203","127568","0.0-6.0-1.28","544","","","","","clear_screen","null","null","","","critical","d","c","t","240","164","164","240","240","164","spektor","0","w","240","164","164","240","240","164","39360","39360","39360","td","null","null","null","null","null","null","[3,1]","514.9478313706803","154.48651030838968","531.8818790303047"
"","canvas-keyboard-response","204","128080","0.0-6.0-2.28","544","","","","","rectangles no change","null","null","","","critical","d","c","t","240","164","164","240","240","164","spektor","0","w","240","164","164","240","240","164","39360","39360","39360","td","null","null","null","null","null","null","[3,1]","514.9478313706803","154.48651030838968","531.8818790303047"
"","canvas-keyboard-response","205","129415","0.0-6.0-3.28","544","","","","","rectangles with change","null","null","","","critical","d","c","t","240","164","164","240","240","164","spektor","0","w","240","164","164","240","240","164","39360","39360","39360","td","null","null","null","null","null","null","[3,1]","514.9478313706803","154.48651030838968","531.8818790303047"
"","canvas-keyboard-response","206","129433","0.0-6.0-4.28","544","","","","","clear_screen","null","null","","","critical","d","c","t","240","164","164","240","240","164","spektor","0","w","240","164","164","240","240","164","39360","39360","39360","td","null","null","null","null","null","null","[3,1]","514.9478313706803","154.48651030838968","531.8818790303047"
"","canvas-keyboard-response","207","129683","0.0-6.0-5.28","544","","","","","make choice","242","3","","","critical","d","c","t","240","164","164","240","240","164","spektor","0","w","240","164","164","240","240","164","39360","39360","39360","td","null","null","null","null","null","null","[3,1]","","",""
"","canvas-keyboard-response","208","129701","0.0-6.0-6.28","544","","","","","clear_screen","null","null","","","critical","d","c","t","240","164","164","240","240","164","spektor","0","w","240","164","164","240","240","164","39360","39360","39360","td","null","null","null","null","null","null","[3,1]","","",""
"","canvas-keyboard-response","209","129903","0.0-6.0-0.29","544","","","","","pre trial waiting period","null","null","","","catch","sh","l","sw","219","212","223","171","195","179","spektor","null","null","null","null","null","null","null","null","null","null","null","","180","200","260","200","36000","52000","[1,2]","486.48194236223213","190.2212805608375","494.76245181689137"
"","canvas-keyboard-response","210","129923","0.0-6.0-1.29","544","","","","","clear_screen","null","null","","","catch","sh","l","sw","219","212","223","171","195","179","spektor","null","null","null","null","null","null","null","null","null","null","null","","180","200","260","200","36000","52000","[1,2]","486.48194236223213","190.2212805608375","494.76245181689137"
"","canvas-keyboard-response","211","130433","0.0-6.0-2.29","544","","","","","rectangles no change","null","null","","","catch","sh","l","sw","219","212","223","171","195","179","spektor","null","null","null","null","null","null","null","null","null","null","null","","180","200","260","200","36000","52000","[1,2]","486.48194236223213","190.2212805608375","494.76245181689137"
"","canvas-keyboard-response","212","131768","0.0-6.0-3.29","544","","","","","rectangles with change","null","null","","","catch","sh","l","sw","219","212","223","171","195","179","spektor","null","null","null","null","null","null","null","null","null","null","null","","180","200","260","200","36000","52000","[1,2]","486.48194236223213","190.2212805608375","494.76245181689137"
"","canvas-keyboard-response","213","131785","0.0-6.0-4.29","544","","","","","clear_screen","null","null","","","catch","sh","l","sw","219","212","223","171","195","179","spektor","null","null","null","null","null","null","null","null","null","null","null","","180","200","260","200","36000","52000","[1,2]","486.48194236223213","190.2212805608375","494.76245181689137"
"","canvas-keyboard-response","214","132020","0.0-6.0-5.29","544","","","","","make choice","228","1","","","catch","sh","l","sw","219","212","223","171","195","179","spektor","null","null","null","null","null","null","null","null","null","null","null","","180","200","260","200","36000","52000","[1,2]","","",""
"","canvas-keyboard-response","215","132037","0.0-6.0-6.29","544","","","","","clear_screen","null","null","","","catch","sh","l","sw","219","212","223","171","195","179","spektor","null","null","null","null","null","null","null","null","null","null","null","","180","200","260","200","36000","52000","[1,2]","","",""
"","canvas-keyboard-response","216","132239","0.0-6.0-0.30","544","","","","","pre trial waiting period","null","null","","","critical","c","d","t","164","240","220.0396","154.6796","240","164","trueblood","0.14","w","240","164","164","240","220.0396","154.6796","39360","39360","34035.6388","dc","null","null","null","null","null","null","[2,1]","461.92572177343607","496.6885065500512","485.84321620656726"
"","canvas-keyboard-response","217","132258","0.0-6.0-1.30","544","","","","","clear_screen","null","null","","","critical","c","d","t","164","240","220.0396","154.6796","240","164","trueblood","0.14","w","240","164","164","240","220.0396","154.6796","39360","39360","34035.6388","dc","null","null","null","null","null","null","[2,1]","461.92572177343607","496.6885065500512","485.84321620656726"
"","canvas-keyboard-response","218","132769","0.0-6.0-2.30","544","","","","","rectangles no change","null","null","","","critical","c","d","t","164","240","220.0396","154.6796","240","164","trueblood","0.14","w","240","164","164","240","220.0396","154.6796","39360","39360","34035.6388","dc","null","null","null","null","null","null","[2,1]","461.92572177343607","496.6885065500512","485.84321620656726"
"","canvas-keyboard-response","219","134104","0.0-6.0-3.30","544","","","","","rectangles with change","null","null","","","critical","c","d","t","164","240","220.0396","154.6796","240","164","trueblood","0.14","w","240","164","164","240","220.0396","154.6796","39360","39360","34035.6388","dc","null","null","null","null","null","null","[2,1]","461.92572177343607","496.6885065500512","485.84321620656726"
"","canvas-keyboard-response","220","134122","0.0-6.0-4.30","544","","","","","clear_screen","null","null","","","critical","c","d","t","164","240","220.0396","154.6796","240","164","trueblood","0.14","w","240","164","164","240","220.0396","154.6796","39360","39360","34035.6388","dc","null","null","null","null","null","null","[2,1]","461.92572177343607","496.6885065500512","485.84321620656726"
"","canvas-keyboard-response","221","134379","0.0-6.0-5.30","544","","","","","make choice","250","1","","","critical","c","d","t","164","240","220.0396","154.6796","240","164","trueblood","0.14","w","240","164","164","240","220.0396","154.6796","39360","39360","34035.6388","dc","null","null","null","null","null","null","[2,1]","","",""
"","canvas-keyboard-response","222","134397","0.0-6.0-6.30","544","","","","","clear_screen","null","null","","","critical","c","d","t","164","240","220.0396","154.6796","240","164","trueblood","0.14","w","240","164","164","240","220.0396","154.6796","39360","39360","34035.6388","dc","null","null","null","null","null","null","[2,1]","","",""
"","canvas-keyboard-response","223","134599","0.0-6.0-0.31","544","","","","","pre trial waiting period","null","null","","","catch","sh","l","sw","225","192","220","294","177","225","spektor","null","null","null","null","null","null","null","null","null","null","null","","180","200","260","200","36000","52000","[1,2]","499.2942329398547","46.90144540561759","483.44048618132774"
"","canvas-keyboard-response","224","134617","0.0-6.0-1.31","544","","","","","clear_screen","null","null","","","catch","sh","l","sw","225","192","220","294","177","225","spektor","null","null","null","null","null","null","null","null","null","null","null","","180","200","260","200","36000","52000","[1,2]","499.2942329398547","46.90144540561759","483.44048618132774"
"","canvas-keyboard-response","225","135128","0.0-6.0-2.31","544","","","","","rectangles no change","null","null","","","catch","sh","l","sw","225","192","220","294","177","225","spektor","null","null","null","null","null","null","null","null","null","null","null","","180","200","260","200","36000","52000","[1,2]","499.2942329398547","46.90144540561759","483.44048618132774"
"","canvas-keyboard-response","226","136464","0.0-6.0-3.31","544","","","","","rectangles with change","null","null","","","catch","sh","l","sw","225","192","220","294","177","225","spektor","null","null","null","null","null","null","null","null","null","null","null","","180","200","260","200","36000","52000","[1,2]","499.2942329398547","46.90144540561759","483.44048618132774"
"","canvas-keyboard-response","227","136481","0.0-6.0-4.31","544","","","","","clear_screen","null","null","","","catch","sh","l","sw","225","192","220","294","177","225","spektor","null","null","null","null","null","null","null","null","null","null","null","","180","200","260","200","36000","52000","[1,2]","499.2942329398547","46.90144540561759","483.44048618132774"
"","canvas-keyboard-response","228","136923","0.0-6.0-5.31","544","","","","","make choice","434","2","","","catch","sh","l","sw","225","192","220","294","177","225","spektor","null","null","null","null","null","null","null","null","null","null","null","","180","200","260","200","36000","52000","[1,2]","","",""
"","canvas-keyboard-response","229","136943","0.0-6.0-6.31","544","","","","","clear_screen","null","null","","","catch","sh","l","sw","225","192","220","294","177","225","spektor","null","null","null","null","null","null","null","null","null","null","null","","180","200","260","200","36000","52000","[1,2]","","",""
"","canvas-keyboard-response","230","137144","0.0-6.0-0.32","544","","","","","pre trial waiting period","null","null","","","critical","t","c","d","240","164","164","240","232.8713","160.6713","trueblood","0.05","w","240","164","164","240","232.8713","160.6713","39360","39360","37415.7294","td","null","null","null","null","null","null","[1,3]","512.4273918641745","428.8460364651157","481.54358767527714"
"","canvas-keyboard-response","231","137166","0.0-6.0-1.32","544","","","","","clear_screen","null","null","","","critical","t","c","d","240","164","164","240","232.8713","160.6713","trueblood","0.05","w","240","164","164","240","232.8713","160.6713","39360","39360","37415.7294","td","null","null","null","null","null","null","[1,3]","512.4273918641745","428.8460364651157","481.54358767527714"
"","canvas-keyboard-response","232","137677","0.0-6.0-2.32","544","","","","","rectangles no change","null","null","","","critical","t","c","d","240","164","164","240","232.8713","160.6713","trueblood","0.05","w","240","164","164","240","232.8713","160.6713","39360","39360","37415.7294","td","null","null","null","null","null","null","[1,3]","512.4273918641745","428.8460364651157","481.54358767527714"
"","canvas-keyboard-response","233","139012","0.0-6.0-3.32","544","","","","","rectangles with change","null","null","","","critical","t","c","d","240","164","164","240","232.8713","160.6713","trueblood","0.05","w","240","164","164","240","232.8713","160.6713","39360","39360","37415.7294","td","null","null","null","null","null","null","[1,3]","512.4273918641745","428.8460364651157","481.54358767527714"
"","canvas-keyboard-response","234","139030","0.0-6.0-4.32","544","","","","","clear_screen","null","null","","","critical","t","c","d","240","164","164","240","232.8713","160.6713","trueblood","0.05","w","240","164","164","240","232.8713","160.6713","39360","39360","37415.7294","td","null","null","null","null","null","null","[1,3]","512.4273918641745","428.8460364651157","481.54358767527714"
"","canvas-keyboard-response","235","139467","0.0-6.0-5.32","544","","","","","make choice","429","3","","","critical","t","c","d","240","164","164","240","232.8713","160.6713","trueblood","0.05","w","240","164","164","240","232.8713","160.6713","39360","39360","37415.7294","td","null","null","null","null","null","null","[1,3]","","",""
"","canvas-keyboard-response","236","139484","0.0-6.0-6.32","544","","","","","clear_screen","null","null","","","critical","t","c","d","240","164","164","240","232.8713","160.6713","trueblood","0.05","w","240","164","164","240","232.8713","160.6713","39360","39360","37415.7294","td","null","null","null","null","null","null","[1,3]","","",""
"","canvas-keyboard-response","237","139686","0.0-6.0-0.33","544","","","","","pre trial waiting period","null","null","","","critical","c","d","t","240","164","160.6713","232.8713","164","240","trueblood","0.05","h","164","240","240","164","160.6713","232.8713","39360","39360","37415.7294","dc","null","null","null","null","null","null","[2,1]","511.4499616749122","454.9028514549144","463.9807047439307"
"","canvas-keyboard-response","238","139705","0.0-6.0-1.33","544","","","","","clear_screen","null","null","","","critical","c","d","t","240","164","160.6713","232.8713","164","240","trueblood","0.05","h","164","240","240","164","160.6713","232.8713","39360","39360","37415.7294","dc","null","null","null","null","null","null","[2,1]","511.4499616749122","454.9028514549144","463.9807047439307"
"","canvas-keyboard-response","239","140217","0.0-6.0-2.33","544","","","","","rectangles no change","null","null","","","critical","c","d","t","240","164","160.6713","232.8713","164","240","trueblood","0.05","h","164","240","240","164","160.6713","232.8713","39360","39360","37415.7294","dc","null","null","null","null","null","null","[2,1]","511.4499616749122","454.9028514549144","463.9807047439307"
"","canvas-keyboard-response","240","141552","0.0-6.0-3.33","544","","","","","rectangles with change","null","null","","","critical","c","d","t","240","164","160.6713","232.8713","164","240","trueblood","0.05","h","164","240","240","164","160.6713","232.8713","39360","39360","37415.7294","dc","null","null","null","null","null","null","[2,1]","511.4499616749122","454.9028514549144","463.9807047439307"
"","canvas-keyboard-response","241","141569","0.0-6.0-4.33","544","","","","","clear_screen","null","null","","","critical","c","d","t","240","164","160.6713","232.8713","164","240","trueblood","0.05","h","164","240","240","164","160.6713","232.8713","39360","39360","37415.7294","dc","null","null","null","null","null","null","[2,1]","511.4499616749122","454.9028514549144","463.9807047439307"
"","canvas-keyboard-response","242","141826","0.0-6.0-5.33","544","","","","","make choice","246","1","","","critical","c","d","t","240","164","160.6713","232.8713","164","240","trueblood","0.05","h","164","240","240","164","160.6713","232.8713","39360","39360","37415.7294","dc","null","null","null","null","null","null","[2,1]","","",""
"","canvas-keyboard-response","243","141844","0.0-6.0-6.33","544","","","","","clear_screen","null","null","","","critical","c","d","t","240","164","160.6713","232.8713","164","240","trueblood","0.05","h","164","240","240","164","160.6713","232.8713","39360","39360","37415.7294","dc","null","null","null","null","null","null","[2,1]","","",""
"","canvas-keyboard-response","244","142046","0.0-6.0-0.34","544","","","","","pre trial waiting period","null","null","","","critical","c","t","d","240","164","164","240","154.6796","220.0396","trueblood","0.14","h","164","240","240","164","154.6796","220.0396","39360","39360","34035.6388","td","null","null","null","null","null","null","[2,3]","504.3373408964002","459.4451790717916","446.30562925891354"
"","canvas-keyboard-response","245","142065","0.0-6.0-1.34","544","","","","","clear_screen","null","null","","","critical","c","t","d","240","164","164","240","154.6796","220.0396","trueblood","0.14","h","164","240","240","164","154.6796","220.0396","39360","39360","34035.6388","td","null","null","null","null","null","null","[2,3]","504.3373408964002","459.4451790717916","446.30562925891354"
"","canvas-keyboard-response","246","142577","0.0-6.0-2.34","544","","","","","rectangles no change","null","null","","","critical","c","t","d","240","164","164","240","154.6796","220.0396","trueblood","0.14","h","164","240","240","164","154.6796","220.0396","39360","39360","34035.6388","td","null","null","null","null","null","null","[2,3]","504.3373408964002","459.4451790717916","446.30562925891354"
"","canvas-keyboard-response","247","143912","0.0-6.0-3.34","544","","","","","rectangles with change","null","null","","","critical","c","t","d","240","164","164","240","154.6796","220.0396","trueblood","0.14","h","164","240","240","164","154.6796","220.0396","39360","39360","34035.6388","td","null","null","null","null","null","null","[2,3]","504.3373408964002","459.4451790717916","446.30562925891354"
"","canvas-keyboard-response","248","143930","0.0-6.0-4.34","544","","","","","clear_screen","null","null","","","critical","c","t","d","240","164","164","240","154.6796","220.0396","trueblood","0.14","h","164","240","240","164","154.6796","220.0396","39360","39360","34035.6388","td","null","null","null","null","null","null","[2,3]","504.3373408964002","459.4451790717916","446.30562925891354"
"","canvas-keyboard-response","249","144156","0.0-6.0-5.34","544","","","","","make choice","218","2","","","critical","c","t","d","240","164","164","240","154.6796","220.0396","trueblood","0.14","h","164","240","240","164","154.6796","220.0396","39360","39360","34035.6388","td","null","null","null","null","null","null","[2,3]","","",""
"","canvas-keyboard-response","250","144173","0.0-6.0-6.34","544","","","","","clear_screen","null","null","","","critical","c","t","d","240","164","164","240","154.6796","220.0396","trueblood","0.14","h","164","240","240","164","154.6796","220.0396","39360","39360","34035.6388","td","null","null","null","null","null","null","[2,3]","","",""
"","canvas-keyboard-response","251","144374","0.0-6.0-0.35","544","","","","","pre trial waiting period","null","null","","","critical","d","t","c","240","164","240","164","164","240","spektor","0","w","240","164","164","240","240","164","39360","39360","39360","dc","null","null","null","null","null","null","[1,3]","494.25128489146607","190.90593455677353","501.4952975598049"
"","canvas-keyboard-response","252","144393","0.0-6.0-1.35","544","","","","","clear_screen","null","null","","","critical","d","t","c","240","164","240","164","164","240","spektor","0","w","240","164","164","240","240","164","39360","39360","39360","dc","null","null","null","null","null","null","[1,3]","494.25128489146607","190.90593455677353","501.4952975598049"
"","canvas-keyboard-response","253","144902","0.0-6.0-2.35","544","","","","","rectangles no change","null","null","","","critical","d","t","c","240","164","240","164","164","240","spektor","0","w","240","164","164","240","240","164","39360","39360","39360","dc","null","null","null","null","null","null","[1,3]","494.25128489146607","190.90593455677353","501.4952975598049"
"","canvas-keyboard-response","254","146237","0.0-6.0-3.35","544","","","","","rectangles with change","null","null","","","critical","d","t","c","240","164","240","164","164","240","spektor","0","w","240","164","164","240","240","164","39360","39360","39360","dc","null","null","null","null","null","null","[1,3]","494.25128489146607","190.90593455677353","501.4952975598049"
"","canvas-keyboard-response","255","146255","0.0-6.0-4.35","544","","","","","clear_screen","null","null","","","critical","d","t","c","240","164","240","164","164","240","spektor","0","w","240","164","164","240","240","164","39360","39360","39360","dc","null","null","null","null","null","null","[1,3]","494.25128489146607","190.90593455677353","501.4952975598049"
"","canvas-keyboard-response","256","146764","0.0-6.0-5.35","544","","","","","make choice","503","3","","","critical","d","t","c","240","164","240","164","164","240","spektor","0","w","240","164","164","240","240","164","39360","39360","39360","dc","null","null","null","null","null","null","[1,3]","","",""
"","canvas-keyboard-response","257","146782","0.0-6.0-6.35","544","","","","","clear_screen","null","null","","","critical","d","t","c","240","164","240","164","164","240","spektor","0","w","240","164","164","240","240","164","39360","39360","39360","dc","null","null","null","null","null","null","[1,3]","","",""
"","canvas-keyboard-response","258","146983","0.0-6.0-0.36","544","","","","","pre trial waiting period","null","null","","","catch","sh","sw","l","168","157","213","237","271","231","trueblood","null","null","null","null","null","null","null","null","null","null","null","","180","200","260","200","36000","52000","[1,3]","509.9702557548318","452.44943688250504","472.59479228931656"
"","canvas-keyboard-response","259","147002","0.0-6.0-1.36","544","","","","","clear_screen","null","null","","","catch","sh","sw","l","168","157","213","237","271","231","trueblood","null","null","null","null","null","null","null","null","null","null","null","","180","200","260","200","36000","52000","[1,3]","509.9702557548318","452.44943688250504","472.59479228931656"
"","canvas-keyboard-response","260","147513","0.0-6.0-2.36","544","","","","","rectangles no change","null","null","","","catch","sh","sw","l","168","157","213","237","271","231","trueblood","null","null","null","null","null","null","null","null","null","null","null","","180","200","260","200","36000","52000","[1,3]","509.9702557548318","452.44943688250504","472.59479228931656"
"","canvas-keyboard-response","261","148848","0.0-6.0-3.36","544","","","","","rectangles with change","null","null","","","catch","sh","sw","l","168","157","213","237","271","231","trueblood","null","null","null","null","null","null","null","null","null","null","null","","180","200","260","200","36000","52000","[1,3]","509.9702557548318","452.44943688250504","472.59479228931656"
"","canvas-keyboard-response","262","148865","0.0-6.0-4.36","544","","","","","clear_screen","null","null","","","catch","sh","sw","l","168","157","213","237","271","231","trueblood","null","null","null","null","null","null","null","null","null","null","null","","180","200","260","200","36000","52000","[1,3]","509.9702557548318","452.44943688250504","472.59479228931656"
"","canvas-keyboard-response","263","149258","0.0-6.0-5.36","544","","","","","make choice","386","3","","","catch","sh","sw","l","168","157","213","237","271","231","trueblood","null","null","null","null","null","null","null","null","null","null","null","","180","200","260","200","36000","52000","[1,3]","","",""
"","canvas-keyboard-response","264","149276","0.0-6.0-6.36","544","","","","","clear_screen","null","null","","","catch","sh","sw","l","168","157","213","237","271","231","trueblood","null","null","null","null","null","null","null","null","null","null","null","","180","200","260","200","36000","52000","[1,3]","","",""
"","canvas-keyboard-response","265","149477","0.0-6.0-0.37","544","","","","","pre trial waiting period","null","null","","","catch","l","sh","sw","191","270","201","176","207","238","trueblood","null","null","null","null","null","null","null","null","null","null","null","","180","200","260","200","36000","52000","[1,2]","400.77554531339655","461.5891314527679","436.4780732394773"
"","canvas-keyboard-response","266","149496","0.0-6.0-1.37","544","","","","","clear_screen","null","null","","","catch","l","sh","sw","191","270","201","176","207","238","trueblood","null","null","null","null","null","null","null","null","null","null","null","","180","200","260","200","36000","52000","[1,2]","400.77554531339655","461.5891314527679","436.4780732394773"
"","canvas-keyboard-response","267","150007","0.0-6.0-2.37","544","","","","","rectangles no change","null","null","","","catch","l","sh","sw","191","270","201","176","207","238","trueblood","null","null","null","null","null","null","null","null","null","null","null","","180","200","260","200","36000","52000","[1,2]","400.77554531339655","461.5891314527679","436.4780732394773"
"","canvas-keyboard-response","268","151341","0.0-6.0-3.37","544","","","","","rectangles with change","null","null","","","catch","l","sh","sw","191","270","201","176","207","238","trueblood","null","null","null","null","null","null","null","null","null","null","null","","180","200","260","200","36000","52000","[1,2]","400.77554531339655","461.5891314527679","436.4780732394773"
"","canvas-keyboard-response","269","151360","0.0-6.0-4.37","544","","","","","clear_screen","null","null","","","catch","l","sh","sw","191","270","201","176","207","238","trueblood","null","null","null","null","null","null","null","null","null","null","null","","180","200","260","200","36000","52000","[1,2]","400.77554531339655","461.5891314527679","436.4780732394773"
"","canvas-keyboard-response","270","151723","0.0-6.0-5.37","544","","","","","make choice","356","1","","","catch","l","sh","sw","191","270","201","176","207","238","trueblood","null","null","null","null","null","null","null","null","null","null","null","","180","200","260","200","36000","52000","[1,2]","","",""
