"success","trial_type","trial_index","time_elapsed","internal_node_id","sub_n","timeout","failed_images","failed_audio","failed_video","screen_id","rt","response","stimulus","view_history","trial","r1","r2","r3","w1","h1","w2","h2","w3","h3","display","tdd","tdo","tw","th","cw","ch","dw","dh","ta","ca","da","probe","csls","csss","clls","clss","sa","la","probe_rects","r1yloc","r2yloc","r3yloc"
"true","fullscreen","0","2355","0.0-0.0","564","","","","","","","","","","","","","","","","","","","","","","","","","","","","","","","","","","","","","","","","","",""
"true","preload","1","2371","0.0-1.0","564","false","[]","[]","[]","img preload","","","","","","","","","","","","","","","","","","","","","","","","","","","","","","","","","","","","",""
"","survey-html-form","2","16386","0.0-2.0","564","","","","","enter-sub-number","14005","{""response"":""564""}","","","","","","","","","","","","","","","","","","","","","","","","","","","","","","","","","","",""
"","image-button-response","3","28033","0.0-3.0","564","","","","","","11582","0","consent.png","","","","","","","","","","","","","","","","","","","","","","","","","","","","","","","","","",""
"","html-button-response","4","42216","0.0-4.0","564","","","","","intro mssg","14178","0","<div style= ""font-size:25px;"" <p> <strong> Welcome! </strong><br> <p style=""color:#8B0000; font-size:25px;""><strong> Please do NOT exit full screen until you are done with the experiment. </strong> </p><p style=""font-size:25px;color:#8B0000;""> <strong> Your data will be lost <br> if you try to go back or refresh the page after the experiment starts. Feel free to click ""previous"" during the instructions, however.</strong> </p><br><p> <strong> Thanks in advance for your contribution to our research! </strong></p>","","","","","","","","","","","","","","","","","","","","","","","","","","","","","","","","","",""
"","instructions","5","95937","0.0-5.0","564","","","","","instructions","53717","","","[{""page_index"":0,""viewing_time"":9355},{""page_index"":1,""viewing_time"":8281},{""page_index"":2,""viewing_time"":6226},{""page_index"":3,""viewing_time"":14285},{""page_index"":4,""viewing_time"":6048},{""page_index"":5,""viewing_time"":3328},{""page_index"":6,""viewing_time"":4185},{""page_index"":7,""viewing_time"":2008}]","","","","","","","","","","","","","","","","","","","","","","","","","","","","","","","","",""
"","canvas-keyboard-response","6","96145","0.0-6.0-0.0","564","","","","","pre trial waiting period","null","null","","","critical","d","c","t","237.1485","162.6685","164","240","240","164","spektor","0.02","w","240","164","164","240","237.1485","162.6685","39360","39360","38576.5967","dc","null","null","null","null","null","null","[1,2]","520.9755633104738","128.9630976445241","532.2697750666113"
"","canvas-keyboard-response","7","96170","0.0-6.0-1.0","564","","","","","clear_screen","null","null","","","critical","d","c","t","237.1485","162.6685","164","240","240","164","spektor","0.02","w","240","164","164","240","237.1485","162.6685","39360","39360","38576.5967","dc","null","null","null","null","null","null","[1,2]","520.9755633104738","128.9630976445241","532.2697750666113"
"","canvas-keyboard-response","8","96682","0.0-6.0-2.0","564","","","","","rectangles no change","null","null","","","critical","d","c","t","237.1485","162.6685","164","240","240","164","spektor","0.02","w","240","164","164","240","237.1485","162.6685","39360","39360","38576.5967","dc","null","null","null","null","null","null","[1,2]","520.9755633104738","128.9630976445241","532.2697750666113"
"","canvas-keyboard-response","9","98020","0.0-6.0-3.0","564","","","","","rectangles with change","null","null","","","critical","d","c","t","237.1485","162.6685","164","240","240","164","spektor","0.02","w","240","164","164","240","237.1485","162.6685","39360","39360","38576.5967","dc","null","null","null","null","null","null","[1,2]","520.9755633104738","128.9630976445241","532.2697750666113"
"","canvas-keyboard-response","10","98043","0.0-6.0-4.0","564","","","","","clear_screen","null","null","","","critical","d","c","t","237.1485","162.6685","164","240","240","164","spektor","0.02","w","240","164","164","240","237.1485","162.6685","39360","39360","38576.5967","dc","null","null","null","null","null","null","[1,2]","520.9755633104738","128.9630976445241","532.2697750666113"
"","canvas-keyboard-response","11","100062","0.0-6.0-5.0","564","","","","","make choice","2014","1","","","critical","d","c","t","237.1485","162.6685","164","240","240","164","spektor","0.02","w","240","164","164","240","237.1485","162.6685","39360","39360","38576.5967","dc","null","null","null","null","null","null","[1,2]","","",""
"","canvas-keyboard-response","12","100079","0.0-6.0-6.0","564","","","","","clear_screen","null","null","","","critical","d","c","t","237.1485","162.6685","164","240","240","164","spektor","0.02","w","240","164","164","240","237.1485","162.6685","39360","39360","38576.5967","dc","null","null","null","null","null","null","[1,2]","","",""
"","canvas-keyboard-response","13","100281","0.0-6.0-0.1","564","","","","","pre trial waiting period","null","null","","","catch","l","sw","sh","290","177","154","190","224","193","spektor","null","null","null","null","null","null","null","null","null","null","null","","180","200","260","200","36000","52000","[1,3]","507.70988625022073","195.35782047092812","508.7275168431184"
"","canvas-keyboard-response","14","100300","0.0-6.0-1.1","564","","","","","clear_screen","null","null","","","catch","l","sw","sh","290","177","154","190","224","193","spektor","null","null","null","null","null","null","null","null","null","null","null","","180","200","260","200","36000","52000","[1,3]","507.70988625022073","195.35782047092812","508.7275168431184"
"","canvas-keyboard-response","15","100808","0.0-6.0-2.1","564","","","","","rectangles no change","null","null","","","catch","l","sw","sh","290","177","154","190","224","193","spektor","null","null","null","null","null","null","null","null","null","null","null","","180","200","260","200","36000","52000","[1,3]","507.70988625022073","195.35782047092812","508.7275168431184"
"","canvas-keyboard-response","16","102143","0.0-6.0-3.1","564","","","","","rectangles with change","null","null","","","catch","l","sw","sh","290","177","154","190","224","193","spektor","null","null","null","null","null","null","null","null","null","null","null","","180","200","260","200","36000","52000","[1,3]","507.70988625022073","195.35782047092812","508.7275168431184"
"","canvas-keyboard-response","17","102167","0.0-6.0-4.1","564","","","","","clear_screen","null","null","","","catch","l","sw","sh","290","177","154","190","224","193","spektor","null","null","null","null","null","null","null","null","null","null","null","","180","200","260","200","36000","52000","[1,3]","507.70988625022073","195.35782047092812","508.7275168431184"
"","canvas-keyboard-response","18","105862","0.0-6.0-5.1","564","","","","","make choice","3682","1","","","catch","l","sw","sh","290","177","154","190","224","193","spektor","null","null","null","null","null","null","null","null","null","null","null","","180","200","260","200","36000","52000","[1,3]","","",""
"","canvas-keyboard-response","19","105879","0.0-6.0-6.1","564","","","","","clear_screen","null","null","","","catch","l","sw","sh","290","177","154","190","224","193","spektor","null","null","null","null","null","null","null","null","null","null","null","","180","200","260","200","36000","52000","[1,3]","","",""
"","canvas-keyboard-response","20","106080","0.0-6.0-0.2","564","","","","","pre trial waiting period","null","null","","","catch","sw","sh","l","180","200","178","210","195","251","trueblood","null","null","null","null","null","null","null","null","null","null","null","","180","200","260","200","36000","52000","[1,3]","485.051043988405","474.33576415606217","461.53261214814813"
"","canvas-keyboard-response","21","106102","0.0-6.0-1.2","564","","","","","clear_screen","null","null","","","catch","sw","sh","l","180","200","178","210","195","251","trueblood","null","null","null","null","null","null","null","null","null","null","null","","180","200","260","200","36000","52000","[1,3]","485.051043988405","474.33576415606217","461.53261214814813"
"","canvas-keyboard-response","22","106608","0.0-6.0-2.2","564","","","","","rectangles no change","null","null","","","catch","sw","sh","l","180","200","178","210","195","251","trueblood","null","null","null","null","null","null","null","null","null","null","null","","180","200","260","200","36000","52000","[1,3]","485.051043988405","474.33576415606217","461.53261214814813"
"","canvas-keyboard-response","23","107942","0.0-6.0-3.2","564","","","","","rectangles with change","null","null","","","catch","sw","sh","l","180","200","178","210","195","251","trueblood","null","null","null","null","null","null","null","null","null","null","null","","180","200","260","200","36000","52000","[1,3]","485.051043988405","474.33576415606217","461.53261214814813"
"","canvas-keyboard-response","24","107962","0.0-6.0-4.2","564","","","","","clear_screen","null","null","","","catch","sw","sh","l","180","200","178","210","195","251","trueblood","null","null","null","null","null","null","null","null","null","null","null","","180","200","260","200","36000","52000","[1,3]","485.051043988405","474.33576415606217","461.53261214814813"
"","canvas-keyboard-response","25","109828","0.0-6.0-5.2","564","","","","","make choice","1858","3","","","catch","sw","sh","l","180","200","178","210","195","251","trueblood","null","null","null","null","null","null","null","null","null","null","null","","180","200","260","200","36000","52000","[1,3]","","",""
"","canvas-keyboard-response","26","109849","0.0-6.0-6.2","564","","","","","clear_screen","null","null","","","catch","sw","sh","l","180","200","178","210","195","251","trueblood","null","null","null","null","null","null","null","null","null","null","null","","180","200","260","200","36000","52000","[1,3]","","",""
"","canvas-keyboard-response","27","110050","0.0-6.0-0.3","564","","","","","pre trial waiting period","null","null","","","catch","sw","sh","l","180","200","234","192","213","299","spektor","null","null","null","null","null","null","null","null","null","null","null","","180","200","260","200","36000","52000","[1,3]","497.77488627857883","115.34436783380528","473.3922894449366"
"","canvas-keyboard-response","28","110071","0.0-6.0-1.3","564","","","","","clear_screen","null","null","","","catch","sw","sh","l","180","200","234","192","213","299","spektor","null","null","null","null","null","null","null","null","null","null","null","","180","200","260","200","36000","52000","[1,3]","497.77488627857883","115.34436783380528","473.3922894449366"
"","canvas-keyboard-response","29","110578","0.0-6.0-2.3","564","","","","","rectangles no change","null","null","","","catch","sw","sh","l","180","200","234","192","213","299","spektor","null","null","null","null","null","null","null","null","null","null","null","","180","200","260","200","36000","52000","[1,3]","497.77488627857883","115.34436783380528","473.3922894449366"
"","canvas-keyboard-response","30","111915","0.0-6.0-3.3","564","","","","","rectangles with change","null","null","","","catch","sw","sh","l","180","200","234","192","213","299","spektor","null","null","null","null","null","null","null","null","null","null","null","","180","200","260","200","36000","52000","[1,3]","497.77488627857883","115.34436783380528","473.3922894449366"
"","canvas-keyboard-response","31","111937","0.0-6.0-4.3","564","","","","","clear_screen","null","null","","","catch","sw","sh","l","180","200","234","192","213","299","spektor","null","null","null","null","null","null","null","null","null","null","null","","180","200","260","200","36000","52000","[1,3]","497.77488627857883","115.34436783380528","473.3922894449366"
"","canvas-keyboard-response","32","113917","0.0-6.0-5.3","564","","","","","make choice","1974","3","","","catch","sw","sh","l","180","200","234","192","213","299","spektor","null","null","null","null","null","null","null","null","null","null","null","","180","200","260","200","36000","52000","[1,3]","","",""
"","canvas-keyboard-response","33","113935","0.0-6.0-6.3","564","","","","","clear_screen","null","null","","","catch","sw","sh","l","180","200","234","192","213","299","spektor","null","null","null","null","null","null","null","null","null","null","null","","180","200","260","200","36000","52000","[1,3]","","",""
"","canvas-keyboard-response","34","114137","0.0-6.0-0.4","564","","","","","pre trial waiting period","null","null","","","critical","t","c","d","240","164","164","240","232.8713","160.6713","spektor","0.05","w","240","164","164","240","232.8713","160.6713","39360","39360","37415.7294","tc","null","null","null","null","null","null","[1,2]","530.516271345961","141.143810439734","534.7239435913863"
"","canvas-keyboard-response","35","114154","0.0-6.0-1.4","564","","","","","clear_screen","null","null","","","critical","t","c","d","240","164","164","240","232.8713","160.6713","spektor","0.05","w","240","164","164","240","232.8713","160.6713","39360","39360","37415.7294","tc","null","null","null","null","null","null","[1,2]","530.516271345961","141.143810439734","534.7239435913863"
"","canvas-keyboard-response","36","114663","0.0-6.0-2.4","564","","","","","rectangles no change","null","null","","","critical","t","c","d","240","164","164","240","232.8713","160.6713","spektor","0.05","w","240","164","164","240","232.8713","160.6713","39360","39360","37415.7294","tc","null","null","null","null","null","null","[1,2]","530.516271345961","141.143810439734","534.7239435913863"
"","canvas-keyboard-response","37","116002","0.0-6.0-3.4","564","","","","","rectangles with change","null","null","","","critical","t","c","d","240","164","164","240","232.8713","160.6713","spektor","0.05","w","240","164","164","240","232.8713","160.6713","39360","39360","37415.7294","tc","null","null","null","null","null","null","[1,2]","530.516271345961","141.143810439734","534.7239435913863"
"","canvas-keyboard-response","38","116019","0.0-6.0-4.4","564","","","","","clear_screen","null","null","","","critical","t","c","d","240","164","164","240","232.8713","160.6713","spektor","0.05","w","240","164","164","240","232.8713","160.6713","39360","39360","37415.7294","tc","null","null","null","null","null","null","[1,2]","530.516271345961","141.143810439734","534.7239435913863"
"","canvas-keyboard-response","39","119451","0.0-6.0-5.4","564","","","","","make choice","3426","1","","","critical","t","c","d","240","164","164","240","232.8713","160.6713","spektor","0.05","w","240","164","164","240","232.8713","160.6713","39360","39360","37415.7294","tc","null","null","null","null","null","null","[1,2]","","",""
"","canvas-keyboard-response","40","119467","0.0-6.0-6.4","564","","","","","clear_screen","null","null","","","critical","t","c","d","240","164","164","240","232.8713","160.6713","spektor","0.05","w","240","164","164","240","232.8713","160.6713","39360","39360","37415.7294","tc","null","null","null","null","null","null","[1,2]","","",""
"","canvas-keyboard-response","41","119668","0.0-6.0-0.5","564","","","","","pre trial waiting period","null","null","","","critical","t","d","c","240","164","232.8713","160.6713","164","240","trueblood","0.05","w","240","164","164","240","232.8713","160.6713","39360","39360","37415.7294","dc","null","null","null","null","null","null","[2,3]","489.24160609988377","500.16947778232594","467.0273556168217"
"","canvas-keyboard-response","42","119689","0.0-6.0-1.5","564","","","","","clear_screen","null","null","","","critical","t","d","c","240","164","232.8713","160.6713","164","240","trueblood","0.05","w","240","164","164","240","232.8713","160.6713","39360","39360","37415.7294","dc","null","null","null","null","null","null","[2,3]","489.24160609988377","500.16947778232594","467.0273556168217"
"","canvas-keyboard-response","43","120200","0.0-6.0-2.5","564","","","","","rectangles no change","null","null","","","critical","t","d","c","240","164","232.8713","160.6713","164","240","trueblood","0.05","w","240","164","164","240","232.8713","160.6713","39360","39360","37415.7294","dc","null","null","null","null","null","null","[2,3]","489.24160609988377","500.16947778232594","467.0273556168217"
"","canvas-keyboard-response","44","121535","0.0-6.0-3.5","564","","","","","rectangles with change","null","null","","","critical","t","d","c","240","164","232.8713","160.6713","164","240","trueblood","0.05","w","240","164","164","240","232.8713","160.6713","39360","39360","37415.7294","dc","null","null","null","null","null","null","[2,3]","489.24160609988377","500.16947778232594","467.0273556168217"
"","canvas-keyboard-response","45","121552","0.0-6.0-4.5","564","","","","","clear_screen","null","null","","","critical","t","d","c","240","164","232.8713","160.6713","164","240","trueblood","0.05","w","240","164","164","240","232.8713","160.6713","39360","39360","37415.7294","dc","null","null","null","null","null","null","[2,3]","489.24160609988377","500.16947778232594","467.0273556168217"
"","canvas-keyboard-response","46","123646","0.0-6.0-5.5","564","","","","","make choice","2089","3","","","critical","t","d","c","240","164","232.8713","160.6713","164","240","trueblood","0.05","w","240","164","164","240","232.8713","160.6713","39360","39360","37415.7294","dc","null","null","null","null","null","null","[2,3]","","",""
"","canvas-keyboard-response","47","123664","0.0-6.0-6.5","564","","","","","clear_screen","null","null","","","critical","t","d","c","240","164","232.8713","160.6713","164","240","trueblood","0.05","w","240","164","164","240","232.8713","160.6713","39360","39360","37415.7294","dc","null","null","null","null","null","null","[2,3]","","",""
"","canvas-keyboard-response","48","123865","0.0-6.0-0.6","564","","","","","pre trial waiting period","null","null","","","catch","l","sh","sw","210","221","199","166","159","235","trueblood","null","null","null","null","null","null","null","null","null","null","null","","180","200","260","200","36000","52000","[1,2]","433.22794011701745","510.87818670074796","470.0282688345357"
"","canvas-keyboard-response","49","123884","0.0-6.0-1.6","564","","","","","clear_screen","null","null","","","catch","l","sh","sw","210","221","199","166","159","235","trueblood","null","null","null","null","null","null","null","null","null","null","null","","180","200","260","200","36000","52000","[1,2]","433.22794011701745","510.87818670074796","470.0282688345357"
"","canvas-keyboard-response","50","124390","0.0-6.0-2.6","564","","","","","rectangles no change","null","null","","","catch","l","sh","sw","210","221","199","166","159","235","trueblood","null","null","null","null","null","null","null","null","null","null","null","","180","200","260","200","36000","52000","[1,2]","433.22794011701745","510.87818670074796","470.0282688345357"
"","canvas-keyboard-response","51","125729","0.0-6.0-3.6","564","","","","","rectangles with change","null","null","","","catch","l","sh","sw","210","221","199","166","159","235","trueblood","null","null","null","null","null","null","null","null","null","null","null","","180","200","260","200","36000","52000","[1,2]","433.22794011701745","510.87818670074796","470.0282688345357"
"","canvas-keyboard-response","52","125748","0.0-6.0-4.6","564","","","","","clear_screen","null","null","","","catch","l","sh","sw","210","221","199","166","159","235","trueblood","null","null","null","null","null","null","null","null","null","null","null","","180","200","260","200","36000","52000","[1,2]","433.22794011701745","510.87818670074796","470.0282688345357"
"","canvas-keyboard-response","53","127078","0.0-6.0-5.6","564","","","","","make choice","1325","1","","","catch","l","sh","sw","210","221","199","166","159","235","trueblood","null","null","null","null","null","null","null","null","null","null","null","","180","200","260","200","36000","52000","[1,2]","","",""
"","canvas-keyboard-response","54","127095","0.0-6.0-6.6","564","","","","","clear_screen","null","null","","","catch","l","sh","sw","210","221","199","166","159","235","trueblood","null","null","null","null","null","null","null","null","null","null","null","","180","200","260","200","36000","52000","[1,2]","","",""
"","canvas-keyboard-response","55","127296","0.0-6.0-0.7","564","","","","","pre trial waiting period","null","null","","","critical","d","t","c","220.0396","154.6796","240","164","164","240","trueblood","0.14","w","240","164","164","240","220.0396","154.6796","39360","39360","34035.6388","tc","null","null","null","null","null","null","[2,3]","474.8975984699184","486.5662167036727","425.61324612022725"
"","canvas-keyboard-response","56","127319","0.0-6.0-1.7","564","","","","","clear_screen","null","null","","","critical","d","t","c","220.0396","154.6796","240","164","164","240","trueblood","0.14","w","240","164","164","240","220.0396","154.6796","39360","39360","34035.6388","tc","null","null","null","null","null","null","[2,3]","474.8975984699184","486.5662167036727","425.61324612022725"
"","canvas-keyboard-response","57","127825","0.0-6.0-2.7","564","","","","","rectangles no change","null","null","","","critical","d","t","c","220.0396","154.6796","240","164","164","240","trueblood","0.14","w","240","164","164","240","220.0396","154.6796","39360","39360","34035.6388","tc","null","null","null","null","null","null","[2,3]","474.8975984699184","486.5662167036727","425.61324612022725"
"","canvas-keyboard-response","58","129160","0.0-6.0-3.7","564","","","","","rectangles with change","null","null","","","critical","d","t","c","220.0396","154.6796","240","164","164","240","trueblood","0.14","w","240","164","164","240","220.0396","154.6796","39360","39360","34035.6388","tc","null","null","null","null","null","null","[2,3]","474.8975984699184","486.5662167036727","425.61324612022725"
"","canvas-keyboard-response","59","129182","0.0-6.0-4.7","564","","","","","clear_screen","null","null","","","critical","d","t","c","220.0396","154.6796","240","164","164","240","trueblood","0.14","w","240","164","164","240","220.0396","154.6796","39360","39360","34035.6388","tc","null","null","null","null","null","null","[2,3]","474.8975984699184","486.5662167036727","425.61324612022725"
"","canvas-keyboard-response","60","133430","0.0-6.0-5.7","564","","","","","make choice","4243","2","","","critical","d","t","c","220.0396","154.6796","240","164","164","240","trueblood","0.14","w","240","164","164","240","220.0396","154.6796","39360","39360","34035.6388","tc","null","null","null","null","null","null","[2,3]","","",""
"","canvas-keyboard-response","61","133450","0.0-6.0-6.7","564","","","","","clear_screen","null","null","","","critical","d","t","c","220.0396","154.6796","240","164","164","240","trueblood","0.14","w","240","164","164","240","220.0396","154.6796","39360","39360","34035.6388","tc","null","null","null","null","null","null","[2,3]","","",""
"","canvas-keyboard-response","62","133651","0.0-6.0-0.8","564","","","","","pre trial waiting period","null","null","","","critical","t","c","d","240","164","164","240","237.1485","162.6685","spektor","0.02","w","240","164","164","240","237.1485","162.6685","39360","39360","38576.5967","tc","null","null","null","null","null","null","[1,2]","527.9847224513522","135.71904250453696","542.4361062108716"
"","canvas-keyboard-response","63","133669","0.0-6.0-1.8","564","","","","","clear_screen","null","null","","","critical","t","c","d","240","164","164","240","237.1485","162.6685","spektor","0.02","w","240","164","164","240","237.1485","162.6685","39360","39360","38576.5967","tc","null","null","null","null","null","null","[1,2]","527.9847224513522","135.71904250453696","542.4361062108716"
"","canvas-keyboard-response","64","134175","0.0-6.0-2.8","564","","","","","rectangles no change","null","null","","","critical","t","c","d","240","164","164","240","237.1485","162.6685","spektor","0.02","w","240","164","164","240","237.1485","162.6685","39360","39360","38576.5967","tc","null","null","null","null","null","null","[1,2]","527.9847224513522","135.71904250453696","542.4361062108716"
"","canvas-keyboard-response","65","135515","0.0-6.0-3.8","564","","","","","rectangles with change","null","null","","","critical","t","c","d","240","164","164","240","237.1485","162.6685","spektor","0.02","w","240","164","164","240","237.1485","162.6685","39360","39360","38576.5967","tc","null","null","null","null","null","null","[1,2]","527.9847224513522","135.71904250453696","542.4361062108716"
"","canvas-keyboard-response","66","135529","0.0-6.0-4.8","564","","","","","clear_screen","null","null","","","critical","t","c","d","240","164","164","240","237.1485","162.6685","spektor","0.02","w","240","164","164","240","237.1485","162.6685","39360","39360","38576.5967","tc","null","null","null","null","null","null","[1,2]","527.9847224513522","135.71904250453696","542.4361062108716"
"","canvas-keyboard-response","67","136941","0.0-6.0-5.8","564","","","","","make choice","1401","1","","","critical","t","c","d","240","164","164","240","237.1485","162.6685","spektor","0.02","w","240","164","164","240","237.1485","162.6685","39360","39360","38576.5967","tc","null","null","null","null","null","null","[1,2]","","",""
"","canvas-keyboard-response","68","136961","0.0-6.0-6.8","564","","","","","clear_screen","null","null","","","critical","t","c","d","240","164","164","240","237.1485","162.6685","spektor","0.02","w","240","164","164","240","237.1485","162.6685","39360","39360","38576.5967","tc","null","null","null","null","null","null","[1,2]","","",""
"","canvas-keyboard-response","69","137162","0.0-6.0-0.9","564","","","","","pre trial waiting period","null","null","","","critical","c","t","d","164","240","240","164","232.8713","160.6713","trueblood","0.05","w","240","164","164","240","232.8713","160.6713","39360","39360","37415.7294","tc","null","null","null","null","null","null","[2,1]","467.0677937362448","486.0802901409756","507.584849152612"
"","canvas-keyboard-response","70","137181","0.0-6.0-1.9","564","","","","","clear_screen","null","null","","","critical","c","t","d","164","240","240","164","232.8713","160.6713","trueblood","0.05","w","240","164","164","240","232.8713","160.6713","39360","39360","37415.7294","tc","null","null","null","null","null","null","[2,1]","467.0677937362448","486.0802901409756","507.584849152612"
"","canvas-keyboard-response","71","137690","0.0-6.0-2.9","564","","","","","rectangles no change","null","null","","","critical","c","t","d","164","240","240","164","232.8713","160.6713","trueblood","0.05","w","240","164","164","240","232.8713","160.6713","39360","39360","37415.7294","tc","null","null","null","null","null","null","[2,1]","467.0677937362448","486.0802901409756","507.584849152612"
"","canvas-keyboard-response","72","139028","0.0-6.0-3.9","564","","","","","rectangles with change","null","null","","","critical","c","t","d","164","240","240","164","232.8713","160.6713","trueblood","0.05","w","240","164","164","240","232.8713","160.6713","39360","39360","37415.7294","tc","null","null","null","null","null","null","[2,1]","467.0677937362448","486.0802901409756","507.584849152612"
"","canvas-keyboard-response","73","139046","0.0-6.0-4.9","564","","","","","clear_screen","null","null","","","critical","c","t","d","164","240","240","164","232.8713","160.6713","trueblood","0.05","w","240","164","164","240","232.8713","160.6713","39360","39360","37415.7294","tc","null","null","null","null","null","null","[2,1]","467.0677937362448","486.0802901409756","507.584849152612"
"","canvas-keyboard-response","74","140879","0.0-6.0-5.9","564","","","","","make choice","1824","2","","","critical","c","t","d","164","240","240","164","232.8713","160.6713","trueblood","0.05","w","240","164","164","240","232.8713","160.6713","39360","39360","37415.7294","tc","null","null","null","null","null","null","[2,1]","","",""
"","canvas-keyboard-response","75","140895","0.0-6.0-6.9","564","","","","","clear_screen","null","null","","","critical","c","t","d","164","240","240","164","232.8713","160.6713","trueblood","0.05","w","240","164","164","240","232.8713","160.6713","39360","39360","37415.7294","tc","null","null","null","null","null","null","[2,1]","","",""
"","canvas-keyboard-response","76","141096","0.0-6.0-0.10","564","","","","","pre trial waiting period","null","null","","","catch","sw","l","sh","180","200","242","160","172","167","trueblood","null","null","null","null","null","null","null","null","null","null","null","","180","200","260","200","36000","52000","[2,3]","493.8494172428881","508.4114536698634","468.51482629720624"
"","canvas-keyboard-response","77","141118","0.0-6.0-1.10","564","","","","","clear_screen","null","null","","","catch","sw","l","sh","180","200","242","160","172","167","trueblood","null","null","null","null","null","null","null","null","null","null","null","","180","200","260","200","36000","52000","[2,3]","493.8494172428881","508.4114536698634","468.51482629720624"
"","canvas-keyboard-response","78","141624","0.0-6.0-2.10","564","","","","","rectangles no change","null","null","","","catch","sw","l","sh","180","200","242","160","172","167","trueblood","null","null","null","null","null","null","null","null","null","null","null","","180","200","260","200","36000","52000","[2,3]","493.8494172428881","508.4114536698634","468.51482629720624"
"","canvas-keyboard-response","79","142961","0.0-6.0-3.10","564","","","","","rectangles with change","null","null","","","catch","sw","l","sh","180","200","242","160","172","167","trueblood","null","null","null","null","null","null","null","null","null","null","null","","180","200","260","200","36000","52000","[2,3]","493.8494172428881","508.4114536698634","468.51482629720624"
"","canvas-keyboard-response","80","142981","0.0-6.0-4.10","564","","","","","clear_screen","null","null","","","catch","sw","l","sh","180","200","242","160","172","167","trueblood","null","null","null","null","null","null","null","null","null","null","null","","180","200","260","200","36000","52000","[2,3]","493.8494172428881","508.4114536698634","468.51482629720624"
"","canvas-keyboard-response","81","144312","0.0-6.0-5.10","564","","","","","make choice","1325","2","","","catch","sw","l","sh","180","200","242","160","172","167","trueblood","null","null","null","null","null","null","null","null","null","null","null","","180","200","260","200","36000","52000","[2,3]","","",""
"","canvas-keyboard-response","82","144326","0.0-6.0-6.10","564","","","","","clear_screen","null","null","","","catch","sw","l","sh","180","200","242","160","172","167","trueblood","null","null","null","null","null","null","null","null","null","null","null","","180","200","260","200","36000","52000","[2,3]","","",""
"","canvas-keyboard-response","83","144527","0.0-6.0-0.11","564","","","","","pre trial waiting period","null","null","","","catch","l","sh","sw","294","200","226","197","200","171","spektor","null","null","null","null","null","null","null","null","null","null","null","","180","200","260","200","36000","52000","[1,3]","502.3671016625823","171.57116993008188","533.3829737769815"
"","canvas-keyboard-response","84","144550","0.0-6.0-1.11","564","","","","","clear_screen","null","null","","","catch","l","sh","sw","294","200","226","197","200","171","spektor","null","null","null","null","null","null","null","null","null","null","null","","180","200","260","200","36000","52000","[1,3]","502.3671016625823","171.57116993008188","533.3829737769815"
"","canvas-keyboard-response","85","145061","0.0-6.0-2.11","564","","","","","rectangles no change","null","null","","","catch","l","sh","sw","294","200","226","197","200","171","spektor","null","null","null","null","null","null","null","null","null","null","null","","180","200","260","200","36000","52000","[1,3]","502.3671016625823","171.57116993008188","533.3829737769815"
"","canvas-keyboard-response","86","146396","0.0-6.0-3.11","564","","","","","rectangles with change","null","null","","","catch","l","sh","sw","294","200","226","197","200","171","spektor","null","null","null","null","null","null","null","null","null","null","null","","180","200","260","200","36000","52000","[1,3]","502.3671016625823","171.57116993008188","533.3829737769815"
"","canvas-keyboard-response","87","146414","0.0-6.0-4.11","564","","","","","clear_screen","null","null","","","catch","l","sh","sw","294","200","226","197","200","171","spektor","null","null","null","null","null","null","null","null","null","null","null","","180","200","260","200","36000","52000","[1,3]","502.3671016625823","171.57116993008188","533.3829737769815"
"","canvas-keyboard-response","88","147812","0.0-6.0-5.11","564","","","","","make choice","1390","1","","","catch","l","sh","sw","294","200","226","197","200","171","spektor","null","null","null","null","null","null","null","null","null","null","null","","180","200","260","200","36000","52000","[1,3]","","",""
"","canvas-keyboard-response","89","147831","0.0-6.0-6.11","564","","","","","clear_screen","null","null","","","catch","l","sh","sw","294","200","226","197","200","171","spektor","null","null","null","null","null","null","null","null","null","null","null","","180","200","260","200","36000","52000","[1,3]","","",""
"","canvas-keyboard-response","90","148031","0.0-6.0-0.12","564","","","","","pre trial waiting period","null","null","","","critical","d","t","c","164","240","164","240","240","164","spektor","0","h","164","240","240","164","164","240","39360","39360","39360","tc","null","null","null","null","null","null","[2,3]","482.7866136380749","139.5655673041215","525.3502128681512"
"","canvas-keyboard-response","91","148055","0.0-6.0-1.12","564","","","","","clear_screen","null","null","","","critical","d","t","c","164","240","164","240","240","164","spektor","0","h","164","240","240","164","164","240","39360","39360","39360","tc","null","null","null","null","null","null","[2,3]","482.7866136380749","139.5655673041215","525.3502128681512"
"","canvas-keyboard-response","92","148565","0.0-6.0-2.12","564","","","","","rectangles no change","null","null","","","critical","d","t","c","164","240","164","240","240","164","spektor","0","h","164","240","240","164","164","240","39360","39360","39360","tc","null","null","null","null","null","null","[2,3]","482.7866136380749","139.5655673041215","525.3502128681512"
"","canvas-keyboard-response","93","149901","0.0-6.0-3.12","564","","","","","rectangles with change","null","null","","","critical","d","t","c","164","240","164","240","240","164","spektor","0","h","164","240","240","164","164","240","39360","39360","39360","tc","null","null","null","null","null","null","[2,3]","482.7866136380749","139.5655673041215","525.3502128681512"
"","canvas-keyboard-response","94","149920","0.0-6.0-4.12","564","","","","","clear_screen","null","null","","","critical","d","t","c","164","240","164","240","240","164","spektor","0","h","164","240","240","164","164","240","39360","39360","39360","tc","null","null","null","null","null","null","[2,3]","482.7866136380749","139.5655673041215","525.3502128681512"
"","canvas-keyboard-response","95","151516","0.0-6.0-5.12","564","","","","","make choice","1589","3","","","critical","d","t","c","164","240","164","240","240","164","spektor","0","h","164","240","240","164","164","240","39360","39360","39360","tc","null","null","null","null","null","null","[2,3]","","",""
"","canvas-keyboard-response","96","151533","0.0-6.0-6.12","564","","","","","clear_screen","null","null","","","critical","d","t","c","164","240","164","240","240","164","spektor","0","h","164","240","240","164","164","240","39360","39360","39360","tc","null","null","null","null","null","null","[2,3]","","",""
"","canvas-keyboard-response","97","151734","0.0-6.0-0.13","564","","","","","pre trial waiting period","null","null","","","critical","d","t","c","227.1683","158.0083","240","164","164","240","trueblood","0.09","w","240","164","164","240","227.1683","158.0083","39360","39360","35894.4834","td","null","null","null","null","null","null","[2,1]","500.2903609763899","479.58322738105363","441.94548860048496"
"","canvas-keyboard-response","98","151755","0.0-6.0-1.13","564","","","","","clear_screen","null","null","","","critical","d","t","c","227.1683","158.0083","240","164","164","240","trueblood","0.09","w","240","164","164","240","227.1683","158.0083","39360","39360","35894.4834","td","null","null","null","null","null","null","[2,1]","500.2903609763899","479.58322738105363","441.94548860048496"
"","canvas-keyboard-response","99","152261","0.0-6.0-2.13","564","","","","","rectangles no change","null","null","","","critical","d","t","c","227.1683","158.0083","240","164","164","240","trueblood","0.09","w","240","164","164","240","227.1683","158.0083","39360","39360","35894.4834","td","null","null","null","null","null","null","[2,1]","500.2903609763899","479.58322738105363","441.94548860048496"
"","canvas-keyboard-response","100","153600","0.0-6.0-3.13","564","","","","","rectangles with change","null","null","","","critical","d","t","c","227.1683","158.0083","240","164","164","240","trueblood","0.09","w","240","164","164","240","227.1683","158.0083","39360","39360","35894.4834","td","null","null","null","null","null","null","[2,1]","500.2903609763899","479.58322738105363","441.94548860048496"
"","canvas-keyboard-response","101","153617","0.0-6.0-4.13","564","","","","","clear_screen","null","null","","","critical","d","t","c","227.1683","158.0083","240","164","164","240","trueblood","0.09","w","240","164","164","240","227.1683","158.0083","39360","39360","35894.4834","td","null","null","null","null","null","null","[2,1]","500.2903609763899","479.58322738105363","441.94548860048496"
"","canvas-keyboard-response","102","154998","0.0-6.0-5.13","564","","","","","make choice","1372","2","","","critical","d","t","c","227.1683","158.0083","240","164","164","240","trueblood","0.09","w","240","164","164","240","227.1683","158.0083","39360","39360","35894.4834","td","null","null","null","null","null","null","[2,1]","","",""
"","canvas-keyboard-response","103","155015","0.0-6.0-6.13","564","","","","","clear_screen","null","null","","","critical","d","t","c","227.1683","158.0083","240","164","164","240","trueblood","0.09","w","240","164","164","240","227.1683","158.0083","39360","39360","35894.4834","td","null","null","null","null","null","null","[2,1]","","",""
"","canvas-keyboard-response","104","155217","0.0-6.0-0.14","564","","","","","pre trial waiting period","null","null","","","critical","d","t","c","154.6796","220.0396","164","240","240","164","trueblood","0.14","h","164","240","240","164","154.6796","220.0396","39360","39360","34035.6388","dc","null","null","null","null","null","null","[1,3]","470.9502673937309","429.4680331899815","516.9982219336545"
"","canvas-keyboard-response","105","155237","0.0-6.0-1.14","564","","","","","clear_screen","null","null","","","critical","d","t","c","154.6796","220.0396","164","240","240","164","trueblood","0.14","h","164","240","240","164","154.6796","220.0396","39360","39360","34035.6388","dc","null","null","null","null","null","null","[1,3]","470.9502673937309","429.4680331899815","516.9982219336545"
"","canvas-keyboard-response","106","155746","0.0-6.0-2.14","564","","","","","rectangles no change","null","null","","","critical","d","t","c","154.6796","220.0396","164","240","240","164","trueblood","0.14","h","164","240","240","164","154.6796","220.0396","39360","39360","34035.6388","dc","null","null","null","null","null","null","[1,3]","470.9502673937309","429.4680331899815","516.9982219336545"
"","canvas-keyboard-response","107","157081","0.0-6.0-3.14","564","","","","","rectangles with change","null","null","","","critical","d","t","c","154.6796","220.0396","164","240","240","164","trueblood","0.14","h","164","240","240","164","154.6796","220.0396","39360","39360","34035.6388","dc","null","null","null","null","null","null","[1,3]","470.9502673937309","429.4680331899815","516.9982219336545"
"","canvas-keyboard-response","108","157099","0.0-6.0-4.14","564","","","","","clear_screen","null","null","","","critical","d","t","c","154.6796","220.0396","164","240","240","164","trueblood","0.14","h","164","240","240","164","154.6796","220.0396","39360","39360","34035.6388","dc","null","null","null","null","null","null","[1,3]","470.9502673937309","429.4680331899815","516.9982219336545"
"","canvas-keyboard-response","109","158380","0.0-6.0-5.14","564","","","","","make choice","1277","3","","","critical","d","t","c","154.6796","220.0396","164","240","240","164","trueblood","0.14","h","164","240","240","164","154.6796","220.0396","39360","39360","34035.6388","dc","null","null","null","null","null","null","[1,3]","","",""
"","canvas-keyboard-response","110","158398","0.0-6.0-6.14","564","","","","","clear_screen","null","null","","","critical","d","t","c","154.6796","220.0396","164","240","240","164","trueblood","0.14","h","164","240","240","164","154.6796","220.0396","39360","39360","34035.6388","dc","null","null","null","null","null","null","[1,3]","","",""
"","canvas-keyboard-response","111","158599","0.0-6.0-0.15","564","","","","","pre trial waiting period","null","null","","","critical","t","d","c","164","240","164","240","240","164","spektor","0","h","164","240","240","164","164","240","39360","39360","39360","dc","null","null","null","null","null","null","[2,3]","466.323059328404","96.90577970820216","528.8296136058069"
"","canvas-keyboard-response","112","158616","0.0-6.0-1.15","564","","","","","clear_screen","null","null","","","critical","t","d","c","164","240","164","240","240","164","spektor","0","h","164","240","240","164","164","240","39360","39360","39360","dc","null","null","null","null","null","null","[2,3]","466.323059328404","96.90577970820216","528.8296136058069"
"","canvas-keyboard-response","113","159127","0.0-6.0-2.15","564","","","","","rectangles no change","null","null","","","critical","t","d","c","164","240","164","240","240","164","spektor","0","h","164","240","240","164","164","240","39360","39360","39360","dc","null","null","null","null","null","null","[2,3]","466.323059328404","96.90577970820216","528.8296136058069"
"","canvas-keyboard-response","114","160464","0.0-6.0-3.15","564","","","","","rectangles with change","null","null","","","critical","t","d","c","164","240","164","240","240","164","spektor","0","h","164","240","240","164","164","240","39360","39360","39360","dc","null","null","null","null","null","null","[2,3]","466.323059328404","96.90577970820216","528.8296136058069"
"","canvas-keyboard-response","115","160483","0.0-6.0-4.15","564","","","","","clear_screen","null","null","","","critical","t","d","c","164","240","164","240","240","164","spektor","0","h","164","240","240","164","164","240","39360","39360","39360","dc","null","null","null","null","null","null","[2,3]","466.323059328404","96.90577970820216","528.8296136058069"
"","canvas-keyboard-response","116","161883","0.0-6.0-5.15","564","","","","","make choice","1392","3","","","critical","t","d","c","164","240","164","240","240","164","spektor","0","h","164","240","240","164","164","240","39360","39360","39360","dc","null","null","null","null","null","null","[2,3]","","",""
"","canvas-keyboard-response","117","161903","0.0-6.0-6.15","564","","","","","clear_screen","null","null","","","critical","t","d","c","164","240","164","240","240","164","spektor","0","h","164","240","240","164","164","240","39360","39360","39360","dc","null","null","null","null","null","null","[2,3]","","",""
"","canvas-keyboard-response","118","162103","0.0-6.0-0.16","564","","","","","pre trial waiting period","null","null","","","critical","c","d","t","240","164","158.0083","227.1683","164","240","trueblood","0.09","h","164","240","240","164","158.0083","227.1683","39360","39360","35894.4834","dc","null","null","null","null","null","null","[2,1]","499.2204235119456","454.2336359972618","421.0045506554326"
"","canvas-keyboard-response","119","162124","0.0-6.0-1.16","564","","","","","clear_screen","null","null","","","critical","c","d","t","240","164","158.0083","227.1683","164","240","trueblood","0.09","h","164","240","240","164","158.0083","227.1683","39360","39360","35894.4834","dc","null","null","null","null","null","null","[2,1]","499.2204235119456","454.2336359972618","421.0045506554326"
"","canvas-keyboard-response","120","162633","0.0-6.0-2.16","564","","","","","rectangles no change","null","null","","","critical","c","d","t","240","164","158.0083","227.1683","164","240","trueblood","0.09","h","164","240","240","164","158.0083","227.1683","39360","39360","35894.4834","dc","null","null","null","null","null","null","[2,1]","499.2204235119456","454.2336359972618","421.0045506554326"
"","canvas-keyboard-response","121","163971","0.0-6.0-3.16","564","","","","","rectangles with change","null","null","","","critical","c","d","t","240","164","158.0083","227.1683","164","240","trueblood","0.09","h","164","240","240","164","158.0083","227.1683","39360","39360","35894.4834","dc","null","null","null","null","null","null","[2,1]","499.2204235119456","454.2336359972618","421.0045506554326"
"","canvas-keyboard-response","122","163992","0.0-6.0-4.16","564","","","","","clear_screen","null","null","","","critical","c","d","t","240","164","158.0083","227.1683","164","240","trueblood","0.09","h","164","240","240","164","158.0083","227.1683","39360","39360","35894.4834","dc","null","null","null","null","null","null","[2,1]","499.2204235119456","454.2336359972618","421.0045506554326"
"","canvas-keyboard-response","123","165251","0.0-6.0-5.16","564","","","","","make choice","1252","1","","","critical","c","d","t","240","164","158.0083","227.1683","164","240","trueblood","0.09","h","164","240","240","164","158.0083","227.1683","39360","39360","35894.4834","dc","null","null","null","null","null","null","[2,1]","","",""
"","canvas-keyboard-response","124","165272","0.0-6.0-6.16","564","","","","","clear_screen","null","null","","","critical","c","d","t","240","164","158.0083","227.1683","164","240","trueblood","0.09","h","164","240","240","164","158.0083","227.1683","39360","39360","35894.4834","dc","null","null","null","null","null","null","[2,1]","","",""
"","canvas-keyboard-response","125","165473","0.0-6.0-0.17","564","","","","","pre trial waiting period","null","null","","","catch","sh","l","sw","219","206","236","201","182","168","trueblood","null","null","null","null","null","null","null","null","null","null","null","","180","200","260","200","36000","52000","[1,2]","449.0121935390535","450.2620241573395","508.87578605481053"
"","canvas-keyboard-response","126","165493","0.0-6.0-1.17","564","","","","","clear_screen","null","null","","","catch","sh","l","sw","219","206","236","201","182","168","trueblood","null","null","null","null","null","null","null","null","null","null","null","","180","200","260","200","36000","52000","[1,2]","449.0121935390535","450.2620241573395","508.87578605481053"
"","canvas-keyboard-response","127","166000","0.0-6.0-2.17","564","","","","","rectangles no change","null","null","","","catch","sh","l","sw","219","206","236","201","182","168","trueblood","null","null","null","null","null","null","null","null","null","null","null","","180","200","260","200","36000","52000","[1,2]","449.0121935390535","450.2620241573395","508.87578605481053"
"","canvas-keyboard-response","128","167338","0.0-6.0-3.17","564","","","","","rectangles with change","null","null","","","catch","sh","l","sw","219","206","236","201","182","168","trueblood","null","null","null","null","null","null","null","null","null","null","null","","180","200","260","200","36000","52000","[1,2]","449.0121935390535","450.2620241573395","508.87578605481053"
"","canvas-keyboard-response","129","167357","0.0-6.0-4.17","564","","","","","clear_screen","null","null","","","catch","sh","l","sw","219","206","236","201","182","168","trueblood","null","null","null","null","null","null","null","null","null","null","null","","180","200","260","200","36000","52000","[1,2]","449.0121935390535","450.2620241573395","508.87578605481053"
"","canvas-keyboard-response","130","168620","0.0-6.0-5.17","564","","","","","make choice","1256","2","","","catch","sh","l","sw","219","206","236","201","182","168","trueblood","null","null","null","null","null","null","null","null","null","null","null","","180","200","260","200","36000","52000","[1,2]","","",""
"","canvas-keyboard-response","131","168639","0.0-6.0-6.17","564","","","","","clear_screen","null","null","","","catch","sh","l","sw","219","206","236","201","182","168","trueblood","null","null","null","null","null","null","null","null","null","null","null","","180","200","260","200","36000","52000","[1,2]","","",""
"","canvas-keyboard-response","132","168840","0.0-6.0-0.18","564","","","","","pre trial waiting period","null","null","","","catch","l","sh","sw","239","289","173","174","206","180","trueblood","null","null","null","null","null","null","null","null","null","null","null","","180","200","260","200","36000","52000","[1,3]","403.4501891787368","487.7418399736035","477.4712829515215"
"","canvas-keyboard-response","133","168861","0.0-6.0-1.18","564","","","","","clear_screen","null","null","","","catch","l","sh","sw","239","289","173","174","206","180","trueblood","null","null","null","null","null","null","null","null","null","null","null","","180","200","260","200","36000","52000","[1,3]","403.4501891787368","487.7418399736035","477.4712829515215"
"","canvas-keyboard-response","134","169372","0.0-6.0-2.18","564","","","","","rectangles no change","null","null","","","catch","l","sh","sw","239","289","173","174","206","180","trueblood","null","null","null","null","null","null","null","null","null","null","null","","180","200","260","200","36000","52000","[1,3]","403.4501891787368","487.7418399736035","477.4712829515215"
"","canvas-keyboard-response","135","170710","0.0-6.0-3.18","564","","","","","rectangles with change","null","null","","","catch","l","sh","sw","239","289","173","174","206","180","trueblood","null","null","null","null","null","null","null","null","null","null","null","","180","200","260","200","36000","52000","[1,3]","403.4501891787368","487.7418399736035","477.4712829515215"
"","canvas-keyboard-response","136","170728","0.0-6.0-4.18","564","","","","","clear_screen","null","null","","","catch","l","sh","sw","239","289","173","174","206","180","trueblood","null","null","null","null","null","null","null","null","null","null","null","","180","200","260","200","36000","52000","[1,3]","403.4501891787368","487.7418399736035","477.4712829515215"
"","canvas-keyboard-response","137","171835","0.0-6.0-5.18","564","","","","","make choice","1100","1","","","catch","l","sh","sw","239","289","173","174","206","180","trueblood","null","null","null","null","null","null","null","null","null","null","null","","180","200","260","200","36000","52000","[1,3]","","",""
"","canvas-keyboard-response","138","171853","0.0-6.0-6.18","564","","","","","clear_screen","null","null","","","catch","l","sh","sw","239","289","173","174","206","180","trueblood","null","null","null","null","null","null","null","null","null","null","null","","180","200","260","200","36000","52000","[1,3]","","",""
"","canvas-keyboard-response","139","172054","0.0-6.0-0.19","564","","","","","pre trial waiting period","null","null","","","critical","d","t","c","237.1485","162.6685","240","164","164","240","trueblood","0.02","w","240","164","164","240","237.1485","162.6685","39360","39360","38576.5967","dc","null","null","null","null","null","null","[1,3]","492.65182497047795","482.181141933253","423.33598301570055"
"","canvas-keyboard-response","140","172077","0.0-6.0-1.19","564","","","","","clear_screen","null","null","","","critical","d","t","c","237.1485","162.6685","240","164","164","240","trueblood","0.02","w","240","164","164","240","237.1485","162.6685","39360","39360","38576.5967","dc","null","null","null","null","null","null","[1,3]","492.65182497047795","482.181141933253","423.33598301570055"
"","canvas-keyboard-response","141","172585","0.0-6.0-2.19","564","","","","","rectangles no change","null","null","","","critical","d","t","c","237.1485","162.6685","240","164","164","240","trueblood","0.02","w","240","164","164","240","237.1485","162.6685","39360","39360","38576.5967","dc","null","null","null","null","null","null","[1,3]","492.65182497047795","482.181141933253","423.33598301570055"
"","canvas-keyboard-response","142","173922","0.0-6.0-3.19","564","","","","","rectangles with change","null","null","","","critical","d","t","c","237.1485","162.6685","240","164","164","240","trueblood","0.02","w","240","164","164","240","237.1485","162.6685","39360","39360","38576.5967","dc","null","null","null","null","null","null","[1,3]","492.65182497047795","482.181141933253","423.33598301570055"
"","canvas-keyboard-response","143","173944","0.0-6.0-4.19","564","","","","","clear_screen","null","null","","","critical","d","t","c","237.1485","162.6685","240","164","164","240","trueblood","0.02","w","240","164","164","240","237.1485","162.6685","39360","39360","38576.5967","dc","null","null","null","null","null","null","[1,3]","492.65182497047795","482.181141933253","423.33598301570055"
"","canvas-keyboard-response","144","175292","0.0-6.0-5.19","564","","","","","make choice","1342","1","","","critical","d","t","c","237.1485","162.6685","240","164","164","240","trueblood","0.02","w","240","164","164","240","237.1485","162.6685","39360","39360","38576.5967","dc","null","null","null","null","null","null","[1,3]","","",""
"","canvas-keyboard-response","145","175312","0.0-6.0-6.19","564","","","","","clear_screen","null","null","","","critical","d","t","c","237.1485","162.6685","240","164","164","240","trueblood","0.02","w","240","164","164","240","237.1485","162.6685","39360","39360","38576.5967","dc","null","null","null","null","null","null","[1,3]","","",""
"","canvas-keyboard-response","146","175514","0.0-6.0-0.20","564","","","","","pre trial waiting period","null","null","","","critical","d","c","t","240","164","164","240","240","164","trueblood","0","w","240","164","164","240","240","164","39360","39360","39360","dc","null","null","null","null","null","null","[1,2]","482.47725344866694","440.1796690746235","469.50125475760706"
"","canvas-keyboard-response","147","175533","0.0-6.0-1.20","564","","","","","clear_screen","null","null","","","critical","d","c","t","240","164","164","240","240","164","trueblood","0","w","240","164","164","240","240","164","39360","39360","39360","dc","null","null","null","null","null","null","[1,2]","482.47725344866694","440.1796690746235","469.50125475760706"
"","canvas-keyboard-response","148","176037","0.0-6.0-2.20","564","","","","","rectangles no change","null","null","","","critical","d","c","t","240","164","164","240","240","164","trueblood","0","w","240","164","164","240","240","164","39360","39360","39360","dc","null","null","null","null","null","null","[1,2]","482.47725344866694","440.1796690746235","469.50125475760706"
"","canvas-keyboard-response","149","177374","0.0-6.0-3.20","564","","","","","rectangles with change","null","null","","","critical","d","c","t","240","164","164","240","240","164","trueblood","0","w","240","164","164","240","240","164","39360","39360","39360","dc","null","null","null","null","null","null","[1,2]","482.47725344866694","440.1796690746235","469.50125475760706"
"","canvas-keyboard-response","150","177396","0.0-6.0-4.20","564","","","","","clear_screen","null","null","","","critical","d","c","t","240","164","164","240","240","164","trueblood","0","w","240","164","164","240","240","164","39360","39360","39360","dc","null","null","null","null","null","null","[1,2]","482.47725344866694","440.1796690746235","469.50125475760706"
"","canvas-keyboard-response","151","178548","0.0-6.0-5.20","564","","","","","make choice","1145","1","","","critical","d","c","t","240","164","164","240","240","164","trueblood","0","w","240","164","164","240","240","164","39360","39360","39360","dc","null","null","null","null","null","null","[1,2]","","",""
"","canvas-keyboard-response","152","178568","0.0-6.0-6.20","564","","","","","clear_screen","null","null","","","critical","d","c","t","240","164","164","240","240","164","trueblood","0","w","240","164","164","240","240","164","39360","39360","39360","dc","null","null","null","null","null","null","[1,2]","","",""
"","canvas-keyboard-response","153","178769","0.0-6.0-0.21","564","","","","","pre trial waiting period","null","null","","","catch","sw","l","sh","180","200","190","277","181","155","spektor","null","null","null","null","null","null","null","null","null","null","null","","180","200","260","200","36000","52000","[2,3]","490.05721461611466","113.77881817666551","499.02420657465336"
"","canvas-keyboard-response","154","178787","0.0-6.0-1.21","564","","","","","clear_screen","null","null","","","catch","sw","l","sh","180","200","190","277","181","155","spektor","null","null","null","null","null","null","null","null","null","null","null","","180","200","260","200","36000","52000","[2,3]","490.05721461611466","113.77881817666551","499.02420657465336"
"","canvas-keyboard-response","155","179292","0.0-6.0-2.21","564","","","","","rectangles no change","null","null","","","catch","sw","l","sh","180","200","190","277","181","155","spektor","null","null","null","null","null","null","null","null","null","null","null","","180","200","260","200","36000","52000","[2,3]","490.05721461611466","113.77881817666551","499.02420657465336"
"","canvas-keyboard-response","156","180632","0.0-6.0-3.21","564","","","","","rectangles with change","null","null","","","catch","sw","l","sh","180","200","190","277","181","155","spektor","null","null","null","null","null","null","null","null","null","null","null","","180","200","260","200","36000","52000","[2,3]","490.05721461611466","113.77881817666551","499.02420657465336"
"","canvas-keyboard-response","157","180654","0.0-6.0-4.21","564","","","","","clear_screen","null","null","","","catch","sw","l","sh","180","200","190","277","181","155","spektor","null","null","null","null","null","null","null","null","null","null","null","","180","200","260","200","36000","52000","[2,3]","490.05721461611466","113.77881817666551","499.02420657465336"
"","canvas-keyboard-response","158","181683","0.0-6.0-5.21","564","","","","","make choice","1022","2","","","catch","sw","l","sh","180","200","190","277","181","155","spektor","null","null","null","null","null","null","null","null","null","null","null","","180","200","260","200","36000","52000","[2,3]","","",""
"","canvas-keyboard-response","159","181701","0.0-6.0-6.21","564","","","","","clear_screen","null","null","","","catch","sw","l","sh","180","200","190","277","181","155","spektor","null","null","null","null","null","null","null","null","null","null","null","","180","200","260","200","36000","52000","[2,3]","","",""
"","canvas-keyboard-response","160","181902","0.0-6.0-0.22","564","","","","","pre trial waiting period","null","null","","","critical","d","c","t","162.6685","237.1485","240","164","164","240","trueblood","0.02","h","164","240","240","164","162.6685","237.1485","39360","39360","38576.5967","td","null","null","null","null","null","null","[3,1]","466.54825123704666","481.432963931034","459.69761807672324"
"","canvas-keyboard-response","161","181921","0.0-6.0-1.22","564","","","","","clear_screen","null","null","","","critical","d","c","t","162.6685","237.1485","240","164","164","240","trueblood","0.02","h","164","240","240","164","162.6685","237.1485","39360","39360","38576.5967","td","null","null","null","null","null","null","[3,1]","466.54825123704666","481.432963931034","459.69761807672324"
"","canvas-keyboard-response","162","182426","0.0-6.0-2.22","564","","","","","rectangles no change","null","null","","","critical","d","c","t","162.6685","237.1485","240","164","164","240","trueblood","0.02","h","164","240","240","164","162.6685","237.1485","39360","39360","38576.5967","td","null","null","null","null","null","null","[3,1]","466.54825123704666","481.432963931034","459.69761807672324"
"","canvas-keyboard-response","163","183764","0.0-6.0-3.22","564","","","","","rectangles with change","null","null","","","critical","d","c","t","162.6685","237.1485","240","164","164","240","trueblood","0.02","h","164","240","240","164","162.6685","237.1485","39360","39360","38576.5967","td","null","null","null","null","null","null","[3,1]","466.54825123704666","481.432963931034","459.69761807672324"
"","canvas-keyboard-response","164","183785","0.0-6.0-4.22","564","","","","","clear_screen","null","null","","","critical","d","c","t","162.6685","237.1485","240","164","164","240","trueblood","0.02","h","164","240","240","164","162.6685","237.1485","39360","39360","38576.5967","td","null","null","null","null","null","null","[3,1]","466.54825123704666","481.432963931034","459.69761807672324"
"","canvas-keyboard-response","165","184875","0.0-6.0-5.22","564","","","","","make choice","1087","3","","","critical","d","c","t","162.6685","237.1485","240","164","164","240","trueblood","0.02","h","164","240","240","164","162.6685","237.1485","39360","39360","38576.5967","td","null","null","null","null","null","null","[3,1]","","",""
"","canvas-keyboard-response","166","184895","0.0-6.0-6.22","564","","","","","clear_screen","null","null","","","critical","d","c","t","162.6685","237.1485","240","164","164","240","trueblood","0.02","h","164","240","240","164","162.6685","237.1485","39360","39360","38576.5967","td","null","null","null","null","null","null","[3,1]","","",""
"","canvas-keyboard-response","167","185095","0.0-6.0-0.23","564","","","","","pre trial waiting period","null","null","","","critical","d","t","c","227.1683","158.0083","240","164","164","240","trueblood","0.09","w","240","164","164","240","227.1683","158.0083","39360","39360","35894.4834","tc","null","null","null","null","null","null","[2,3]","520.0490913385062","513.2679513158187","438.1461096550749"
"","canvas-keyboard-response","168","185114","0.0-6.0-1.23","564","","","","","clear_screen","null","null","","","critical","d","t","c","227.1683","158.0083","240","164","164","240","trueblood","0.09","w","240","164","164","240","227.1683","158.0083","39360","39360","35894.4834","tc","null","null","null","null","null","null","[2,3]","520.0490913385062","513.2679513158187","438.1461096550749"
"","canvas-keyboard-response","169","185623","0.0-6.0-2.23","564","","","","","rectangles no change","null","null","","","critical","d","t","c","227.1683","158.0083","240","164","164","240","trueblood","0.09","w","240","164","164","240","227.1683","158.0083","39360","39360","35894.4834","tc","null","null","null","null","null","null","[2,3]","520.0490913385062","513.2679513158187","438.1461096550749"
"","canvas-keyboard-response","170","186960","0.0-6.0-3.23","564","","","","","rectangles with change","null","null","","","critical","d","t","c","227.1683","158.0083","240","164","164","240","trueblood","0.09","w","240","164","164","240","227.1683","158.0083","39360","39360","35894.4834","tc","null","null","null","null","null","null","[2,3]","520.0490913385062","513.2679513158187","438.1461096550749"
"","canvas-keyboard-response","171","186982","0.0-6.0-4.23","564","","","","","clear_screen","null","null","","","critical","d","t","c","227.1683","158.0083","240","164","164","240","trueblood","0.09","w","240","164","164","240","227.1683","158.0083","39360","39360","35894.4834","tc","null","null","null","null","null","null","[2,3]","520.0490913385062","513.2679513158187","438.1461096550749"
"","canvas-keyboard-response","172","190948","0.0-6.0-5.23","564","","","","","make choice","3960","3","","","critical","d","t","c","227.1683","158.0083","240","164","164","240","trueblood","0.09","w","240","164","164","240","227.1683","158.0083","39360","39360","35894.4834","tc","null","null","null","null","null","null","[2,3]","","",""
"","canvas-keyboard-response","173","190968","0.0-6.0-6.23","564","","","","","clear_screen","null","null","","","critical","d","t","c","227.1683","158.0083","240","164","164","240","trueblood","0.09","w","240","164","164","240","227.1683","158.0083","39360","39360","35894.4834","tc","null","null","null","null","null","null","[2,3]","","",""
"","canvas-keyboard-response","174","191170","0.0-6.0-0.24","564","","","","","pre trial waiting period","null","null","","","critical","d","c","t","220.0396","154.6796","164","240","240","164","spektor","0.14","w","240","164","164","240","220.0396","154.6796","39360","39360","34035.6388","td","null","null","null","null","null","null","[3,1]","530.1548025320799","123.22959803935677","510.97363575432007"
"","canvas-keyboard-response","175","191189","0.0-6.0-1.24","564","","","","","clear_screen","null","null","","","critical","d","c","t","220.0396","154.6796","164","240","240","164","spektor","0.14","w","240","164","164","240","220.0396","154.6796","39360","39360","34035.6388","td","null","null","null","null","null","null","[3,1]","530.1548025320799","123.22959803935677","510.97363575432007"
"","canvas-keyboard-response","176","191695","0.0-6.0-2.24","564","","","","","rectangles no change","null","null","","","critical","d","c","t","220.0396","154.6796","164","240","240","164","spektor","0.14","w","240","164","164","240","220.0396","154.6796","39360","39360","34035.6388","td","null","null","null","null","null","null","[3,1]","530.1548025320799","123.22959803935677","510.97363575432007"
"","canvas-keyboard-response","177","193031","0.0-6.0-3.24","564","","","","","rectangles with change","null","null","","","critical","d","c","t","220.0396","154.6796","164","240","240","164","spektor","0.14","w","240","164","164","240","220.0396","154.6796","39360","39360","34035.6388","td","null","null","null","null","null","null","[3,1]","530.1548025320799","123.22959803935677","510.97363575432007"
"","canvas-keyboard-response","178","193053","0.0-6.0-4.24","564","","","","","clear_screen","null","null","","","critical","d","c","t","220.0396","154.6796","164","240","240","164","spektor","0.14","w","240","164","164","240","220.0396","154.6796","39360","39360","34035.6388","td","null","null","null","null","null","null","[3,1]","530.1548025320799","123.22959803935677","510.97363575432007"
"","canvas-keyboard-response","179","194275","0.0-6.0-5.24","564","","","","","make choice","1215","3","","","critical","d","c","t","220.0396","154.6796","164","240","240","164","spektor","0.14","w","240","164","164","240","220.0396","154.6796","39360","39360","34035.6388","td","null","null","null","null","null","null","[3,1]","","",""
"","canvas-keyboard-response","180","194296","0.0-6.0-6.24","564","","","","","clear_screen","null","null","","","critical","d","c","t","220.0396","154.6796","164","240","240","164","spektor","0.14","w","240","164","164","240","220.0396","154.6796","39360","39360","34035.6388","td","null","null","null","null","null","null","[3,1]","","",""
"","canvas-keyboard-response","181","194497","0.0-6.0-0.25","564","","","","","pre trial waiting period","null","null","","","critical","t","c","d","164","240","240","164","162.6685","237.1485","spektor","0.02","h","164","240","240","164","162.6685","237.1485","39360","39360","38576.5967","tc","null","null","null","null","null","null","[1,2]","473.9864789850173","191.5421124974865","473.56622763776016"
"","canvas-keyboard-response","182","194517","0.0-6.0-1.25","564","","","","","clear_screen","null","null","","","critical","t","c","d","164","240","240","164","162.6685","237.1485","spektor","0.02","h","164","240","240","164","162.6685","237.1485","39360","39360","38576.5967","tc","null","null","null","null","null","null","[1,2]","473.9864789850173","191.5421124974865","473.56622763776016"
"","canvas-keyboard-response","183","195028","0.0-6.0-2.25","564","","","","","rectangles no change","null","null","","","critical","t","c","d","164","240","240","164","162.6685","237.1485","spektor","0.02","h","164","240","240","164","162.6685","237.1485","39360","39360","38576.5967","tc","null","null","null","null","null","null","[1,2]","473.9864789850173","191.5421124974865","473.56622763776016"
"","canvas-keyboard-response","184","196368","0.0-6.0-3.25","564","","","","","rectangles with change","null","null","","","critical","t","c","d","164","240","240","164","162.6685","237.1485","spektor","0.02","h","164","240","240","164","162.6685","237.1485","39360","39360","38576.5967","tc","null","null","null","null","null","null","[1,2]","473.9864789850173","191.5421124974865","473.56622763776016"
"","canvas-keyboard-response","185","196390","0.0-6.0-4.25","564","","","","","clear_screen","null","null","","","critical","t","c","d","164","240","240","164","162.6685","237.1485","spektor","0.02","h","164","240","240","164","162.6685","237.1485","39360","39360","38576.5967","tc","null","null","null","null","null","null","[1,2]","473.9864789850173","191.5421124974865","473.56622763776016"
"","canvas-keyboard-response","186","197147","0.0-6.0-5.25","564","","","","","make choice","755","2","","","critical","t","c","d","164","240","240","164","162.6685","237.1485","spektor","0.02","h","164","240","240","164","162.6685","237.1485","39360","39360","38576.5967","tc","null","null","null","null","null","null","[1,2]","","",""
"","canvas-keyboard-response","187","197162","0.0-6.0-6.25","564","","","","","clear_screen","null","null","","","critical","t","c","d","164","240","240","164","162.6685","237.1485","spektor","0.02","h","164","240","240","164","162.6685","237.1485","39360","39360","38576.5967","tc","null","null","null","null","null","null","[1,2]","","",""
"","canvas-keyboard-response","188","197363","0.0-6.0-0.26","564","","","","","pre trial waiting period","null","null","","","catch","sw","sh","l","180","200","212","153","198","228","spektor","null","null","null","null","null","null","null","null","null","null","null","","180","200","260","200","36000","52000","[1,3]","492.07867630008275","205.2136725444355","508.9647748921864"
"","canvas-keyboard-response","189","197384","0.0-6.0-1.26","564","","","","","clear_screen","null","null","","","catch","sw","sh","l","180","200","212","153","198","228","spektor","null","null","null","null","null","null","null","null","null","null","null","","180","200","260","200","36000","52000","[1,3]","492.07867630008275","205.2136725444355","508.9647748921864"
"","canvas-keyboard-response","190","197892","0.0-6.0-2.26","564","","","","","rectangles no change","null","null","","","catch","sw","sh","l","180","200","212","153","198","228","spektor","null","null","null","null","null","null","null","null","null","null","null","","180","200","260","200","36000","52000","[1,3]","492.07867630008275","205.2136725444355","508.9647748921864"
"","canvas-keyboard-response","191","199229","0.0-6.0-3.26","564","","","","","rectangles with change","null","null","","","catch","sw","sh","l","180","200","212","153","198","228","spektor","null","null","null","null","null","null","null","null","null","null","null","","180","200","260","200","36000","52000","[1,3]","492.07867630008275","205.2136725444355","508.9647748921864"
"","canvas-keyboard-response","192","199247","0.0-6.0-4.26","564","","","","","clear_screen","null","null","","","catch","sw","sh","l","180","200","212","153","198","228","spektor","null","null","null","null","null","null","null","null","null","null","null","","180","200","260","200","36000","52000","[1,3]","492.07867630008275","205.2136725444355","508.9647748921864"
"","canvas-keyboard-response","193","200155","0.0-6.0-5.26","564","","","","","make choice","901","3","","","catch","sw","sh","l","180","200","212","153","198","228","spektor","null","null","null","null","null","null","null","null","null","null","null","","180","200","260","200","36000","52000","[1,3]","","",""
"","canvas-keyboard-response","194","200176","0.0-6.0-6.26","564","","","","","clear_screen","null","null","","","catch","sw","sh","l","180","200","212","153","198","228","spektor","null","null","null","null","null","null","null","null","null","null","null","","180","200","260","200","36000","52000","[1,3]","","",""
"","canvas-keyboard-response","195","200377","0.0-6.0-0.27","564","","","","","pre trial waiting period","null","null","","","critical","d","t","c","227.1683","158.0083","240","164","164","240","spektor","0.09","w","240","164","164","240","227.1683","158.0083","39360","39360","35894.4834","td","null","null","null","null","null","null","[2,1]","511.1415025969295","169.65436480082977","481.658999525199"
"","canvas-keyboard-response","196","200399","0.0-6.0-1.27","564","","","","","clear_screen","null","null","","","critical","d","t","c","227.1683","158.0083","240","164","164","240","spektor","0.09","w","240","164","164","240","227.1683","158.0083","39360","39360","35894.4834","td","null","null","null","null","null","null","[2,1]","511.1415025969295","169.65436480082977","481.658999525199"
"","canvas-keyboard-response","197","200908","0.0-6.0-2.27","564","","","","","rectangles no change","null","null","","","critical","d","t","c","227.1683","158.0083","240","164","164","240","spektor","0.09","w","240","164","164","240","227.1683","158.0083","39360","39360","35894.4834","td","null","null","null","null","null","null","[2,1]","511.1415025969295","169.65436480082977","481.658999525199"
"","canvas-keyboard-response","198","202243","0.0-6.0-3.27","564","","","","","rectangles with change","null","null","","","critical","d","t","c","227.1683","158.0083","240","164","164","240","spektor","0.09","w","240","164","164","240","227.1683","158.0083","39360","39360","35894.4834","td","null","null","null","null","null","null","[2,1]","511.1415025969295","169.65436480082977","481.658999525199"
"","canvas-keyboard-response","199","202265","0.0-6.0-4.27","564","","","","","clear_screen","null","null","","","critical","d","t","c","227.1683","158.0083","240","164","164","240","spektor","0.09","w","240","164","164","240","227.1683","158.0083","39360","39360","35894.4834","td","null","null","null","null","null","null","[2,1]","511.1415025969295","169.65436480082977","481.658999525199"
"","canvas-keyboard-response","200","203946","0.0-6.0-5.27","564","","","","","make choice","1679","2","","","critical","d","t","c","227.1683","158.0083","240","164","164","240","spektor","0.09","w","240","164","164","240","227.1683","158.0083","39360","39360","35894.4834","td","null","null","null","null","null","null","[2,1]","","",""
"","canvas-keyboard-response","201","203966","0.0-6.0-6.27","564","","","","","clear_screen","null","null","","","critical","d","t","c","227.1683","158.0083","240","164","164","240","spektor","0.09","w","240","164","164","240","227.1683","158.0083","39360","39360","35894.4834","td","null","null","null","null","null","null","[2,1]","","",""
"","canvas-keyboard-response","202","204166","0.0-6.0-0.28","564","","","","","pre trial waiting period","null","null","","","catch","l","sw","sh","289","212","148","174","235","182","spektor","null","null","null","null","null","null","null","null","null","null","null","","180","200","260","200","36000","52000","[1,3]","511.0510645618449","185.85468735220886","511.14384548711035"
"","canvas-keyboard-response","203","204187","0.0-6.0-1.28","564","","","","","clear_screen","null","null","","","catch","l","sw","sh","289","212","148","174","235","182","spektor","null","null","null","null","null","null","null","null","null","null","null","","180","200","260","200","36000","52000","[1,3]","511.0510645618449","185.85468735220886","511.14384548711035"
"","canvas-keyboard-response","204","204695","0.0-6.0-2.28","564","","","","","rectangles no change","null","null","","","catch","l","sw","sh","289","212","148","174","235","182","spektor","null","null","null","null","null","null","null","null","null","null","null","","180","200","260","200","36000","52000","[1,3]","511.0510645618449","185.85468735220886","511.14384548711035"
"","canvas-keyboard-response","205","206031","0.0-6.0-3.28","564","","","","","rectangles with change","null","null","","","catch","l","sw","sh","289","212","148","174","235","182","spektor","null","null","null","null","null","null","null","null","null","null","null","","180","200","260","200","36000","52000","[1,3]","511.0510645618449","185.85468735220886","511.14384548711035"
"","canvas-keyboard-response","206","206051","0.0-6.0-4.28","564","","","","","clear_screen","null","null","","","catch","l","sw","sh","289","212","148","174","235","182","spektor","null","null","null","null","null","null","null","null","null","null","null","","180","200","260","200","36000","52000","[1,3]","511.0510645618449","185.85468735220886","511.14384548711035"
"","canvas-keyboard-response","207","207275","0.0-6.0-5.28","564","","","","","make choice","1215","1","","","catch","l","sw","sh","289","212","148","174","235","182","spektor","null","null","null","null","null","null","null","null","null","null","null","","180","200","260","200","36000","52000","[1,3]","","",""
"","canvas-keyboard-response","208","207296","0.0-6.0-6.28","564","","","","","clear_screen","null","null","","","catch","l","sw","sh","289","212","148","174","235","182","spektor","null","null","null","null","null","null","null","null","null","null","null","","180","200","260","200","36000","52000","[1,3]","","",""
"","canvas-keyboard-response","209","207497","0.0-6.0-0.29","564","","","","","pre trial waiting period","null","null","","","critical","c","t","d","164","240","240","164","220.0396","154.6796","spektor","0.14","w","240","164","164","240","220.0396","154.6796","39360","39360","34035.6388","tc","null","null","null","null","null","null","[2,1]","502.43695842019434","192.76266362648488","500.6563197532425"
"","canvas-keyboard-response","210","207520","0.0-6.0-1.29","564","","","","","clear_screen","null","null","","","critical","c","t","d","164","240","240","164","220.0396","154.6796","spektor","0.14","w","240","164","164","240","220.0396","154.6796","39360","39360","34035.6388","tc","null","null","null","null","null","null","[2,1]","502.43695842019434","192.76266362648488","500.6563197532425"
"","canvas-keyboard-response","211","208029","0.0-6.0-2.29","564","","","","","rectangles no change","null","null","","","critical","c","t","d","164","240","240","164","220.0396","154.6796","spektor","0.14","w","240","164","164","240","220.0396","154.6796","39360","39360","34035.6388","tc","null","null","null","null","null","null","[2,1]","502.43695842019434","192.76266362648488","500.6563197532425"
"","canvas-keyboard-response","212","209364","0.0-6.0-3.29","564","","","","","rectangles with change","null","null","","","critical","c","t","d","164","240","240","164","220.0396","154.6796","spektor","0.14","w","240","164","164","240","220.0396","154.6796","39360","39360","34035.6388","tc","null","null","null","null","null","null","[2,1]","502.43695842019434","192.76266362648488","500.6563197532425"
"","canvas-keyboard-response","213","209386","0.0-6.0-4.29","564","","","","","clear_screen","null","null","","","critical","c","t","d","164","240","240","164","220.0396","154.6796","spektor","0.14","w","240","164","164","240","220.0396","154.6796","39360","39360","34035.6388","tc","null","null","null","null","null","null","[2,1]","502.43695842019434","192.76266362648488","500.6563197532425"
"","canvas-keyboard-response","214","210371","0.0-6.0-5.29","564","","","","","make choice","979","2","","","critical","c","t","d","164","240","240","164","220.0396","154.6796","spektor","0.14","w","240","164","164","240","220.0396","154.6796","39360","39360","34035.6388","tc","null","null","null","null","null","null","[2,1]","","",""
"","canvas-keyboard-response","215","210392","0.0-6.0-6.29","564","","","","","clear_screen","null","null","","","critical","c","t","d","164","240","240","164","220.0396","154.6796","spektor","0.14","w","240","164","164","240","220.0396","154.6796","39360","39360","34035.6388","tc","null","null","null","null","null","null","[2,1]","","",""
"","canvas-keyboard-response","216","210593","0.0-6.0-0.30","564","","","","","pre trial waiting period","null","null","","","catch","l","sh","sw","295","229","171","169","199","204","spektor","null","null","null","null","null","null","null","null","null","null","null","","180","200","260","200","36000","52000","[1,3]","463.52898174334905","169.6945675302263","519.3317168184659"
"","canvas-keyboard-response","217","210613","0.0-6.0-1.30","564","","","","","clear_screen","null","null","","","catch","l","sh","sw","295","229","171","169","199","204","spektor","null","null","null","null","null","null","null","null","null","null","null","","180","200","260","200","36000","52000","[1,3]","463.52898174334905","169.6945675302263","519.3317168184659"
"","canvas-keyboard-response","218","211116","0.0-6.0-2.30","564","","","","","rectangles no change","null","null","","","catch","l","sh","sw","295","229","171","169","199","204","spektor","null","null","null","null","null","null","null","null","null","null","null","","180","200","260","200","36000","52000","[1,3]","463.52898174334905","169.6945675302263","519.3317168184659"
"","canvas-keyboard-response","219","212452","0.0-6.0-3.30","564","","","","","rectangles with change","null","null","","","catch","l","sh","sw","295","229","171","169","199","204","spektor","null","null","null","null","null","null","null","null","null","null","null","","180","200","260","200","36000","52000","[1,3]","463.52898174334905","169.6945675302263","519.3317168184659"
"","canvas-keyboard-response","220","212475","0.0-6.0-4.30","564","","","","","clear_screen","null","null","","","catch","l","sh","sw","295","229","171","169","199","204","spektor","null","null","null","null","null","null","null","null","null","null","null","","180","200","260","200","36000","52000","[1,3]","463.52898174334905","169.6945675302263","519.3317168184659"
"","canvas-keyboard-response","221","213636","0.0-6.0-5.30","564","","","","","make choice","1153","1","","","catch","l","sh","sw","295","229","171","169","199","204","spektor","null","null","null","null","null","null","null","null","null","null","null","","180","200","260","200","36000","52000","[1,3]","","",""
"","canvas-keyboard-response","222","213655","0.0-6.0-6.30","564","","","","","clear_screen","null","null","","","catch","l","sh","sw","295","229","171","169","199","204","spektor","null","null","null","null","null","null","null","null","null","null","null","","180","200","260","200","36000","52000","[1,3]","","",""
"","canvas-keyboard-response","223","213855","0.0-6.0-0.31","564","","","","","pre trial waiting period","null","null","","","critical","t","d","c","240","164","232.8713","160.6713","164","240","spektor","0.05","w","240","164","164","240","232.8713","160.6713","39360","39360","37415.7294","dc","null","null","null","null","null","null","[2,3]","522.8471469127052","196.87623034463616","504.141316117785"
"","canvas-keyboard-response","224","213874","0.0-6.0-1.31","564","","","","","clear_screen","null","null","","","critical","t","d","c","240","164","232.8713","160.6713","164","240","spektor","0.05","w","240","164","164","240","232.8713","160.6713","39360","39360","37415.7294","dc","null","null","null","null","null","null","[2,3]","522.8471469127052","196.87623034463616","504.141316117785"
"","canvas-keyboard-response","225","214382","0.0-6.0-2.31","564","","","","","rectangles no change","null","null","","","critical","t","d","c","240","164","232.8713","160.6713","164","240","spektor","0.05","w","240","164","164","240","232.8713","160.6713","39360","39360","37415.7294","dc","null","null","null","null","null","null","[2,3]","522.8471469127052","196.87623034463616","504.141316117785"
"","canvas-keyboard-response","226","215720","0.0-6.0-3.31","564","","","","","rectangles with change","null","null","","","critical","t","d","c","240","164","232.8713","160.6713","164","240","spektor","0.05","w","240","164","164","240","232.8713","160.6713","39360","39360","37415.7294","dc","null","null","null","null","null","null","[2,3]","522.8471469127052","196.87623034463616","504.141316117785"
"","canvas-keyboard-response","227","215742","0.0-6.0-4.31","564","","","","","clear_screen","null","null","","","critical","t","d","c","240","164","232.8713","160.6713","164","240","spektor","0.05","w","240","164","164","240","232.8713","160.6713","39360","39360","37415.7294","dc","null","null","null","null","null","null","[2,3]","522.8471469127052","196.87623034463616","504.141316117785"
"","canvas-keyboard-response","228","218244","0.0-6.0-5.31","564","","","","","make choice","2496","2","","","critical","t","d","c","240","164","232.8713","160.6713","164","240","spektor","0.05","w","240","164","164","240","232.8713","160.6713","39360","39360","37415.7294","dc","null","null","null","null","null","null","[2,3]","","",""
"","canvas-keyboard-response","229","218263","0.0-6.0-6.31","564","","","","","clear_screen","null","null","","","critical","t","d","c","240","164","232.8713","160.6713","164","240","spektor","0.05","w","240","164","164","240","232.8713","160.6713","39360","39360","37415.7294","dc","null","null","null","null","null","null","[2,3]","","",""
"","canvas-keyboard-response","230","218465","0.0-6.0-0.32","564","","","","","pre trial waiting period","null","null","","","critical","d","t","c","162.6685","237.1485","164","240","240","164","trueblood","0.02","h","164","240","240","164","162.6685","237.1485","39360","39360","38576.5967","tc","null","null","null","null","null","null","[2,3]","441.52508341705754","429.227619620897","472.0035699712058"
"","canvas-keyboard-response","231","218487","0.0-6.0-1.32","564","","","","","clear_screen","null","null","","","critical","d","t","c","162.6685","237.1485","164","240","240","164","trueblood","0.02","h","164","240","240","164","162.6685","237.1485","39360","39360","38576.5967","tc","null","null","null","null","null","null","[2,3]","441.52508341705754","429.227619620897","472.0035699712058"
"","canvas-keyboard-response","232","218998","0.0-6.0-2.32","564","","","","","rectangles no change","null","null","","","critical","d","t","c","162.6685","237.1485","164","240","240","164","trueblood","0.02","h","164","240","240","164","162.6685","237.1485","39360","39360","38576.5967","tc","null","null","null","null","null","null","[2,3]","441.52508341705754","429.227619620897","472.0035699712058"
"","canvas-keyboard-response","233","220335","0.0-6.0-3.32","564","","","","","rectangles with change","null","null","","","critical","d","t","c","162.6685","237.1485","164","240","240","164","trueblood","0.02","h","164","240","240","164","162.6685","237.1485","39360","39360","38576.5967","tc","null","null","null","null","null","null","[2,3]","441.52508341705754","429.227619620897","472.0035699712058"
"","canvas-keyboard-response","234","220357","0.0-6.0-4.32","564","","","","","clear_screen","null","null","","","critical","d","t","c","162.6685","237.1485","164","240","240","164","trueblood","0.02","h","164","240","240","164","162.6685","237.1485","39360","39360","38576.5967","tc","null","null","null","null","null","null","[2,3]","441.52508341705754","429.227619620897","472.0035699712058"
"","canvas-keyboard-response","235","221212","0.0-6.0-5.32","564","","","","","make choice","848","3","","","critical","d","t","c","162.6685","237.1485","164","240","240","164","trueblood","0.02","h","164","240","240","164","162.6685","237.1485","39360","39360","38576.5967","tc","null","null","null","null","null","null","[2,3]","","",""
"","canvas-keyboard-response","236","221230","0.0-6.0-6.32","564","","","","","clear_screen","null","null","","","critical","d","t","c","162.6685","237.1485","164","240","240","164","trueblood","0.02","h","164","240","240","164","162.6685","237.1485","39360","39360","38576.5967","tc","null","null","null","null","null","null","[2,3]","","",""
"","canvas-keyboard-response","237","221431","0.0-6.0-0.33","564","","","","","pre trial waiting period","null","null","","","catch","sw","l","sh","180","200","205","296","211","178","trueblood","null","null","null","null","null","null","null","null","null","null","null","","180","200","260","200","36000","52000","[1,2]","481.84587135772927","385.54277444528753","464.3233730987032"
"","canvas-keyboard-response","238","221454","0.0-6.0-1.33","564","","","","","clear_screen","null","null","","","catch","sw","l","sh","180","200","205","296","211","178","trueblood","null","null","null","null","null","null","null","null","null","null","null","","180","200","260","200","36000","52000","[1,2]","481.84587135772927","385.54277444528753","464.3233730987032"
"","canvas-keyboard-response","239","221959","0.0-6.0-2.33","564","","","","","rectangles no change","null","null","","","catch","sw","l","sh","180","200","205","296","211","178","trueblood","null","null","null","null","null","null","null","null","null","null","null","","180","200","260","200","36000","52000","[1,2]","481.84587135772927","385.54277444528753","464.3233730987032"
"","canvas-keyboard-response","240","223293","0.0-6.0-3.33","564","","","","","rectangles with change","null","null","","","catch","sw","l","sh","180","200","205","296","211","178","trueblood","null","null","null","null","null","null","null","null","null","null","null","","180","200","260","200","36000","52000","[1,2]","481.84587135772927","385.54277444528753","464.3233730987032"
"","canvas-keyboard-response","241","223315","0.0-6.0-4.33","564","","","","","clear_screen","null","null","","","catch","sw","l","sh","180","200","205","296","211","178","trueblood","null","null","null","null","null","null","null","null","null","null","null","","180","200","260","200","36000","52000","[1,2]","481.84587135772927","385.54277444528753","464.3233730987032"
"","canvas-keyboard-response","242","224172","0.0-6.0-5.33","564","","","","","make choice","852","2","","","catch","sw","l","sh","180","200","205","296","211","178","trueblood","null","null","null","null","null","null","null","null","null","null","null","","180","200","260","200","36000","52000","[1,2]","","",""
"","canvas-keyboard-response","243","224192","0.0-6.0-6.33","564","","","","","clear_screen","null","null","","","catch","sw","l","sh","180","200","205","296","211","178","trueblood","null","null","null","null","null","null","null","null","null","null","null","","180","200","260","200","36000","52000","[1,2]","","",""
"","canvas-keyboard-response","244","224393","0.0-6.0-0.34","564","","","","","pre trial waiting period","null","null","","","catch","sh","l","sw","236","160","269","176","162","239","spektor","null","null","null","null","null","null","null","null","null","null","null","","180","200","260","200","36000","52000","[2,3]","536.8830418900478","200.62331027237605","470.38591486054435"
"","canvas-keyboard-response","245","224412","0.0-6.0-1.34","564","","","","","clear_screen","null","null","","","catch","sh","l","sw","236","160","269","176","162","239","spektor","null","null","null","null","null","null","null","null","null","null","null","","180","200","260","200","36000","52000","[2,3]","536.8830418900478","200.62331027237605","470.38591486054435"
"","canvas-keyboard-response","246","224920","0.0-6.0-2.34","564","","","","","rectangles no change","null","null","","","catch","sh","l","sw","236","160","269","176","162","239","spektor","null","null","null","null","null","null","null","null","null","null","null","","180","200","260","200","36000","52000","[2,3]","536.8830418900478","200.62331027237605","470.38591486054435"
"","canvas-keyboard-response","247","226255","0.0-6.0-3.34","564","","","","","rectangles with change","null","null","","","catch","sh","l","sw","236","160","269","176","162","239","spektor","null","null","null","null","null","null","null","null","null","null","null","","180","200","260","200","36000","52000","[2,3]","536.8830418900478","200.62331027237605","470.38591486054435"
"","canvas-keyboard-response","248","226277","0.0-6.0-4.34","564","","","","","clear_screen","null","null","","","catch","sh","l","sw","236","160","269","176","162","239","spektor","null","null","null","null","null","null","null","null","null","null","null","","180","200","260","200","36000","52000","[2,3]","536.8830418900478","200.62331027237605","470.38591486054435"
"","canvas-keyboard-response","249","227531","0.0-6.0-5.34","564","","","","","make choice","1248","2","","","catch","sh","l","sw","236","160","269","176","162","239","spektor","null","null","null","null","null","null","null","null","null","null","null","","180","200","260","200","36000","52000","[2,3]","","",""
"","canvas-keyboard-response","250","227548","0.0-6.0-6.34","564","","","","","clear_screen","null","null","","","catch","sh","l","sw","236","160","269","176","162","239","spektor","null","null","null","null","null","null","null","null","null","null","null","","180","200","260","200","36000","52000","[2,3]","","",""
"","canvas-keyboard-response","251","227750","0.0-6.0-0.35","564","","","","","pre trial waiting period","null","null","","","critical","c","t","d","240","164","164","240","162.6685","237.1485","spektor","0.02","h","164","240","240","164","162.6685","237.1485","39360","39360","38576.5967","td","null","null","null","null","null","null","[2,3]","496.7449741701909","128.18577065185244","471.93694701712974"
"","canvas-keyboard-response","252","227772","0.0-6.0-1.35","564","","","","","clear_screen","null","null","","","critical","c","t","d","240","164","164","240","162.6685","237.1485","spektor","0.02","h","164","240","240","164","162.6685","237.1485","39360","39360","38576.5967","td","null","null","null","null","null","null","[2,3]","496.7449741701909","128.18577065185244","471.93694701712974"
"","canvas-keyboard-response","253","228279","0.0-6.0-2.35","564","","","","","rectangles no change","null","null","","","critical","c","t","d","240","164","164","240","162.6685","237.1485","spektor","0.02","h","164","240","240","164","162.6685","237.1485","39360","39360","38576.5967","td","null","null","null","null","null","null","[2,3]","496.7449741701909","128.18577065185244","471.93694701712974"
"","canvas-keyboard-response","254","229615","0.0-6.0-3.35","564","","","","","rectangles with change","null","null","","","critical","c","t","d","240","164","164","240","162.6685","237.1485","spektor","0.02","h","164","240","240","164","162.6685","237.1485","39360","39360","38576.5967","td","null","null","null","null","null","null","[2,3]","496.7449741701909","128.18577065185244","471.93694701712974"
"","canvas-keyboard-response","255","229634","0.0-6.0-4.35","564","","","","","clear_screen","null","null","","","critical","c","t","d","240","164","164","240","162.6685","237.1485","spektor","0.02","h","164","240","240","164","162.6685","237.1485","39360","39360","38576.5967","td","null","null","null","null","null","null","[2,3]","496.7449741701909","128.18577065185244","471.93694701712974"
"","canvas-keyboard-response","256","231228","0.0-6.0-5.35","564","","","","","make choice","1586","2","","","critical","c","t","d","240","164","164","240","162.6685","237.1485","spektor","0.02","h","164","240","240","164","162.6685","237.1485","39360","39360","38576.5967","td","null","null","null","null","null","null","[2,3]","","",""
"","canvas-keyboard-response","257","231247","0.0-6.0-6.35","564","","","","","clear_screen","null","null","","","critical","c","t","d","240","164","164","240","162.6685","237.1485","spektor","0.02","h","164","240","240","164","162.6685","237.1485","39360","39360","38576.5967","td","null","null","null","null","null","null","[2,3]","","",""
"","canvas-keyboard-response","258","231449","0.0-6.0-0.36","564","","","","","pre trial waiting period","null","null","","","critical","t","d","c","164","240","154.6796","220.0396","240","164","trueblood","0.14","h","164","240","240","164","154.6796","220.0396","39360","39360","34035.6388","tc","null","null","null","null","null","null","[1,3]","445.9407212756764","442.82602109296016","497.11848932025515"
"","canvas-keyboard-response","259","231469","0.0-6.0-1.36","564","","","","","clear_screen","null","null","","","critical","t","d","c","164","240","154.6796","220.0396","240","164","trueblood","0.14","h","164","240","240","164","154.6796","220.0396","39360","39360","34035.6388","tc","null","null","null","null","null","null","[1,3]","445.9407212756764","442.82602109296016","497.11848932025515"
"","canvas-keyboard-response","260","231974","0.0-6.0-2.36","564","","","","","rectangles no change","null","null","","","critical","t","d","c","164","240","154.6796","220.0396","240","164","trueblood","0.14","h","164","240","240","164","154.6796","220.0396","39360","39360","34035.6388","tc","null","null","null","null","null","null","[1,3]","445.9407212756764","442.82602109296016","497.11848932025515"
"","canvas-keyboard-response","261","233307","0.0-6.0-3.36","564","","","","","rectangles with change","null","null","","","critical","t","d","c","164","240","154.6796","220.0396","240","164","trueblood","0.14","h","164","240","240","164","154.6796","220.0396","39360","39360","34035.6388","tc","null","null","null","null","null","null","[1,3]","445.9407212756764","442.82602109296016","497.11848932025515"
"","canvas-keyboard-response","262","233329","0.0-6.0-4.36","564","","","","","clear_screen","null","null","","","critical","t","d","c","164","240","154.6796","220.0396","240","164","trueblood","0.14","h","164","240","240","164","154.6796","220.0396","39360","39360","34035.6388","tc","null","null","null","null","null","null","[1,3]","445.9407212756764","442.82602109296016","497.11848932025515"
"","canvas-keyboard-response","263","234307","0.0-6.0-5.36","564","","","","","make choice","972","3","","","critical","t","d","c","164","240","154.6796","220.0396","240","164","trueblood","0.14","h","164","240","240","164","154.6796","220.0396","39360","39360","34035.6388","tc","null","null","null","null","null","null","[1,3]","","",""
"","canvas-keyboard-response","264","234327","0.0-6.0-6.36","564","","","","","clear_screen","null","null","","","critical","t","d","c","164","240","154.6796","220.0396","240","164","trueblood","0.14","h","164","240","240","164","154.6796","220.0396","39360","39360","34035.6388","tc","null","null","null","null","null","null","[1,3]","","",""
"","canvas-keyboard-response","265","234528","0.0-6.0-0.37","564","","","","","pre trial waiting period","null","null","","","catch","sw","sh","l","180","200","198","173","230","174","trueblood","null","null","null","null","null","null","null","null","null","null","null","","180","200","260","200","36000","52000","[1,3]","461.6074578618743","481.3649059703549","502.33575264411166"
"","canvas-keyboard-response","266","234552","0.0-6.0-1.37","564","","","","","clear_screen","null","null","","","catch","sw","sh","l","180","200","198","173","230","174","trueblood","null","null","null","null","null","null","null","null","null","null","null","","180","200","260","200","36000","52000","[1,3]","461.6074578618743","481.3649059703549","502.33575264411166"
