"success","trial_type","trial_index","time_elapsed","internal_node_id","sub_n","timeout","failed_images","failed_audio","failed_video","screen_id","rt","response","stimulus","view_history","trial","r1","r2","r3","w1","h1","w2","h2","w3","h3","display","tdd","tdo","tw","th","cw","ch","dw","dh","ta","ca","da","probe","csls","csss","clls","clss","sa","la","probe_rects","r1yloc","r2yloc","r3yloc"
"true","fullscreen","0","4578","0.0-0.0","512","","","","","","","","","","","","","","","","","","","","","","","","","","","","","","","","","","","","","","","","","",""
"true","preload","1","4638","0.0-1.0","512","false","[]","[]","[]","img preload","","","","","","","","","","","","","","","","","","","","","","","","","","","","","","","","","","","","",""
"","survey-html-form","2","13951","0.0-2.0","512","","","","","enter-sub-number","9305","{""response"":""512""}","","","","","","","","","","","","","","","","","","","","","","","","","","","","","","","","","","",""
"","image-button-response","3","36321","0.0-3.0","512","","","","","","22300","0","consent.png","","","","","","","","","","","","","","","","","","","","","","","","","","","","","","","","","",""
"","html-button-response","4","42577","0.0-4.0","512","","","","","intro mssg","6250","0","<div style= ""font-size:25px;"" <p> <strong> Welcome! </strong><br> <p style=""color:#8B0000; font-size:25px;""><strong> Please do NOT exit full screen until you are done with the experiment. </strong> </p><p style=""font-size:25px;color:#8B0000;""> <strong> Your data will be lost <br> if you try to go back or refresh the page after the experiment starts. Feel free to click ""previous"" during the instructions, however.</strong> </p><br><p> <strong> Thanks in advance for your contribution to our research! </strong></p>","","","","","","","","","","","","","","","","","","","","","","","","","","","","","","","","","",""
"","instructions","5","83418","0.0-5.0","512","","","","","instructions","40836","","","[{""page_index"":0,""viewing_time"":6243},{""page_index"":1,""viewing_time"":6832},{""page_index"":2,""viewing_time"":3190},{""page_index"":3,""viewing_time"":12754},{""page_index"":4,""viewing_time"":5568},{""page_index"":5,""viewing_time"":2552},{""page_index"":6,""viewing_time"":2112},{""page_index"":7,""viewing_time"":1584}]","","","","","","","","","","","","","","","","","","","","","","","","","","","","","","","","",""
"","canvas-keyboard-response","6","83625","0.0-6.0-0.0","512","","","","","pre trial waiting period","null","null","","","catch","sh","l","sw","164","141","188","270","201","202","spektor","null","null","null","null","null","null","null","null","null","null","null","","180","200","260","200","36000","52000","[2,3]","535.968456808569","104.59272993075348","506.04231842524695"
"","canvas-keyboard-response","7","83650","0.0-6.0-1.0","512","","","","","clear_screen","null","null","","","catch","sh","l","sw","164","141","188","270","201","202","spektor","null","null","null","null","null","null","null","null","null","null","null","","180","200","260","200","36000","52000","[2,3]","535.968456808569","104.59272993075348","506.04231842524695"
"","canvas-keyboard-response","8","84162","0.0-6.0-2.0","512","","","","","rectangles no change","null","null","","","catch","sh","l","sw","164","141","188","270","201","202","spektor","null","null","null","null","null","null","null","null","null","null","null","","180","200","260","200","36000","52000","[2,3]","535.968456808569","104.59272993075348","506.04231842524695"
"","canvas-keyboard-response","9","85500","0.0-6.0-3.0","512","","","","","rectangles with change","null","null","","","catch","sh","l","sw","164","141","188","270","201","202","spektor","null","null","null","null","null","null","null","null","null","null","null","","180","200","260","200","36000","52000","[2,3]","535.968456808569","104.59272993075348","506.04231842524695"
"","canvas-keyboard-response","10","85522","0.0-6.0-4.0","512","","","","","clear_screen","null","null","","","catch","sh","l","sw","164","141","188","270","201","202","spektor","null","null","null","null","null","null","null","null","null","null","null","","180","200","260","200","36000","52000","[2,3]","535.968456808569","104.59272993075348","506.04231842524695"
"","canvas-keyboard-response","11","86633","0.0-6.0-5.0","512","","","","","make choice","1102","2","","","catch","sh","l","sw","164","141","188","270","201","202","spektor","null","null","null","null","null","null","null","null","null","null","null","","180","200","260","200","36000","52000","[2,3]","","",""
"","canvas-keyboard-response","12","86651","0.0-6.0-6.0","512","","","","","clear_screen","null","null","","","catch","sh","l","sw","164","141","188","270","201","202","spektor","null","null","null","null","null","null","null","null","null","null","null","","180","200","260","200","36000","52000","[2,3]","","",""
"","canvas-keyboard-response","13","86853","0.0-6.0-0.1","512","","","","","pre trial waiting period","null","null","","","critical","c","t","d","164","240","240","164","232.8713","160.6713","trueblood","0.05","w","240","164","164","240","232.8713","160.6713","39360","39360","37415.7294","td","null","null","null","null","null","null","[2,3]","464.42543574962605","473.89750369581554","474.4163487467369"
"","canvas-keyboard-response","14","86875","0.0-6.0-1.1","512","","","","","clear_screen","null","null","","","critical","c","t","d","164","240","240","164","232.8713","160.6713","trueblood","0.05","w","240","164","164","240","232.8713","160.6713","39360","39360","37415.7294","td","null","null","null","null","null","null","[2,3]","464.42543574962605","473.89750369581554","474.4163487467369"
"","canvas-keyboard-response","15","87383","0.0-6.0-2.1","512","","","","","rectangles no change","null","null","","","critical","c","t","d","164","240","240","164","232.8713","160.6713","trueblood","0.05","w","240","164","164","240","232.8713","160.6713","39360","39360","37415.7294","td","null","null","null","null","null","null","[2,3]","464.42543574962605","473.89750369581554","474.4163487467369"
"","canvas-keyboard-response","16","88719","0.0-6.0-3.1","512","","","","","rectangles with change","null","null","","","critical","c","t","d","164","240","240","164","232.8713","160.6713","trueblood","0.05","w","240","164","164","240","232.8713","160.6713","39360","39360","37415.7294","td","null","null","null","null","null","null","[2,3]","464.42543574962605","473.89750369581554","474.4163487467369"
"","canvas-keyboard-response","17","88742","0.0-6.0-4.1","512","","","","","clear_screen","null","null","","","critical","c","t","d","164","240","240","164","232.8713","160.6713","trueblood","0.05","w","240","164","164","240","232.8713","160.6713","39360","39360","37415.7294","td","null","null","null","null","null","null","[2,3]","464.42543574962605","473.89750369581554","474.4163487467369"
"","canvas-keyboard-response","18","89631","0.0-6.0-5.1","512","","","","","make choice","877","2","","","critical","c","t","d","164","240","240","164","232.8713","160.6713","trueblood","0.05","w","240","164","164","240","232.8713","160.6713","39360","39360","37415.7294","td","null","null","null","null","null","null","[2,3]","","",""
"","canvas-keyboard-response","19","89654","0.0-6.0-6.1","512","","","","","clear_screen","null","null","","","critical","c","t","d","164","240","240","164","232.8713","160.6713","trueblood","0.05","w","240","164","164","240","232.8713","160.6713","39360","39360","37415.7294","td","null","null","null","null","null","null","[2,3]","","",""
"","canvas-keyboard-response","20","89855","0.0-6.0-0.2","512","","","","","pre trial waiting period","null","null","","","catch","l","sh","sw","216","220","174","181","213","224","trueblood","null","null","null","null","null","null","null","null","null","null","null","","180","200","260","200","36000","52000","[1,3]","437.57692364053594","472.0381845570713","450.7832159421564"
"","canvas-keyboard-response","21","89876","0.0-6.0-1.2","512","","","","","clear_screen","null","null","","","catch","l","sh","sw","216","220","174","181","213","224","trueblood","null","null","null","null","null","null","null","null","null","null","null","","180","200","260","200","36000","52000","[1,3]","437.57692364053594","472.0381845570713","450.7832159421564"
"","canvas-keyboard-response","22","90385","0.0-6.0-2.2","512","","","","","rectangles no change","null","null","","","catch","l","sh","sw","216","220","174","181","213","224","trueblood","null","null","null","null","null","null","null","null","null","null","null","","180","200","260","200","36000","52000","[1,3]","437.57692364053594","472.0381845570713","450.7832159421564"
"","canvas-keyboard-response","23","91722","0.0-6.0-3.2","512","","","","","rectangles with change","null","null","","","catch","l","sh","sw","216","220","174","181","213","224","trueblood","null","null","null","null","null","null","null","null","null","null","null","","180","200","260","200","36000","52000","[1,3]","437.57692364053594","472.0381845570713","450.7832159421564"
"","canvas-keyboard-response","24","91746","0.0-6.0-4.2","512","","","","","clear_screen","null","null","","","catch","l","sh","sw","216","220","174","181","213","224","trueblood","null","null","null","null","null","null","null","null","null","null","null","","180","200","260","200","36000","52000","[1,3]","437.57692364053594","472.0381845570713","450.7832159421564"
"","canvas-keyboard-response","25","92944","0.0-6.0-5.2","512","","","","","make choice","1190","1","","","catch","l","sh","sw","216","220","174","181","213","224","trueblood","null","null","null","null","null","null","null","null","null","null","null","","180","200","260","200","36000","52000","[1,3]","","",""
"","canvas-keyboard-response","26","92965","0.0-6.0-6.2","512","","","","","clear_screen","null","null","","","catch","l","sh","sw","216","220","174","181","213","224","trueblood","null","null","null","null","null","null","null","null","null","null","null","","180","200","260","200","36000","52000","[1,3]","","",""
"","canvas-keyboard-response","27","93167","0.0-6.0-0.3","512","","","","","pre trial waiting period","null","null","","","critical","d","t","c","232.8713","160.6713","240","164","164","240","spektor","0.05","w","240","164","164","240","232.8713","160.6713","39360","39360","37415.7294","td","null","null","null","null","null","null","[2,1]","504.84279717291025","194.6310053419984","503.58386873291414"
"","canvas-keyboard-response","28","93187","0.0-6.0-1.3","512","","","","","clear_screen","null","null","","","critical","d","t","c","232.8713","160.6713","240","164","164","240","spektor","0.05","w","240","164","164","240","232.8713","160.6713","39360","39360","37415.7294","td","null","null","null","null","null","null","[2,1]","504.84279717291025","194.6310053419984","503.58386873291414"
"","canvas-keyboard-response","29","93695","0.0-6.0-2.3","512","","","","","rectangles no change","null","null","","","critical","d","t","c","232.8713","160.6713","240","164","164","240","spektor","0.05","w","240","164","164","240","232.8713","160.6713","39360","39360","37415.7294","td","null","null","null","null","null","null","[2,1]","504.84279717291025","194.6310053419984","503.58386873291414"
"","canvas-keyboard-response","30","95035","0.0-6.0-3.3","512","","","","","rectangles with change","null","null","","","critical","d","t","c","232.8713","160.6713","240","164","164","240","spektor","0.05","w","240","164","164","240","232.8713","160.6713","39360","39360","37415.7294","td","null","null","null","null","null","null","[2,1]","504.84279717291025","194.6310053419984","503.58386873291414"
"","canvas-keyboard-response","31","95055","0.0-6.0-4.3","512","","","","","clear_screen","null","null","","","critical","d","t","c","232.8713","160.6713","240","164","164","240","spektor","0.05","w","240","164","164","240","232.8713","160.6713","39360","39360","37415.7294","td","null","null","null","null","null","null","[2,1]","504.84279717291025","194.6310053419984","503.58386873291414"
"","canvas-keyboard-response","32","95880","0.0-6.0-5.3","512","","","","","make choice","818","2","","","critical","d","t","c","232.8713","160.6713","240","164","164","240","spektor","0.05","w","240","164","164","240","232.8713","160.6713","39360","39360","37415.7294","td","null","null","null","null","null","null","[2,1]","","",""
"","canvas-keyboard-response","33","95898","0.0-6.0-6.3","512","","","","","clear_screen","null","null","","","critical","d","t","c","232.8713","160.6713","240","164","164","240","spektor","0.05","w","240","164","164","240","232.8713","160.6713","39360","39360","37415.7294","td","null","null","null","null","null","null","[2,1]","","",""
"","canvas-keyboard-response","34","96100","0.0-6.0-0.4","512","","","","","pre trial waiting period","null","null","","","critical","d","c","t","158.0083","227.1683","240","164","164","240","trueblood","0.09","h","164","240","240","164","158.0083","227.1683","39360","39360","35894.4834","tc","null","null","null","null","null","null","[3,2]","428.25269935223594","469.5496289898099","465.2437798894359"
"","canvas-keyboard-response","35","96119","0.0-6.0-1.4","512","","","","","clear_screen","null","null","","","critical","d","c","t","158.0083","227.1683","240","164","164","240","trueblood","0.09","h","164","240","240","164","158.0083","227.1683","39360","39360","35894.4834","tc","null","null","null","null","null","null","[3,2]","428.25269935223594","469.5496289898099","465.2437798894359"
"","canvas-keyboard-response","36","96625","0.0-6.0-2.4","512","","","","","rectangles no change","null","null","","","critical","d","c","t","158.0083","227.1683","240","164","164","240","trueblood","0.09","h","164","240","240","164","158.0083","227.1683","39360","39360","35894.4834","tc","null","null","null","null","null","null","[3,2]","428.25269935223594","469.5496289898099","465.2437798894359"
"","canvas-keyboard-response","37","97960","0.0-6.0-3.4","512","","","","","rectangles with change","null","null","","","critical","d","c","t","158.0083","227.1683","240","164","164","240","trueblood","0.09","h","164","240","240","164","158.0083","227.1683","39360","39360","35894.4834","tc","null","null","null","null","null","null","[3,2]","428.25269935223594","469.5496289898099","465.2437798894359"
"","canvas-keyboard-response","38","97980","0.0-6.0-4.4","512","","","","","clear_screen","null","null","","","critical","d","c","t","158.0083","227.1683","240","164","164","240","trueblood","0.09","h","164","240","240","164","158.0083","227.1683","39360","39360","35894.4834","tc","null","null","null","null","null","null","[3,2]","428.25269935223594","469.5496289898099","465.2437798894359"
"","canvas-keyboard-response","39","99208","0.0-6.0-5.4","512","","","","","make choice","1222","3","","","critical","d","c","t","158.0083","227.1683","240","164","164","240","trueblood","0.09","h","164","240","240","164","158.0083","227.1683","39360","39360","35894.4834","tc","null","null","null","null","null","null","[3,2]","","",""
"","canvas-keyboard-response","40","99226","0.0-6.0-6.4","512","","","","","clear_screen","null","null","","","critical","d","c","t","158.0083","227.1683","240","164","164","240","trueblood","0.09","h","164","240","240","164","158.0083","227.1683","39360","39360","35894.4834","tc","null","null","null","null","null","null","[3,2]","","",""
"","canvas-keyboard-response","41","99429","0.0-6.0-0.5","512","","","","","pre trial waiting period","null","null","","","catch","sh","sw","l","239","217","144","164","168","238","spektor","null","null","null","null","null","null","null","null","null","null","null","","180","200","260","200","36000","52000","[2,3]","481.46240366012984","180.98695505274372","501.8249971020009"
"","canvas-keyboard-response","42","99449","0.0-6.0-1.5","512","","","","","clear_screen","null","null","","","catch","sh","sw","l","239","217","144","164","168","238","spektor","null","null","null","null","null","null","null","null","null","null","null","","180","200","260","200","36000","52000","[2,3]","481.46240366012984","180.98695505274372","501.8249971020009"
"","canvas-keyboard-response","43","99956","0.0-6.0-2.5","512","","","","","rectangles no change","null","null","","","catch","sh","sw","l","239","217","144","164","168","238","spektor","null","null","null","null","null","null","null","null","null","null","null","","180","200","260","200","36000","52000","[2,3]","481.46240366012984","180.98695505274372","501.8249971020009"
"","canvas-keyboard-response","44","101294","0.0-6.0-3.5","512","","","","","rectangles with change","null","null","","","catch","sh","sw","l","239","217","144","164","168","238","spektor","null","null","null","null","null","null","null","null","null","null","null","","180","200","260","200","36000","52000","[2,3]","481.46240366012984","180.98695505274372","501.8249971020009"
"","canvas-keyboard-response","45","101314","0.0-6.0-4.5","512","","","","","clear_screen","null","null","","","catch","sh","sw","l","239","217","144","164","168","238","spektor","null","null","null","null","null","null","null","null","null","null","null","","180","200","260","200","36000","52000","[2,3]","481.46240366012984","180.98695505274372","501.8249971020009"
"","canvas-keyboard-response","46","101631","0.0-6.0-5.5","512","","","","","make choice","312","3","","","catch","sh","sw","l","239","217","144","164","168","238","spektor","null","null","null","null","null","null","null","null","null","null","null","","180","200","260","200","36000","52000","[2,3]","","",""
"","canvas-keyboard-response","47","101648","0.0-6.0-6.5","512","","","","","clear_screen","null","null","","","catch","sh","sw","l","239","217","144","164","168","238","spektor","null","null","null","null","null","null","null","null","null","null","null","","180","200","260","200","36000","52000","[2,3]","","",""
"","canvas-keyboard-response","48","101849","0.0-6.0-0.6","512","","","","","pre trial waiting period","null","null","","","catch","sh","l","sw","228","165","283","208","144","226","trueblood","null","null","null","null","null","null","null","null","null","null","null","","180","200","260","200","36000","52000","[2,3]","508.516415470559","449.60270416925835","442.55023522836893"
"","canvas-keyboard-response","49","101871","0.0-6.0-1.6","512","","","","","clear_screen","null","null","","","catch","sh","l","sw","228","165","283","208","144","226","trueblood","null","null","null","null","null","null","null","null","null","null","null","","180","200","260","200","36000","52000","[2,3]","508.516415470559","449.60270416925835","442.55023522836893"
"","canvas-keyboard-response","50","102379","0.0-6.0-2.6","512","","","","","rectangles no change","null","null","","","catch","sh","l","sw","228","165","283","208","144","226","trueblood","null","null","null","null","null","null","null","null","null","null","null","","180","200","260","200","36000","52000","[2,3]","508.516415470559","449.60270416925835","442.55023522836893"
"","canvas-keyboard-response","51","103717","0.0-6.0-3.6","512","","","","","rectangles with change","null","null","","","catch","sh","l","sw","228","165","283","208","144","226","trueblood","null","null","null","null","null","null","null","null","null","null","null","","180","200","260","200","36000","52000","[2,3]","508.516415470559","449.60270416925835","442.55023522836893"
"","canvas-keyboard-response","52","103736","0.0-6.0-4.6","512","","","","","clear_screen","null","null","","","catch","sh","l","sw","228","165","283","208","144","226","trueblood","null","null","null","null","null","null","null","null","null","null","null","","180","200","260","200","36000","52000","[2,3]","508.516415470559","449.60270416925835","442.55023522836893"
"","canvas-keyboard-response","53","104063","0.0-6.0-5.6","512","","","","","make choice","321","2","","","catch","sh","l","sw","228","165","283","208","144","226","trueblood","null","null","null","null","null","null","null","null","null","null","null","","180","200","260","200","36000","52000","[2,3]","","",""
"","canvas-keyboard-response","54","104079","0.0-6.0-6.6","512","","","","","clear_screen","null","null","","","catch","sh","l","sw","228","165","283","208","144","226","trueblood","null","null","null","null","null","null","null","null","null","null","null","","180","200","260","200","36000","52000","[2,3]","","",""
"","canvas-keyboard-response","55","104281","0.0-6.0-0.7","512","","","","","pre trial waiting period","null","null","","","catch","sw","sh","l","180","200","161","213","236","188","spektor","null","null","null","null","null","null","null","null","null","null","null","","180","200","260","200","36000","52000","[1,3]","495.8808071352147","135.9782544157184","494.85647763505824"
"","canvas-keyboard-response","56","104301","0.0-6.0-1.7","512","","","","","clear_screen","null","null","","","catch","sw","sh","l","180","200","161","213","236","188","spektor","null","null","null","null","null","null","null","null","null","null","null","","180","200","260","200","36000","52000","[1,3]","495.8808071352147","135.9782544157184","494.85647763505824"
"","canvas-keyboard-response","57","104810","0.0-6.0-2.7","512","","","","","rectangles no change","null","null","","","catch","sw","sh","l","180","200","161","213","236","188","spektor","null","null","null","null","null","null","null","null","null","null","null","","180","200","260","200","36000","52000","[1,3]","495.8808071352147","135.9782544157184","494.85647763505824"
"","canvas-keyboard-response","58","106150","0.0-6.0-3.7","512","","","","","rectangles with change","null","null","","","catch","sw","sh","l","180","200","161","213","236","188","spektor","null","null","null","null","null","null","null","null","null","null","null","","180","200","260","200","36000","52000","[1,3]","495.8808071352147","135.9782544157184","494.85647763505824"
"","canvas-keyboard-response","59","106171","0.0-6.0-4.7","512","","","","","clear_screen","null","null","","","catch","sw","sh","l","180","200","161","213","236","188","spektor","null","null","null","null","null","null","null","null","null","null","null","","180","200","260","200","36000","52000","[1,3]","495.8808071352147","135.9782544157184","494.85647763505824"
"","canvas-keyboard-response","60","106552","0.0-6.0-5.7","512","","","","","make choice","375","3","","","catch","sw","sh","l","180","200","161","213","236","188","spektor","null","null","null","null","null","null","null","null","null","null","null","","180","200","260","200","36000","52000","[1,3]","","",""
"","canvas-keyboard-response","61","106571","0.0-6.0-6.7","512","","","","","clear_screen","null","null","","","catch","sw","sh","l","180","200","161","213","236","188","spektor","null","null","null","null","null","null","null","null","null","null","null","","180","200","260","200","36000","52000","[1,3]","","",""
"","canvas-keyboard-response","62","106772","0.0-6.0-0.8","512","","","","","pre trial waiting period","null","null","","","catch","sh","l","sw","229","203","270","238","185","238","trueblood","null","null","null","null","null","null","null","null","null","null","null","","180","200","260","200","36000","52000","[2,3]","486.81698827165775","427.63092154014896","452.6170317461276"
"","canvas-keyboard-response","63","106793","0.0-6.0-1.8","512","","","","","clear_screen","null","null","","","catch","sh","l","sw","229","203","270","238","185","238","trueblood","null","null","null","null","null","null","null","null","null","null","null","","180","200","260","200","36000","52000","[2,3]","486.81698827165775","427.63092154014896","452.6170317461276"
"","canvas-keyboard-response","64","107300","0.0-6.0-2.8","512","","","","","rectangles no change","null","null","","","catch","sh","l","sw","229","203","270","238","185","238","trueblood","null","null","null","null","null","null","null","null","null","null","null","","180","200","260","200","36000","52000","[2,3]","486.81698827165775","427.63092154014896","452.6170317461276"
"","canvas-keyboard-response","65","108638","0.0-6.0-3.8","512","","","","","rectangles with change","null","null","","","catch","sh","l","sw","229","203","270","238","185","238","trueblood","null","null","null","null","null","null","null","null","null","null","null","","180","200","260","200","36000","52000","[2,3]","486.81698827165775","427.63092154014896","452.6170317461276"
"","canvas-keyboard-response","66","108658","0.0-6.0-4.8","512","","","","","clear_screen","null","null","","","catch","sh","l","sw","229","203","270","238","185","238","trueblood","null","null","null","null","null","null","null","null","null","null","null","","180","200","260","200","36000","52000","[2,3]","486.81698827165775","427.63092154014896","452.6170317461276"
"","canvas-keyboard-response","67","108912","0.0-6.0-5.8","512","","","","","make choice","247","2","","","catch","sh","l","sw","229","203","270","238","185","238","trueblood","null","null","null","null","null","null","null","null","null","null","null","","180","200","260","200","36000","52000","[2,3]","","",""
"","canvas-keyboard-response","68","108933","0.0-6.0-6.8","512","","","","","clear_screen","null","null","","","catch","sh","l","sw","229","203","270","238","185","238","trueblood","null","null","null","null","null","null","null","null","null","null","null","","180","200","260","200","36000","52000","[2,3]","","",""
"","canvas-keyboard-response","69","109133","0.0-6.0-0.9","512","","","","","pre trial waiting period","null","null","","","catch","sh","sw","l","225","180","158","225","237","252","spektor","null","null","null","null","null","null","null","null","null","null","null","","180","200","260","200","36000","52000","[2,3]","491.1448303891732","107.2835647976079","479.5586994592816"
"","canvas-keyboard-response","70","109154","0.0-6.0-1.9","512","","","","","clear_screen","null","null","","","catch","sh","sw","l","225","180","158","225","237","252","spektor","null","null","null","null","null","null","null","null","null","null","null","","180","200","260","200","36000","52000","[2,3]","491.1448303891732","107.2835647976079","479.5586994592816"
"","canvas-keyboard-response","71","109661","0.0-6.0-2.9","512","","","","","rectangles no change","null","null","","","catch","sh","sw","l","225","180","158","225","237","252","spektor","null","null","null","null","null","null","null","null","null","null","null","","180","200","260","200","36000","52000","[2,3]","491.1448303891732","107.2835647976079","479.5586994592816"
"","canvas-keyboard-response","72","110997","0.0-6.0-3.9","512","","","","","rectangles with change","null","null","","","catch","sh","sw","l","225","180","158","225","237","252","spektor","null","null","null","null","null","null","null","null","null","null","null","","180","200","260","200","36000","52000","[2,3]","491.1448303891732","107.2835647976079","479.5586994592816"
"","canvas-keyboard-response","73","111014","0.0-6.0-4.9","512","","","","","clear_screen","null","null","","","catch","sh","sw","l","225","180","158","225","237","252","spektor","null","null","null","null","null","null","null","null","null","null","null","","180","200","260","200","36000","52000","[2,3]","491.1448303891732","107.2835647976079","479.5586994592816"
"","canvas-keyboard-response","74","113856","0.0-6.0-5.9","512","","","","","make choice","2833","3","","","catch","sh","sw","l","225","180","158","225","237","252","spektor","null","null","null","null","null","null","null","null","null","null","null","","180","200","260","200","36000","52000","[2,3]","","",""
"","canvas-keyboard-response","75","113875","0.0-6.0-6.9","512","","","","","clear_screen","null","null","","","catch","sh","sw","l","225","180","158","225","237","252","spektor","null","null","null","null","null","null","null","null","null","null","null","","180","200","260","200","36000","52000","[2,3]","","",""
"","canvas-keyboard-response","76","114076","0.0-6.0-0.10","512","","","","","pre trial waiting period","null","null","","","critical","d","t","c","220.0396","154.6796","240","164","164","240","spektor","0.14","w","240","164","164","240","220.0396","154.6796","39360","39360","34035.6388","td","null","null","null","null","null","null","[2,1]","526.5812140633653","213.36365141433157","491.44057878770997"
"","canvas-keyboard-response","77","114099","0.0-6.0-1.10","512","","","","","clear_screen","null","null","","","critical","d","t","c","220.0396","154.6796","240","164","164","240","spektor","0.14","w","240","164","164","240","220.0396","154.6796","39360","39360","34035.6388","td","null","null","null","null","null","null","[2,1]","526.5812140633653","213.36365141433157","491.44057878770997"
"","canvas-keyboard-response","78","114606","0.0-6.0-2.10","512","","","","","rectangles no change","null","null","","","critical","d","t","c","220.0396","154.6796","240","164","164","240","spektor","0.14","w","240","164","164","240","220.0396","154.6796","39360","39360","34035.6388","td","null","null","null","null","null","null","[2,1]","526.5812140633653","213.36365141433157","491.44057878770997"
"","canvas-keyboard-response","79","115943","0.0-6.0-3.10","512","","","","","rectangles with change","null","null","","","critical","d","t","c","220.0396","154.6796","240","164","164","240","spektor","0.14","w","240","164","164","240","220.0396","154.6796","39360","39360","34035.6388","td","null","null","null","null","null","null","[2,1]","526.5812140633653","213.36365141433157","491.44057878770997"
"","canvas-keyboard-response","80","115963","0.0-6.0-4.10","512","","","","","clear_screen","null","null","","","critical","d","t","c","220.0396","154.6796","240","164","164","240","spektor","0.14","w","240","164","164","240","220.0396","154.6796","39360","39360","34035.6388","td","null","null","null","null","null","null","[2,1]","526.5812140633653","213.36365141433157","491.44057878770997"
"","canvas-keyboard-response","81","118126","0.0-6.0-5.10","512","","","","","make choice","2155","2","","","critical","d","t","c","220.0396","154.6796","240","164","164","240","spektor","0.14","w","240","164","164","240","220.0396","154.6796","39360","39360","34035.6388","td","null","null","null","null","null","null","[2,1]","","",""
"","canvas-keyboard-response","82","118143","0.0-6.0-6.10","512","","","","","clear_screen","null","null","","","critical","d","t","c","220.0396","154.6796","240","164","164","240","spektor","0.14","w","240","164","164","240","220.0396","154.6796","39360","39360","34035.6388","td","null","null","null","null","null","null","[2,1]","","",""
"","canvas-keyboard-response","83","118345","0.0-6.0-0.11","512","","","","","pre trial waiting period","null","null","","","critical","t","d","c","240","164","237.1485","162.6685","164","240","trueblood","0.02","w","240","164","164","240","237.1485","162.6685","39360","39360","38576.5967","dc","null","null","null","null","null","null","[2,3]","497.1039772192499","473.3040886748067","420.1370121744478"
"","canvas-keyboard-response","84","118364","0.0-6.0-1.11","512","","","","","clear_screen","null","null","","","critical","t","d","c","240","164","237.1485","162.6685","164","240","trueblood","0.02","w","240","164","164","240","237.1485","162.6685","39360","39360","38576.5967","dc","null","null","null","null","null","null","[2,3]","497.1039772192499","473.3040886748067","420.1370121744478"
"","canvas-keyboard-response","85","118873","0.0-6.0-2.11","512","","","","","rectangles no change","null","null","","","critical","t","d","c","240","164","237.1485","162.6685","164","240","trueblood","0.02","w","240","164","164","240","237.1485","162.6685","39360","39360","38576.5967","dc","null","null","null","null","null","null","[2,3]","497.1039772192499","473.3040886748067","420.1370121744478"
"","canvas-keyboard-response","86","120211","0.0-6.0-3.11","512","","","","","rectangles with change","null","null","","","critical","t","d","c","240","164","237.1485","162.6685","164","240","trueblood","0.02","w","240","164","164","240","237.1485","162.6685","39360","39360","38576.5967","dc","null","null","null","null","null","null","[2,3]","497.1039772192499","473.3040886748067","420.1370121744478"
"","canvas-keyboard-response","87","120229","0.0-6.0-4.11","512","","","","","clear_screen","null","null","","","critical","t","d","c","240","164","237.1485","162.6685","164","240","trueblood","0.02","w","240","164","164","240","237.1485","162.6685","39360","39360","38576.5967","dc","null","null","null","null","null","null","[2,3]","497.1039772192499","473.3040886748067","420.1370121744478"
"","canvas-keyboard-response","88","120896","0.0-6.0-5.11","512","","","","","make choice","660","2","","","critical","t","d","c","240","164","237.1485","162.6685","164","240","trueblood","0.02","w","240","164","164","240","237.1485","162.6685","39360","39360","38576.5967","dc","null","null","null","null","null","null","[2,3]","","",""
"","canvas-keyboard-response","89","120914","0.0-6.0-6.11","512","","","","","clear_screen","null","null","","","critical","t","d","c","240","164","237.1485","162.6685","164","240","trueblood","0.02","w","240","164","164","240","237.1485","162.6685","39360","39360","38576.5967","dc","null","null","null","null","null","null","[2,3]","","",""
"","canvas-keyboard-response","90","121115","0.0-6.0-0.12","512","","","","","pre trial waiting period","null","null","","","catch","l","sw","sh","235","209","171","234","221","188","spektor","null","null","null","null","null","null","null","null","null","null","null","","180","200","260","200","36000","52000","[1,2]","512.9516167099596","124.02350912785707","493.28170698298794"
"","canvas-keyboard-response","91","121136","0.0-6.0-1.12","512","","","","","clear_screen","null","null","","","catch","l","sw","sh","235","209","171","234","221","188","spektor","null","null","null","null","null","null","null","null","null","null","null","","180","200","260","200","36000","52000","[1,2]","512.9516167099596","124.02350912785707","493.28170698298794"
"","canvas-keyboard-response","92","121644","0.0-6.0-2.12","512","","","","","rectangles no change","null","null","","","catch","l","sw","sh","235","209","171","234","221","188","spektor","null","null","null","null","null","null","null","null","null","null","null","","180","200","260","200","36000","52000","[1,2]","512.9516167099596","124.02350912785707","493.28170698298794"
"","canvas-keyboard-response","93","122982","0.0-6.0-3.12","512","","","","","rectangles with change","null","null","","","catch","l","sw","sh","235","209","171","234","221","188","spektor","null","null","null","null","null","null","null","null","null","null","null","","180","200","260","200","36000","52000","[1,2]","512.9516167099596","124.02350912785707","493.28170698298794"
"","canvas-keyboard-response","94","123003","0.0-6.0-4.12","512","","","","","clear_screen","null","null","","","catch","l","sw","sh","235","209","171","234","221","188","spektor","null","null","null","null","null","null","null","null","null","null","null","","180","200","260","200","36000","52000","[1,2]","512.9516167099596","124.02350912785707","493.28170698298794"
"","canvas-keyboard-response","95","124848","0.0-6.0-5.12","512","","","","","make choice","1835","1","","","catch","l","sw","sh","235","209","171","234","221","188","spektor","null","null","null","null","null","null","null","null","null","null","null","","180","200","260","200","36000","52000","[1,2]","","",""
"","canvas-keyboard-response","96","124866","0.0-6.0-6.12","512","","","","","clear_screen","null","null","","","catch","l","sw","sh","235","209","171","234","221","188","spektor","null","null","null","null","null","null","null","null","null","null","null","","180","200","260","200","36000","52000","[1,2]","","",""
"","canvas-keyboard-response","97","125067","0.0-6.0-0.13","512","","","","","pre trial waiting period","null","null","","","catch","sh","sw","l","180","211","180","173","281","160","trueblood","null","null","null","null","null","null","null","null","null","null","null","","180","200","260","200","36000","52000","[1,3]","455.5821039471509","499.638835269349","518.7253060765142"
"","canvas-keyboard-response","98","125090","0.0-6.0-1.13","512","","","","","clear_screen","null","null","","","catch","sh","sw","l","180","211","180","173","281","160","trueblood","null","null","null","null","null","null","null","null","null","null","null","","180","200","260","200","36000","52000","[1,3]","455.5821039471509","499.638835269349","518.7253060765142"
"","canvas-keyboard-response","99","125597","0.0-6.0-2.13","512","","","","","rectangles no change","null","null","","","catch","sh","sw","l","180","211","180","173","281","160","trueblood","null","null","null","null","null","null","null","null","null","null","null","","180","200","260","200","36000","52000","[1,3]","455.5821039471509","499.638835269349","518.7253060765142"
"","canvas-keyboard-response","100","126933","0.0-6.0-3.13","512","","","","","rectangles with change","null","null","","","catch","sh","sw","l","180","211","180","173","281","160","trueblood","null","null","null","null","null","null","null","null","null","null","null","","180","200","260","200","36000","52000","[1,3]","455.5821039471509","499.638835269349","518.7253060765142"
"","canvas-keyboard-response","101","126953","0.0-6.0-4.13","512","","","","","clear_screen","null","null","","","catch","sh","sw","l","180","211","180","173","281","160","trueblood","null","null","null","null","null","null","null","null","null","null","null","","180","200","260","200","36000","52000","[1,3]","455.5821039471509","499.638835269349","518.7253060765142"
"","canvas-keyboard-response","102","127032","0.0-6.0-5.13","512","","","","","make choice","73","3","","","catch","sh","sw","l","180","211","180","173","281","160","trueblood","null","null","null","null","null","null","null","null","null","null","null","","180","200","260","200","36000","52000","[1,3]","","",""
"","canvas-keyboard-response","103","127051","0.0-6.0-6.13","512","","","","","clear_screen","null","null","","","catch","sh","sw","l","180","211","180","173","281","160","trueblood","null","null","null","null","null","null","null","null","null","null","null","","180","200","260","200","36000","52000","[1,3]","","",""
"","canvas-keyboard-response","104","127252","0.0-6.0-0.14","512","","","","","pre trial waiting period","null","null","","","catch","l","sh","sw","178","248","180","166","167","171","trueblood","null","null","null","null","null","null","null","null","null","null","null","","180","200","260","200","36000","52000","[1,2]","463.6628556433342","493.80708102818545","496.66015719898206"
"","canvas-keyboard-response","105","127273","0.0-6.0-1.14","512","","","","","clear_screen","null","null","","","catch","l","sh","sw","178","248","180","166","167","171","trueblood","null","null","null","null","null","null","null","null","null","null","null","","180","200","260","200","36000","52000","[1,2]","463.6628556433342","493.80708102818545","496.66015719898206"
"","canvas-keyboard-response","106","127780","0.0-6.0-2.14","512","","","","","rectangles no change","null","null","","","catch","l","sh","sw","178","248","180","166","167","171","trueblood","null","null","null","null","null","null","null","null","null","null","null","","180","200","260","200","36000","52000","[1,2]","463.6628556433342","493.80708102818545","496.66015719898206"
"","canvas-keyboard-response","107","129116","0.0-6.0-3.14","512","","","","","rectangles with change","null","null","","","catch","l","sh","sw","178","248","180","166","167","171","trueblood","null","null","null","null","null","null","null","null","null","null","null","","180","200","260","200","36000","52000","[1,2]","463.6628556433342","493.80708102818545","496.66015719898206"
"","canvas-keyboard-response","108","129139","0.0-6.0-4.14","512","","","","","clear_screen","null","null","","","catch","l","sh","sw","178","248","180","166","167","171","trueblood","null","null","null","null","null","null","null","null","null","null","null","","180","200","260","200","36000","52000","[1,2]","463.6628556433342","493.80708102818545","496.66015719898206"
"","canvas-keyboard-response","109","129399","0.0-6.0-5.14","512","","","","","make choice","253","1","","","catch","l","sh","sw","178","248","180","166","167","171","trueblood","null","null","null","null","null","null","null","null","null","null","null","","180","200","260","200","36000","52000","[1,2]","","",""
"","canvas-keyboard-response","110","129419","0.0-6.0-6.14","512","","","","","clear_screen","null","null","","","catch","l","sh","sw","178","248","180","166","167","171","trueblood","null","null","null","null","null","null","null","null","null","null","null","","180","200","260","200","36000","52000","[1,2]","","",""
"","canvas-keyboard-response","111","129620","0.0-6.0-0.15","512","","","","","pre trial waiting period","null","null","","","critical","c","t","d","164","240","240","164","220.0396","154.6796","trueblood","0.14","w","240","164","164","240","220.0396","154.6796","39360","39360","34035.6388","dc","null","null","null","null","null","null","[3,1]","419.19010013495426","513.3199568483013","516.894665323928"
"","canvas-keyboard-response","112","129640","0.0-6.0-1.15","512","","","","","clear_screen","null","null","","","critical","c","t","d","164","240","240","164","220.0396","154.6796","trueblood","0.14","w","240","164","164","240","220.0396","154.6796","39360","39360","34035.6388","dc","null","null","null","null","null","null","[3,1]","419.19010013495426","513.3199568483013","516.894665323928"
"","canvas-keyboard-response","113","130146","0.0-6.0-2.15","512","","","","","rectangles no change","null","null","","","critical","c","t","d","164","240","240","164","220.0396","154.6796","trueblood","0.14","w","240","164","164","240","220.0396","154.6796","39360","39360","34035.6388","dc","null","null","null","null","null","null","[3,1]","419.19010013495426","513.3199568483013","516.894665323928"
"","canvas-keyboard-response","114","131483","0.0-6.0-3.15","512","","","","","rectangles with change","null","null","","","critical","c","t","d","164","240","240","164","220.0396","154.6796","trueblood","0.14","w","240","164","164","240","220.0396","154.6796","39360","39360","34035.6388","dc","null","null","null","null","null","null","[3,1]","419.19010013495426","513.3199568483013","516.894665323928"
"","canvas-keyboard-response","115","131503","0.0-6.0-4.15","512","","","","","clear_screen","null","null","","","critical","c","t","d","164","240","240","164","220.0396","154.6796","trueblood","0.14","w","240","164","164","240","220.0396","154.6796","39360","39360","34035.6388","dc","null","null","null","null","null","null","[3,1]","419.19010013495426","513.3199568483013","516.894665323928"
"","canvas-keyboard-response","116","132263","0.0-6.0-5.15","512","","","","","make choice","753","3","","","critical","c","t","d","164","240","240","164","220.0396","154.6796","trueblood","0.14","w","240","164","164","240","220.0396","154.6796","39360","39360","34035.6388","dc","null","null","null","null","null","null","[3,1]","","",""
"","canvas-keyboard-response","117","132281","0.0-6.0-6.15","512","","","","","clear_screen","null","null","","","critical","c","t","d","164","240","240","164","220.0396","154.6796","trueblood","0.14","w","240","164","164","240","220.0396","154.6796","39360","39360","34035.6388","dc","null","null","null","null","null","null","[3,1]","","",""
"","canvas-keyboard-response","118","132483","0.0-6.0-0.16","512","","","","","pre trial waiting period","null","null","","","critical","d","t","c","154.6796","220.0396","164","240","240","164","trueblood","0.14","h","164","240","240","164","154.6796","220.0396","39360","39360","34035.6388","dc","null","null","null","null","null","null","[1,3]","466.04730369565794","431.3372767403523","493.00819489114167"
"","canvas-keyboard-response","119","132502","0.0-6.0-1.16","512","","","","","clear_screen","null","null","","","critical","d","t","c","154.6796","220.0396","164","240","240","164","trueblood","0.14","h","164","240","240","164","154.6796","220.0396","39360","39360","34035.6388","dc","null","null","null","null","null","null","[1,3]","466.04730369565794","431.3372767403523","493.00819489114167"
"","canvas-keyboard-response","120","133010","0.0-6.0-2.16","512","","","","","rectangles no change","null","null","","","critical","d","t","c","154.6796","220.0396","164","240","240","164","trueblood","0.14","h","164","240","240","164","154.6796","220.0396","39360","39360","34035.6388","dc","null","null","null","null","null","null","[1,3]","466.04730369565794","431.3372767403523","493.00819489114167"
"","canvas-keyboard-response","121","134345","0.0-6.0-3.16","512","","","","","rectangles with change","null","null","","","critical","d","t","c","154.6796","220.0396","164","240","240","164","trueblood","0.14","h","164","240","240","164","154.6796","220.0396","39360","39360","34035.6388","dc","null","null","null","null","null","null","[1,3]","466.04730369565794","431.3372767403523","493.00819489114167"
"","canvas-keyboard-response","122","134366","0.0-6.0-4.16","512","","","","","clear_screen","null","null","","","critical","d","t","c","154.6796","220.0396","164","240","240","164","trueblood","0.14","h","164","240","240","164","154.6796","220.0396","39360","39360","34035.6388","dc","null","null","null","null","null","null","[1,3]","466.04730369565794","431.3372767403523","493.00819489114167"
"","canvas-keyboard-response","123","134848","0.0-6.0-5.16","512","","","","","make choice","475","3","","","critical","d","t","c","154.6796","220.0396","164","240","240","164","trueblood","0.14","h","164","240","240","164","154.6796","220.0396","39360","39360","34035.6388","dc","null","null","null","null","null","null","[1,3]","","",""
"","canvas-keyboard-response","124","134867","0.0-6.0-6.16","512","","","","","clear_screen","null","null","","","critical","d","t","c","154.6796","220.0396","164","240","240","164","trueblood","0.14","h","164","240","240","164","154.6796","220.0396","39360","39360","34035.6388","dc","null","null","null","null","null","null","[1,3]","","",""
"","canvas-keyboard-response","125","135068","0.0-6.0-0.17","512","","","","","pre trial waiting period","null","null","","","critical","t","c","d","240","164","164","240","227.1683","158.0083","spektor","0.09","w","240","164","164","240","227.1683","158.0083","39360","39360","35894.4834","tc","null","null","null","null","null","null","[1,2]","494.40657810842436","127.72637071560285","517.6568487332677"
"","canvas-keyboard-response","126","135088","0.0-6.0-1.17","512","","","","","clear_screen","null","null","","","critical","t","c","d","240","164","164","240","227.1683","158.0083","spektor","0.09","w","240","164","164","240","227.1683","158.0083","39360","39360","35894.4834","tc","null","null","null","null","null","null","[1,2]","494.40657810842436","127.72637071560285","517.6568487332677"
"","canvas-keyboard-response","127","135597","0.0-6.0-2.17","512","","","","","rectangles no change","null","null","","","critical","t","c","d","240","164","164","240","227.1683","158.0083","spektor","0.09","w","240","164","164","240","227.1683","158.0083","39360","39360","35894.4834","tc","null","null","null","null","null","null","[1,2]","494.40657810842436","127.72637071560285","517.6568487332677"
"","canvas-keyboard-response","128","136934","0.0-6.0-3.17","512","","","","","rectangles with change","null","null","","","critical","t","c","d","240","164","164","240","227.1683","158.0083","spektor","0.09","w","240","164","164","240","227.1683","158.0083","39360","39360","35894.4834","tc","null","null","null","null","null","null","[1,2]","494.40657810842436","127.72637071560285","517.6568487332677"
"","canvas-keyboard-response","129","136958","0.0-6.0-4.17","512","","","","","clear_screen","null","null","","","critical","t","c","d","240","164","164","240","227.1683","158.0083","spektor","0.09","w","240","164","164","240","227.1683","158.0083","39360","39360","35894.4834","tc","null","null","null","null","null","null","[1,2]","494.40657810842436","127.72637071560285","517.6568487332677"
"","canvas-keyboard-response","130","137352","0.0-6.0-5.17","512","","","","","make choice","386","1","","","critical","t","c","d","240","164","164","240","227.1683","158.0083","spektor","0.09","w","240","164","164","240","227.1683","158.0083","39360","39360","35894.4834","tc","null","null","null","null","null","null","[1,2]","","",""
"","canvas-keyboard-response","131","137369","0.0-6.0-6.17","512","","","","","clear_screen","null","null","","","critical","t","c","d","240","164","164","240","227.1683","158.0083","spektor","0.09","w","240","164","164","240","227.1683","158.0083","39360","39360","35894.4834","tc","null","null","null","null","null","null","[1,2]","","",""
"","canvas-keyboard-response","132","137571","0.0-6.0-0.18","512","","","","","pre trial waiting period","null","null","","","critical","c","d","t","164","240","220.0396","154.6796","240","164","spektor","0.14","w","240","164","164","240","220.0396","154.6796","39360","39360","34035.6388","dc","null","null","null","null","null","null","[2,1]","500.7486106165436","219.71391608659968","495.70444097931573"
"","canvas-keyboard-response","133","137593","0.0-6.0-1.18","512","","","","","clear_screen","null","null","","","critical","c","d","t","164","240","220.0396","154.6796","240","164","spektor","0.14","w","240","164","164","240","220.0396","154.6796","39360","39360","34035.6388","dc","null","null","null","null","null","null","[2,1]","500.7486106165436","219.71391608659968","495.70444097931573"
"","canvas-keyboard-response","134","138100","0.0-6.0-2.18","512","","","","","rectangles no change","null","null","","","critical","c","d","t","164","240","220.0396","154.6796","240","164","spektor","0.14","w","240","164","164","240","220.0396","154.6796","39360","39360","34035.6388","dc","null","null","null","null","null","null","[2,1]","500.7486106165436","219.71391608659968","495.70444097931573"
"","canvas-keyboard-response","135","139438","0.0-6.0-3.18","512","","","","","rectangles with change","null","null","","","critical","c","d","t","164","240","220.0396","154.6796","240","164","spektor","0.14","w","240","164","164","240","220.0396","154.6796","39360","39360","34035.6388","dc","null","null","null","null","null","null","[2,1]","500.7486106165436","219.71391608659968","495.70444097931573"
"","canvas-keyboard-response","136","139457","0.0-6.0-4.18","512","","","","","clear_screen","null","null","","","critical","c","d","t","164","240","220.0396","154.6796","240","164","spektor","0.14","w","240","164","164","240","220.0396","154.6796","39360","39360","34035.6388","dc","null","null","null","null","null","null","[2,1]","500.7486106165436","219.71391608659968","495.70444097931573"
"","canvas-keyboard-response","137","140191","0.0-6.0-5.18","512","","","","","make choice","728","1","","","critical","c","d","t","164","240","220.0396","154.6796","240","164","spektor","0.14","w","240","164","164","240","220.0396","154.6796","39360","39360","34035.6388","dc","null","null","null","null","null","null","[2,1]","","",""
"","canvas-keyboard-response","138","140211","0.0-6.0-6.18","512","","","","","clear_screen","null","null","","","critical","c","d","t","164","240","220.0396","154.6796","240","164","spektor","0.14","w","240","164","164","240","220.0396","154.6796","39360","39360","34035.6388","dc","null","null","null","null","null","null","[2,1]","","",""
"","canvas-keyboard-response","139","140413","0.0-6.0-0.19","512","","","","","pre trial waiting period","null","null","","","critical","d","c","t","220.0396","154.6796","164","240","240","164","spektor","0.14","w","240","164","164","240","220.0396","154.6796","39360","39360","34035.6388","tc","null","null","null","null","null","null","[3,2]","514.5758200808169","128.16158257816534","520.6371215321878"
"","canvas-keyboard-response","140","140437","0.0-6.0-1.19","512","","","","","clear_screen","null","null","","","critical","d","c","t","220.0396","154.6796","164","240","240","164","spektor","0.14","w","240","164","164","240","220.0396","154.6796","39360","39360","34035.6388","tc","null","null","null","null","null","null","[3,2]","514.5758200808169","128.16158257816534","520.6371215321878"
"","canvas-keyboard-response","141","140944","0.0-6.0-2.19","512","","","","","rectangles no change","null","null","","","critical","d","c","t","220.0396","154.6796","164","240","240","164","spektor","0.14","w","240","164","164","240","220.0396","154.6796","39360","39360","34035.6388","tc","null","null","null","null","null","null","[3,2]","514.5758200808169","128.16158257816534","520.6371215321878"
"","canvas-keyboard-response","142","142280","0.0-6.0-3.19","512","","","","","rectangles with change","null","null","","","critical","d","c","t","220.0396","154.6796","164","240","240","164","spektor","0.14","w","240","164","164","240","220.0396","154.6796","39360","39360","34035.6388","tc","null","null","null","null","null","null","[3,2]","514.5758200808169","128.16158257816534","520.6371215321878"
"","canvas-keyboard-response","143","142300","0.0-6.0-4.19","512","","","","","clear_screen","null","null","","","critical","d","c","t","220.0396","154.6796","164","240","240","164","spektor","0.14","w","240","164","164","240","220.0396","154.6796","39360","39360","34035.6388","tc","null","null","null","null","null","null","[3,2]","514.5758200808169","128.16158257816534","520.6371215321878"
"","canvas-keyboard-response","144","145168","0.0-6.0-5.19","512","","","","","make choice","2859","3","","","critical","d","c","t","220.0396","154.6796","164","240","240","164","spektor","0.14","w","240","164","164","240","220.0396","154.6796","39360","39360","34035.6388","tc","null","null","null","null","null","null","[3,2]","","",""
"","canvas-keyboard-response","145","145187","0.0-6.0-6.19","512","","","","","clear_screen","null","null","","","critical","d","c","t","220.0396","154.6796","164","240","240","164","spektor","0.14","w","240","164","164","240","220.0396","154.6796","39360","39360","34035.6388","tc","null","null","null","null","null","null","[3,2]","","",""
"","canvas-keyboard-response","146","145388","0.0-6.0-0.20","512","","","","","pre trial waiting period","null","null","","","critical","d","c","t","240","164","164","240","240","164","trueblood","0","w","240","164","164","240","240","164","39360","39360","39360","dc","null","null","null","null","null","null","[1,2]","509.4376172615094","445.3983825971238","517.3769541817269"
"","canvas-keyboard-response","147","145411","0.0-6.0-1.20","512","","","","","clear_screen","null","null","","","critical","d","c","t","240","164","164","240","240","164","trueblood","0","w","240","164","164","240","240","164","39360","39360","39360","dc","null","null","null","null","null","null","[1,2]","509.4376172615094","445.3983825971238","517.3769541817269"
"","canvas-keyboard-response","148","145916","0.0-6.0-2.20","512","","","","","rectangles no change","null","null","","","critical","d","c","t","240","164","164","240","240","164","trueblood","0","w","240","164","164","240","240","164","39360","39360","39360","dc","null","null","null","null","null","null","[1,2]","509.4376172615094","445.3983825971238","517.3769541817269"
"","canvas-keyboard-response","149","147257","0.0-6.0-3.20","512","","","","","rectangles with change","null","null","","","critical","d","c","t","240","164","164","240","240","164","trueblood","0","w","240","164","164","240","240","164","39360","39360","39360","dc","null","null","null","null","null","null","[1,2]","509.4376172615094","445.3983825971238","517.3769541817269"
"","canvas-keyboard-response","150","147278","0.0-6.0-4.20","512","","","","","clear_screen","null","null","","","critical","d","c","t","240","164","164","240","240","164","trueblood","0","w","240","164","164","240","240","164","39360","39360","39360","dc","null","null","null","null","null","null","[1,2]","509.4376172615094","445.3983825971238","517.3769541817269"
"","canvas-keyboard-response","151","148151","0.0-6.0-5.20","512","","","","","make choice","867","2","","","critical","d","c","t","240","164","164","240","240","164","trueblood","0","w","240","164","164","240","240","164","39360","39360","39360","dc","null","null","null","null","null","null","[1,2]","","",""
"","canvas-keyboard-response","152","148174","0.0-6.0-6.20","512","","","","","clear_screen","null","null","","","critical","d","c","t","240","164","164","240","240","164","trueblood","0","w","240","164","164","240","240","164","39360","39360","39360","dc","null","null","null","null","null","null","[1,2]","","",""
"","canvas-keyboard-response","153","148374","0.0-6.0-0.21","512","","","","","pre trial waiting period","null","null","","","critical","t","d","c","240","164","237.1485","162.6685","164","240","trueblood","0.02","w","240","164","164","240","237.1485","162.6685","39360","39360","38576.5967","tc","null","null","null","null","null","null","[1,3]","506.9009858346495","472.97141904442805","426.9892923781903"
"","canvas-keyboard-response","154","148395","0.0-6.0-1.21","512","","","","","clear_screen","null","null","","","critical","t","d","c","240","164","237.1485","162.6685","164","240","trueblood","0.02","w","240","164","164","240","237.1485","162.6685","39360","39360","38576.5967","tc","null","null","null","null","null","null","[1,3]","506.9009858346495","472.97141904442805","426.9892923781903"
"","canvas-keyboard-response","155","148905","0.0-6.0-2.21","512","","","","","rectangles no change","null","null","","","critical","t","d","c","240","164","237.1485","162.6685","164","240","trueblood","0.02","w","240","164","164","240","237.1485","162.6685","39360","39360","38576.5967","tc","null","null","null","null","null","null","[1,3]","506.9009858346495","472.97141904442805","426.9892923781903"
"","canvas-keyboard-response","156","150243","0.0-6.0-3.21","512","","","","","rectangles with change","null","null","","","critical","t","d","c","240","164","237.1485","162.6685","164","240","trueblood","0.02","w","240","164","164","240","237.1485","162.6685","39360","39360","38576.5967","tc","null","null","null","null","null","null","[1,3]","506.9009858346495","472.97141904442805","426.9892923781903"
"","canvas-keyboard-response","157","150263","0.0-6.0-4.21","512","","","","","clear_screen","null","null","","","critical","t","d","c","240","164","237.1485","162.6685","164","240","trueblood","0.02","w","240","164","164","240","237.1485","162.6685","39360","39360","38576.5967","tc","null","null","null","null","null","null","[1,3]","506.9009858346495","472.97141904442805","426.9892923781903"
"","canvas-keyboard-response","158","151528","0.0-6.0-5.21","512","","","","","make choice","1259","3","","","critical","t","d","c","240","164","237.1485","162.6685","164","240","trueblood","0.02","w","240","164","164","240","237.1485","162.6685","39360","39360","38576.5967","tc","null","null","null","null","null","null","[1,3]","","",""
"","canvas-keyboard-response","159","151547","0.0-6.0-6.21","512","","","","","clear_screen","null","null","","","critical","t","d","c","240","164","237.1485","162.6685","164","240","trueblood","0.02","w","240","164","164","240","237.1485","162.6685","39360","39360","38576.5967","tc","null","null","null","null","null","null","[1,3]","","",""
"","canvas-keyboard-response","160","151748","0.0-6.0-0.22","512","","","","","pre trial waiting period","null","null","","","critical","c","d","t","240","164","160.6713","232.8713","164","240","trueblood","0.05","h","164","240","240","164","160.6713","232.8713","39360","39360","37415.7294","dc","null","null","null","null","null","null","[2,1]","495.0064265419467","465.67291212431866","442.51081951675195"
"","canvas-keyboard-response","161","151768","0.0-6.0-1.22","512","","","","","clear_screen","null","null","","","critical","c","d","t","240","164","160.6713","232.8713","164","240","trueblood","0.05","h","164","240","240","164","160.6713","232.8713","39360","39360","37415.7294","dc","null","null","null","null","null","null","[2,1]","495.0064265419467","465.67291212431866","442.51081951675195"
"","canvas-keyboard-response","162","152276","0.0-6.0-2.22","512","","","","","rectangles no change","null","null","","","critical","c","d","t","240","164","160.6713","232.8713","164","240","trueblood","0.05","h","164","240","240","164","160.6713","232.8713","39360","39360","37415.7294","dc","null","null","null","null","null","null","[2,1]","495.0064265419467","465.67291212431866","442.51081951675195"
"","canvas-keyboard-response","163","153613","0.0-6.0-3.22","512","","","","","rectangles with change","null","null","","","critical","c","d","t","240","164","160.6713","232.8713","164","240","trueblood","0.05","h","164","240","240","164","160.6713","232.8713","39360","39360","37415.7294","dc","null","null","null","null","null","null","[2,1]","495.0064265419467","465.67291212431866","442.51081951675195"
"","canvas-keyboard-response","164","153632","0.0-6.0-4.22","512","","","","","clear_screen","null","null","","","critical","c","d","t","240","164","160.6713","232.8713","164","240","trueblood","0.05","h","164","240","240","164","160.6713","232.8713","39360","39360","37415.7294","dc","null","null","null","null","null","null","[2,1]","495.0064265419467","465.67291212431866","442.51081951675195"
"","canvas-keyboard-response","165","154336","0.0-6.0-5.22","512","","","","","make choice","698","1","","","critical","c","d","t","240","164","160.6713","232.8713","164","240","trueblood","0.05","h","164","240","240","164","160.6713","232.8713","39360","39360","37415.7294","dc","null","null","null","null","null","null","[2,1]","","",""
"","canvas-keyboard-response","166","154357","0.0-6.0-6.22","512","","","","","clear_screen","null","null","","","critical","c","d","t","240","164","160.6713","232.8713","164","240","trueblood","0.05","h","164","240","240","164","160.6713","232.8713","39360","39360","37415.7294","dc","null","null","null","null","null","null","[2,1]","","",""
"","canvas-keyboard-response","167","154557","0.0-6.0-0.23","512","","","","","pre trial waiting period","null","null","","","critical","t","d","c","164","240","158.0083","227.1683","240","164","spektor","0.09","h","164","240","240","164","158.0083","227.1683","39360","39360","35894.4834","tc","null","null","null","null","null","null","[1,3]","478.37125988598405","146.77203129834248","542.5722922049929"
"","canvas-keyboard-response","168","154581","0.0-6.0-1.23","512","","","","","clear_screen","null","null","","","critical","t","d","c","164","240","158.0083","227.1683","240","164","spektor","0.09","h","164","240","240","164","158.0083","227.1683","39360","39360","35894.4834","tc","null","null","null","null","null","null","[1,3]","478.37125988598405","146.77203129834248","542.5722922049929"
"","canvas-keyboard-response","169","155092","0.0-6.0-2.23","512","","","","","rectangles no change","null","null","","","critical","t","d","c","164","240","158.0083","227.1683","240","164","spektor","0.09","h","164","240","240","164","158.0083","227.1683","39360","39360","35894.4834","tc","null","null","null","null","null","null","[1,3]","478.37125988598405","146.77203129834248","542.5722922049929"
"","canvas-keyboard-response","170","156428","0.0-6.0-3.23","512","","","","","rectangles with change","null","null","","","critical","t","d","c","164","240","158.0083","227.1683","240","164","spektor","0.09","h","164","240","240","164","158.0083","227.1683","39360","39360","35894.4834","tc","null","null","null","null","null","null","[1,3]","478.37125988598405","146.77203129834248","542.5722922049929"
"","canvas-keyboard-response","171","156448","0.0-6.0-4.23","512","","","","","clear_screen","null","null","","","critical","t","d","c","164","240","158.0083","227.1683","240","164","spektor","0.09","h","164","240","240","164","158.0083","227.1683","39360","39360","35894.4834","tc","null","null","null","null","null","null","[1,3]","478.37125988598405","146.77203129834248","542.5722922049929"
"","canvas-keyboard-response","172","156808","0.0-6.0-5.23","512","","","","","make choice","354","3","","","critical","t","d","c","164","240","158.0083","227.1683","240","164","spektor","0.09","h","164","240","240","164","158.0083","227.1683","39360","39360","35894.4834","tc","null","null","null","null","null","null","[1,3]","","",""
"","canvas-keyboard-response","173","156829","0.0-6.0-6.23","512","","","","","clear_screen","null","null","","","critical","t","d","c","164","240","158.0083","227.1683","240","164","spektor","0.09","h","164","240","240","164","158.0083","227.1683","39360","39360","35894.4834","tc","null","null","null","null","null","null","[1,3]","","",""
"","canvas-keyboard-response","174","157030","0.0-6.0-0.24","512","","","","","pre trial waiting period","null","null","","","critical","c","d","t","164","240","227.1683","158.0083","240","164","trueblood","0.09","w","240","164","164","240","227.1683","158.0083","39360","39360","35894.4834","dc","null","null","null","null","null","null","[2,1]","433.39478641903","512.4295504282471","476.38562420238765"
"","canvas-keyboard-response","175","157050","0.0-6.0-1.24","512","","","","","clear_screen","null","null","","","critical","c","d","t","164","240","227.1683","158.0083","240","164","trueblood","0.09","w","240","164","164","240","227.1683","158.0083","39360","39360","35894.4834","dc","null","null","null","null","null","null","[2,1]","433.39478641903","512.4295504282471","476.38562420238765"
"","canvas-keyboard-response","176","157558","0.0-6.0-2.24","512","","","","","rectangles no change","null","null","","","critical","c","d","t","164","240","227.1683","158.0083","240","164","trueblood","0.09","w","240","164","164","240","227.1683","158.0083","39360","39360","35894.4834","dc","null","null","null","null","null","null","[2,1]","433.39478641903","512.4295504282471","476.38562420238765"
"","canvas-keyboard-response","177","158898","0.0-6.0-3.24","512","","","","","rectangles with change","null","null","","","critical","c","d","t","164","240","227.1683","158.0083","240","164","trueblood","0.09","w","240","164","164","240","227.1683","158.0083","39360","39360","35894.4834","dc","null","null","null","null","null","null","[2,1]","433.39478641903","512.4295504282471","476.38562420238765"
"","canvas-keyboard-response","178","158920","0.0-6.0-4.24","512","","","","","clear_screen","null","null","","","critical","c","d","t","164","240","227.1683","158.0083","240","164","trueblood","0.09","w","240","164","164","240","227.1683","158.0083","39360","39360","35894.4834","dc","null","null","null","null","null","null","[2,1]","433.39478641903","512.4295504282471","476.38562420238765"
"","canvas-keyboard-response","179","159847","0.0-6.0-5.24","512","","","","","make choice","922","2","","","critical","c","d","t","164","240","227.1683","158.0083","240","164","trueblood","0.09","w","240","164","164","240","227.1683","158.0083","39360","39360","35894.4834","dc","null","null","null","null","null","null","[2,1]","","",""
"","canvas-keyboard-response","180","159867","0.0-6.0-6.24","512","","","","","clear_screen","null","null","","","critical","c","d","t","164","240","227.1683","158.0083","240","164","trueblood","0.09","w","240","164","164","240","227.1683","158.0083","39360","39360","35894.4834","dc","null","null","null","null","null","null","[2,1]","","",""
"","canvas-keyboard-response","181","160068","0.0-6.0-0.25","512","","","","","pre trial waiting period","null","null","","","critical","t","c","d","240","164","164","240","232.8713","160.6713","spektor","0.05","w","240","164","164","240","232.8713","160.6713","39360","39360","37415.7294","tc","null","null","null","null","null","null","[1,2]","528.4766232451356","152.86613634689436","527.4454246047067"
"","canvas-keyboard-response","182","160087","0.0-6.0-1.25","512","","","","","clear_screen","null","null","","","critical","t","c","d","240","164","164","240","232.8713","160.6713","spektor","0.05","w","240","164","164","240","232.8713","160.6713","39360","39360","37415.7294","tc","null","null","null","null","null","null","[1,2]","528.4766232451356","152.86613634689436","527.4454246047067"
"","canvas-keyboard-response","183","160596","0.0-6.0-2.25","512","","","","","rectangles no change","null","null","","","critical","t","c","d","240","164","164","240","232.8713","160.6713","spektor","0.05","w","240","164","164","240","232.8713","160.6713","39360","39360","37415.7294","tc","null","null","null","null","null","null","[1,2]","528.4766232451356","152.86613634689436","527.4454246047067"
"","canvas-keyboard-response","184","161934","0.0-6.0-3.25","512","","","","","rectangles with change","null","null","","","critical","t","c","d","240","164","164","240","232.8713","160.6713","spektor","0.05","w","240","164","164","240","232.8713","160.6713","39360","39360","37415.7294","tc","null","null","null","null","null","null","[1,2]","528.4766232451356","152.86613634689436","527.4454246047067"
"","canvas-keyboard-response","185","161953","0.0-6.0-4.25","512","","","","","clear_screen","null","null","","","critical","t","c","d","240","164","164","240","232.8713","160.6713","spektor","0.05","w","240","164","164","240","232.8713","160.6713","39360","39360","37415.7294","tc","null","null","null","null","null","null","[1,2]","528.4766232451356","152.86613634689436","527.4454246047067"
"","canvas-keyboard-response","186","162736","0.0-6.0-5.25","512","","","","","make choice","776","1","","","critical","t","c","d","240","164","164","240","232.8713","160.6713","spektor","0.05","w","240","164","164","240","232.8713","160.6713","39360","39360","37415.7294","tc","null","null","null","null","null","null","[1,2]","","",""
"","canvas-keyboard-response","187","162755","0.0-6.0-6.25","512","","","","","clear_screen","null","null","","","critical","t","c","d","240","164","164","240","232.8713","160.6713","spektor","0.05","w","240","164","164","240","232.8713","160.6713","39360","39360","37415.7294","tc","null","null","null","null","null","null","[1,2]","","",""
"","canvas-keyboard-response","188","162955","0.0-6.0-0.26","512","","","","","pre trial waiting period","null","null","","","critical","d","c","t","237.1485","162.6685","164","240","240","164","spektor","0.02","w","240","164","164","240","237.1485","162.6685","39360","39360","38576.5967","td","null","null","null","null","null","null","[3,1]","527.6510256676482","125.00844142174964","500.80803793374645"
"","canvas-keyboard-response","189","162978","0.0-6.0-1.26","512","","","","","clear_screen","null","null","","","critical","d","c","t","237.1485","162.6685","164","240","240","164","spektor","0.02","w","240","164","164","240","237.1485","162.6685","39360","39360","38576.5967","td","null","null","null","null","null","null","[3,1]","527.6510256676482","125.00844142174964","500.80803793374645"
"","canvas-keyboard-response","190","163486","0.0-6.0-2.26","512","","","","","rectangles no change","null","null","","","critical","d","c","t","237.1485","162.6685","164","240","240","164","spektor","0.02","w","240","164","164","240","237.1485","162.6685","39360","39360","38576.5967","td","null","null","null","null","null","null","[3,1]","527.6510256676482","125.00844142174964","500.80803793374645"
"","canvas-keyboard-response","191","164826","0.0-6.0-3.26","512","","","","","rectangles with change","null","null","","","critical","d","c","t","237.1485","162.6685","164","240","240","164","spektor","0.02","w","240","164","164","240","237.1485","162.6685","39360","39360","38576.5967","td","null","null","null","null","null","null","[3,1]","527.6510256676482","125.00844142174964","500.80803793374645"
"","canvas-keyboard-response","192","164848","0.0-6.0-4.26","512","","","","","clear_screen","null","null","","","critical","d","c","t","237.1485","162.6685","164","240","240","164","spektor","0.02","w","240","164","164","240","237.1485","162.6685","39360","39360","38576.5967","td","null","null","null","null","null","null","[3,1]","527.6510256676482","125.00844142174964","500.80803793374645"
"","canvas-keyboard-response","193","165575","0.0-6.0-5.26","512","","","","","make choice","721","3","","","critical","d","c","t","237.1485","162.6685","164","240","240","164","spektor","0.02","w","240","164","164","240","237.1485","162.6685","39360","39360","38576.5967","td","null","null","null","null","null","null","[3,1]","","",""
"","canvas-keyboard-response","194","165594","0.0-6.0-6.26","512","","","","","clear_screen","null","null","","","critical","d","c","t","237.1485","162.6685","164","240","240","164","spektor","0.02","w","240","164","164","240","237.1485","162.6685","39360","39360","38576.5967","td","null","null","null","null","null","null","[3,1]","","",""
"","canvas-keyboard-response","195","165795","0.0-6.0-0.27","512","","","","","pre trial waiting period","null","null","","","critical","d","c","t","227.1683","158.0083","164","240","240","164","trueblood","0.09","w","240","164","164","240","227.1683","158.0083","39360","39360","35894.4834","tc","null","null","null","null","null","null","[3,2]","498.38445964308846","456.4206885946833","501.57977349740247"
"","canvas-keyboard-response","196","165818","0.0-6.0-1.27","512","","","","","clear_screen","null","null","","","critical","d","c","t","227.1683","158.0083","164","240","240","164","trueblood","0.09","w","240","164","164","240","227.1683","158.0083","39360","39360","35894.4834","tc","null","null","null","null","null","null","[3,2]","498.38445964308846","456.4206885946833","501.57977349740247"
"","canvas-keyboard-response","197","166326","0.0-6.0-2.27","512","","","","","rectangles no change","null","null","","","critical","d","c","t","227.1683","158.0083","164","240","240","164","trueblood","0.09","w","240","164","164","240","227.1683","158.0083","39360","39360","35894.4834","tc","null","null","null","null","null","null","[3,2]","498.38445964308846","456.4206885946833","501.57977349740247"
"","canvas-keyboard-response","198","167664","0.0-6.0-3.27","512","","","","","rectangles with change","null","null","","","critical","d","c","t","227.1683","158.0083","164","240","240","164","trueblood","0.09","w","240","164","164","240","227.1683","158.0083","39360","39360","35894.4834","tc","null","null","null","null","null","null","[3,2]","498.38445964308846","456.4206885946833","501.57977349740247"
"","canvas-keyboard-response","199","167683","0.0-6.0-4.27","512","","","","","clear_screen","null","null","","","critical","d","c","t","227.1683","158.0083","164","240","240","164","trueblood","0.09","w","240","164","164","240","227.1683","158.0083","39360","39360","35894.4834","tc","null","null","null","null","null","null","[3,2]","498.38445964308846","456.4206885946833","501.57977349740247"
"","canvas-keyboard-response","200","168504","0.0-6.0-5.27","512","","","","","make choice","813","2","","","critical","d","c","t","227.1683","158.0083","164","240","240","164","trueblood","0.09","w","240","164","164","240","227.1683","158.0083","39360","39360","35894.4834","tc","null","null","null","null","null","null","[3,2]","","",""
"","canvas-keyboard-response","201","168522","0.0-6.0-6.27","512","","","","","clear_screen","null","null","","","critical","d","c","t","227.1683","158.0083","164","240","240","164","trueblood","0.09","w","240","164","164","240","227.1683","158.0083","39360","39360","35894.4834","tc","null","null","null","null","null","null","[3,2]","","",""
"","canvas-keyboard-response","202","168723","0.0-6.0-0.28","512","","","","","pre trial waiting period","null","null","","","critical","t","d","c","240","164","240","164","164","240","spektor","0","w","240","164","164","240","240","164","39360","39360","39360","td","null","null","null","null","null","null","[1,2]","503.25369149387996","209.17497993423856","470.3910360349089"
"","canvas-keyboard-response","203","168746","0.0-6.0-1.28","512","","","","","clear_screen","null","null","","","critical","t","d","c","240","164","240","164","164","240","spektor","0","w","240","164","164","240","240","164","39360","39360","39360","td","null","null","null","null","null","null","[1,2]","503.25369149387996","209.17497993423856","470.3910360349089"
"","canvas-keyboard-response","204","169252","0.0-6.0-2.28","512","","","","","rectangles no change","null","null","","","critical","t","d","c","240","164","240","164","164","240","spektor","0","w","240","164","164","240","240","164","39360","39360","39360","td","null","null","null","null","null","null","[1,2]","503.25369149387996","209.17497993423856","470.3910360349089"
"","canvas-keyboard-response","205","170593","0.0-6.0-3.28","512","","","","","rectangles with change","null","null","","","critical","t","d","c","240","164","240","164","164","240","spektor","0","w","240","164","164","240","240","164","39360","39360","39360","td","null","null","null","null","null","null","[1,2]","503.25369149387996","209.17497993423856","470.3910360349089"
"","canvas-keyboard-response","206","170615","0.0-6.0-4.28","512","","","","","clear_screen","null","null","","","critical","t","d","c","240","164","240","164","164","240","spektor","0","w","240","164","164","240","240","164","39360","39360","39360","td","null","null","null","null","null","null","[1,2]","503.25369149387996","209.17497993423856","470.3910360349089"
"","canvas-keyboard-response","207","170655","0.0-6.0-5.28","512","","","","","make choice","30","2","","","critical","t","d","c","240","164","240","164","164","240","spektor","0","w","240","164","164","240","240","164","39360","39360","39360","td","null","null","null","null","null","null","[1,2]","","",""
"","canvas-keyboard-response","208","170670","0.0-6.0-6.28","512","","","","","clear_screen","null","null","","","critical","t","d","c","240","164","240","164","164","240","spektor","0","w","240","164","164","240","240","164","39360","39360","39360","td","null","null","null","null","null","null","[1,2]","","",""
"","canvas-keyboard-response","209","170871","0.0-6.0-0.29","512","","","","","pre trial waiting period","null","null","","","catch","sw","l","sh","180","200","270","198","226","154","spektor","null","null","null","null","null","null","null","null","null","null","null","","180","200","260","200","36000","52000","[1,2]","491.26207234553766","191.8506797800909","528.6323099016328"
"","canvas-keyboard-response","210","170889","0.0-6.0-1.29","512","","","","","clear_screen","null","null","","","catch","sw","l","sh","180","200","270","198","226","154","spektor","null","null","null","null","null","null","null","null","null","null","null","","180","200","260","200","36000","52000","[1,2]","491.26207234553766","191.8506797800909","528.6323099016328"
"","canvas-keyboard-response","211","171398","0.0-6.0-2.29","512","","","","","rectangles no change","null","null","","","catch","sw","l","sh","180","200","270","198","226","154","spektor","null","null","null","null","null","null","null","null","null","null","null","","180","200","260","200","36000","52000","[1,2]","491.26207234553766","191.8506797800909","528.6323099016328"
"","canvas-keyboard-response","212","172735","0.0-6.0-3.29","512","","","","","rectangles with change","null","null","","","catch","sw","l","sh","180","200","270","198","226","154","spektor","null","null","null","null","null","null","null","null","null","null","null","","180","200","260","200","36000","52000","[1,2]","491.26207234553766","191.8506797800909","528.6323099016328"
"","canvas-keyboard-response","213","172753","0.0-6.0-4.29","512","","","","","clear_screen","null","null","","","catch","sw","l","sh","180","200","270","198","226","154","spektor","null","null","null","null","null","null","null","null","null","null","null","","180","200","260","200","36000","52000","[1,2]","491.26207234553766","191.8506797800909","528.6323099016328"
"","canvas-keyboard-response","214","173552","0.0-6.0-5.29","512","","","","","make choice","793","2","","","catch","sw","l","sh","180","200","270","198","226","154","spektor","null","null","null","null","null","null","null","null","null","null","null","","180","200","260","200","36000","52000","[1,2]","","",""
"","canvas-keyboard-response","215","173571","0.0-6.0-6.29","512","","","","","clear_screen","null","null","","","catch","sw","l","sh","180","200","270","198","226","154","spektor","null","null","null","null","null","null","null","null","null","null","null","","180","200","260","200","36000","52000","[1,2]","","",""
"","canvas-keyboard-response","216","173772","0.0-6.0-0.30","512","","","","","pre trial waiting period","null","null","","","critical","c","t","d","240","164","164","240","154.6796","220.0396","trueblood","0.14","h","164","240","240","164","154.6796","220.0396","39360","39360","34035.6388","td","null","null","null","null","null","null","[2,3]","472.2167870843366","463.79761013081185","473.6275697470745"
"","canvas-keyboard-response","217","173794","0.0-6.0-1.30","512","","","","","clear_screen","null","null","","","critical","c","t","d","240","164","164","240","154.6796","220.0396","trueblood","0.14","h","164","240","240","164","154.6796","220.0396","39360","39360","34035.6388","td","null","null","null","null","null","null","[2,3]","472.2167870843366","463.79761013081185","473.6275697470745"
"","canvas-keyboard-response","218","174302","0.0-6.0-2.30","512","","","","","rectangles no change","null","null","","","critical","c","t","d","240","164","164","240","154.6796","220.0396","trueblood","0.14","h","164","240","240","164","154.6796","220.0396","39360","39360","34035.6388","td","null","null","null","null","null","null","[2,3]","472.2167870843366","463.79761013081185","473.6275697470745"
"","canvas-keyboard-response","219","175641","0.0-6.0-3.30","512","","","","","rectangles with change","null","null","","","critical","c","t","d","240","164","164","240","154.6796","220.0396","trueblood","0.14","h","164","240","240","164","154.6796","220.0396","39360","39360","34035.6388","td","null","null","null","null","null","null","[2,3]","472.2167870843366","463.79761013081185","473.6275697470745"
"","canvas-keyboard-response","220","175660","0.0-6.0-4.30","512","","","","","clear_screen","null","null","","","critical","c","t","d","240","164","164","240","154.6796","220.0396","trueblood","0.14","h","164","240","240","164","154.6796","220.0396","39360","39360","34035.6388","td","null","null","null","null","null","null","[2,3]","472.2167870843366","463.79761013081185","473.6275697470745"
"","canvas-keyboard-response","221","176160","0.0-6.0-5.30","512","","","","","make choice","491","2","","","critical","c","t","d","240","164","164","240","154.6796","220.0396","trueblood","0.14","h","164","240","240","164","154.6796","220.0396","39360","39360","34035.6388","td","null","null","null","null","null","null","[2,3]","","",""
"","canvas-keyboard-response","222","176177","0.0-6.0-6.30","512","","","","","clear_screen","null","null","","","critical","c","t","d","240","164","164","240","154.6796","220.0396","trueblood","0.14","h","164","240","240","164","154.6796","220.0396","39360","39360","34035.6388","td","null","null","null","null","null","null","[2,3]","","",""
"","canvas-keyboard-response","223","176379","0.0-6.0-0.31","512","","","","","pre trial waiting period","null","null","","","catch","l","sh","sw","178","284","230","205","149","209","spektor","null","null","null","null","null","null","null","null","null","null","null","","180","200","260","200","36000","52000","[1,2]","454.2790081727234","142.60622412139574","498.4186143323686"
"","canvas-keyboard-response","224","176398","0.0-6.0-1.31","512","","","","","clear_screen","null","null","","","catch","l","sh","sw","178","284","230","205","149","209","spektor","null","null","null","null","null","null","null","null","null","null","null","","180","200","260","200","36000","52000","[1,2]","454.2790081727234","142.60622412139574","498.4186143323686"
"","canvas-keyboard-response","225","176907","0.0-6.0-2.31","512","","","","","rectangles no change","null","null","","","catch","l","sh","sw","178","284","230","205","149","209","spektor","null","null","null","null","null","null","null","null","null","null","null","","180","200","260","200","36000","52000","[1,2]","454.2790081727234","142.60622412139574","498.4186143323686"
"","canvas-keyboard-response","226","178247","0.0-6.0-3.31","512","","","","","rectangles with change","null","null","","","catch","l","sh","sw","178","284","230","205","149","209","spektor","null","null","null","null","null","null","null","null","null","null","null","","180","200","260","200","36000","52000","[1,2]","454.2790081727234","142.60622412139574","498.4186143323686"
"","canvas-keyboard-response","227","178266","0.0-6.0-4.31","512","","","","","clear_screen","null","null","","","catch","l","sh","sw","178","284","230","205","149","209","spektor","null","null","null","null","null","null","null","null","null","null","null","","180","200","260","200","36000","52000","[1,2]","454.2790081727234","142.60622412139574","498.4186143323686"
"","canvas-keyboard-response","228","179015","0.0-6.0-5.31","512","","","","","make choice","741","1","","","catch","l","sh","sw","178","284","230","205","149","209","spektor","null","null","null","null","null","null","null","null","null","null","null","","180","200","260","200","36000","52000","[1,2]","","",""
"","canvas-keyboard-response","229","179034","0.0-6.0-6.31","512","","","","","clear_screen","null","null","","","catch","l","sh","sw","178","284","230","205","149","209","spektor","null","null","null","null","null","null","null","null","null","null","null","","180","200","260","200","36000","52000","[1,2]","","",""
"","canvas-keyboard-response","230","179235","0.0-6.0-0.32","512","","","","","pre trial waiting period","null","null","","","critical","d","t","c","227.1683","158.0083","240","164","164","240","trueblood","0.09","w","240","164","164","240","227.1683","158.0083","39360","39360","35894.4834","td","null","null","null","null","null","null","[2,1]","507.51472544318773","486.0203144149498","423.65209347298133"
"","canvas-keyboard-response","231","179256","0.0-6.0-1.32","512","","","","","clear_screen","null","null","","","critical","d","t","c","227.1683","158.0083","240","164","164","240","trueblood","0.09","w","240","164","164","240","227.1683","158.0083","39360","39360","35894.4834","td","null","null","null","null","null","null","[2,1]","507.51472544318773","486.0203144149498","423.65209347298133"
"","canvas-keyboard-response","232","179764","0.0-6.0-2.32","512","","","","","rectangles no change","null","null","","","critical","d","t","c","227.1683","158.0083","240","164","164","240","trueblood","0.09","w","240","164","164","240","227.1683","158.0083","39360","39360","35894.4834","td","null","null","null","null","null","null","[2,1]","507.51472544318773","486.0203144149498","423.65209347298133"
"","canvas-keyboard-response","233","181099","0.0-6.0-3.32","512","","","","","rectangles with change","null","null","","","critical","d","t","c","227.1683","158.0083","240","164","164","240","trueblood","0.09","w","240","164","164","240","227.1683","158.0083","39360","39360","35894.4834","td","null","null","null","null","null","null","[2,1]","507.51472544318773","486.0203144149498","423.65209347298133"
"","canvas-keyboard-response","234","181119","0.0-6.0-4.32","512","","","","","clear_screen","null","null","","","critical","d","t","c","227.1683","158.0083","240","164","164","240","trueblood","0.09","w","240","164","164","240","227.1683","158.0083","39360","39360","35894.4834","td","null","null","null","null","null","null","[2,1]","507.51472544318773","486.0203144149498","423.65209347298133"
"","canvas-keyboard-response","235","181535","0.0-6.0-5.32","512","","","","","make choice","409","2","","","critical","d","t","c","227.1683","158.0083","240","164","164","240","trueblood","0.09","w","240","164","164","240","227.1683","158.0083","39360","39360","35894.4834","td","null","null","null","null","null","null","[2,1]","","",""
"","canvas-keyboard-response","236","181555","0.0-6.0-6.32","512","","","","","clear_screen","null","null","","","critical","d","t","c","227.1683","158.0083","240","164","164","240","trueblood","0.09","w","240","164","164","240","227.1683","158.0083","39360","39360","35894.4834","td","null","null","null","null","null","null","[2,1]","","",""
"","canvas-keyboard-response","237","181755","0.0-6.0-0.33","512","","","","","pre trial waiting period","null","null","","","critical","t","c","d","164","240","240","164","162.6685","237.1485","trueblood","0.02","h","164","240","240","164","162.6685","237.1485","39360","39360","38576.5967","tc","null","null","null","null","null","null","[1,2]","459.6060651714196","471.6399240065665","424.86012673438773"
"","canvas-keyboard-response","238","181779","0.0-6.0-1.33","512","","","","","clear_screen","null","null","","","critical","t","c","d","164","240","240","164","162.6685","237.1485","trueblood","0.02","h","164","240","240","164","162.6685","237.1485","39360","39360","38576.5967","tc","null","null","null","null","null","null","[1,2]","459.6060651714196","471.6399240065665","424.86012673438773"
"","canvas-keyboard-response","239","182285","0.0-6.0-2.33","512","","","","","rectangles no change","null","null","","","critical","t","c","d","164","240","240","164","162.6685","237.1485","trueblood","0.02","h","164","240","240","164","162.6685","237.1485","39360","39360","38576.5967","tc","null","null","null","null","null","null","[1,2]","459.6060651714196","471.6399240065665","424.86012673438773"
"","canvas-keyboard-response","240","183621","0.0-6.0-3.33","512","","","","","rectangles with change","null","null","","","critical","t","c","d","164","240","240","164","162.6685","237.1485","trueblood","0.02","h","164","240","240","164","162.6685","237.1485","39360","39360","38576.5967","tc","null","null","null","null","null","null","[1,2]","459.6060651714196","471.6399240065665","424.86012673438773"
"","canvas-keyboard-response","241","183641","0.0-6.0-4.33","512","","","","","clear_screen","null","null","","","critical","t","c","d","164","240","240","164","162.6685","237.1485","trueblood","0.02","h","164","240","240","164","162.6685","237.1485","39360","39360","38576.5967","tc","null","null","null","null","null","null","[1,2]","459.6060651714196","471.6399240065665","424.86012673438773"
"","canvas-keyboard-response","242","184616","0.0-6.0-5.33","512","","","","","make choice","969","1","","","critical","t","c","d","164","240","240","164","162.6685","237.1485","trueblood","0.02","h","164","240","240","164","162.6685","237.1485","39360","39360","38576.5967","tc","null","null","null","null","null","null","[1,2]","","",""
"","canvas-keyboard-response","243","184635","0.0-6.0-6.33","512","","","","","clear_screen","null","null","","","critical","t","c","d","164","240","240","164","162.6685","237.1485","trueblood","0.02","h","164","240","240","164","162.6685","237.1485","39360","39360","38576.5967","tc","null","null","null","null","null","null","[1,2]","","",""
"","canvas-keyboard-response","244","184835","0.0-6.0-0.34","512","","","","","pre trial waiting period","null","null","","","catch","l","sw","sh","271","220","172","170","209","144","trueblood","null","null","null","null","null","null","null","null","null","null","null","","180","200","260","200","36000","52000","[1,2]","433.8047775841894","507.5785336837057","527.372617227794"
"","canvas-keyboard-response","245","184858","0.0-6.0-1.34","512","","","","","clear_screen","null","null","","","catch","l","sw","sh","271","220","172","170","209","144","trueblood","null","null","null","null","null","null","null","null","null","null","null","","180","200","260","200","36000","52000","[1,2]","433.8047775841894","507.5785336837057","527.372617227794"
"","canvas-keyboard-response","246","185368","0.0-6.0-2.34","512","","","","","rectangles no change","null","null","","","catch","l","sw","sh","271","220","172","170","209","144","trueblood","null","null","null","null","null","null","null","null","null","null","null","","180","200","260","200","36000","52000","[1,2]","433.8047775841894","507.5785336837057","527.372617227794"
"","canvas-keyboard-response","247","186704","0.0-6.0-3.34","512","","","","","rectangles with change","null","null","","","catch","l","sw","sh","271","220","172","170","209","144","trueblood","null","null","null","null","null","null","null","null","null","null","null","","180","200","260","200","36000","52000","[1,2]","433.8047775841894","507.5785336837057","527.372617227794"
"","canvas-keyboard-response","248","186723","0.0-6.0-4.34","512","","","","","clear_screen","null","null","","","catch","l","sw","sh","271","220","172","170","209","144","trueblood","null","null","null","null","null","null","null","null","null","null","null","","180","200","260","200","36000","52000","[1,2]","433.8047775841894","507.5785336837057","527.372617227794"
"","canvas-keyboard-response","249","187216","0.0-6.0-5.34","512","","","","","make choice","486","1","","","catch","l","sw","sh","271","220","172","170","209","144","trueblood","null","null","null","null","null","null","null","null","null","null","null","","180","200","260","200","36000","52000","[1,2]","","",""
"","canvas-keyboard-response","250","187235","0.0-6.0-6.34","512","","","","","clear_screen","null","null","","","catch","l","sw","sh","271","220","172","170","209","144","trueblood","null","null","null","null","null","null","null","null","null","null","null","","180","200","260","200","36000","52000","[1,2]","","",""
"","canvas-keyboard-response","251","187436","0.0-6.0-0.35","512","","","","","pre trial waiting period","null","null","","","critical","c","t","d","240","164","164","240","154.6796","220.0396","spektor","0.14","h","164","240","240","164","154.6796","220.0396","39360","39360","34035.6388","td","null","null","null","null","null","null","[2,3]","518.3145577138345","140.40717992109845","504.9505299462015"
"","canvas-keyboard-response","252","187455","0.0-6.0-1.35","512","","","","","clear_screen","null","null","","","critical","c","t","d","240","164","164","240","154.6796","220.0396","spektor","0.14","h","164","240","240","164","154.6796","220.0396","39360","39360","34035.6388","td","null","null","null","null","null","null","[2,3]","518.3145577138345","140.40717992109845","504.9505299462015"
"","canvas-keyboard-response","253","187964","0.0-6.0-2.35","512","","","","","rectangles no change","null","null","","","critical","c","t","d","240","164","164","240","154.6796","220.0396","spektor","0.14","h","164","240","240","164","154.6796","220.0396","39360","39360","34035.6388","td","null","null","null","null","null","null","[2,3]","518.3145577138345","140.40717992109845","504.9505299462015"
"","canvas-keyboard-response","254","189299","0.0-6.0-3.35","512","","","","","rectangles with change","null","null","","","critical","c","t","d","240","164","164","240","154.6796","220.0396","spektor","0.14","h","164","240","240","164","154.6796","220.0396","39360","39360","34035.6388","td","null","null","null","null","null","null","[2,3]","518.3145577138345","140.40717992109845","504.9505299462015"
"","canvas-keyboard-response","255","189319","0.0-6.0-4.35","512","","","","","clear_screen","null","null","","","critical","c","t","d","240","164","164","240","154.6796","220.0396","spektor","0.14","h","164","240","240","164","154.6796","220.0396","39360","39360","34035.6388","td","null","null","null","null","null","null","[2,3]","518.3145577138345","140.40717992109845","504.9505299462015"
"","canvas-keyboard-response","256","190008","0.0-6.0-5.35","512","","","","","make choice","682","2","","","critical","c","t","d","240","164","164","240","154.6796","220.0396","spektor","0.14","h","164","240","240","164","154.6796","220.0396","39360","39360","34035.6388","td","null","null","null","null","null","null","[2,3]","","",""
"","canvas-keyboard-response","257","190025","0.0-6.0-6.35","512","","","","","clear_screen","null","null","","","critical","c","t","d","240","164","164","240","154.6796","220.0396","spektor","0.14","h","164","240","240","164","154.6796","220.0396","39360","39360","34035.6388","td","null","null","null","null","null","null","[2,3]","","",""
"","canvas-keyboard-response","258","190225","0.0-6.0-0.36","512","","","","","pre trial waiting period","null","null","","","critical","c","t","d","240","164","164","240","158.0083","227.1683","spektor","0.09","h","164","240","240","164","158.0083","227.1683","39360","39360","35894.4834","td","null","null","null","null","null","null","[2,3]","529.7416916304605","118.40574498226123","462.5736267858224"
"","canvas-keyboard-response","259","190249","0.0-6.0-1.36","512","","","","","clear_screen","null","null","","","critical","c","t","d","240","164","164","240","158.0083","227.1683","spektor","0.09","h","164","240","240","164","158.0083","227.1683","39360","39360","35894.4834","td","null","null","null","null","null","null","[2,3]","529.7416916304605","118.40574498226123","462.5736267858224"
"","canvas-keyboard-response","260","190757","0.0-6.0-2.36","512","","","","","rectangles no change","null","null","","","critical","c","t","d","240","164","164","240","158.0083","227.1683","spektor","0.09","h","164","240","240","164","158.0083","227.1683","39360","39360","35894.4834","td","null","null","null","null","null","null","[2,3]","529.7416916304605","118.40574498226123","462.5736267858224"
"","canvas-keyboard-response","261","192098","0.0-6.0-3.36","512","","","","","rectangles with change","null","null","","","critical","c","t","d","240","164","164","240","158.0083","227.1683","spektor","0.09","h","164","240","240","164","158.0083","227.1683","39360","39360","35894.4834","td","null","null","null","null","null","null","[2,3]","529.7416916304605","118.40574498226123","462.5736267858224"
"","canvas-keyboard-response","262","192119","0.0-6.0-4.36","512","","","","","clear_screen","null","null","","","critical","c","t","d","240","164","164","240","158.0083","227.1683","spektor","0.09","h","164","240","240","164","158.0083","227.1683","39360","39360","35894.4834","td","null","null","null","null","null","null","[2,3]","529.7416916304605","118.40574498226123","462.5736267858224"
"","canvas-keyboard-response","263","193064","0.0-6.0-5.36","512","","","","","make choice","939","2","","","critical","c","t","d","240","164","164","240","158.0083","227.1683","spektor","0.09","h","164","240","240","164","158.0083","227.1683","39360","39360","35894.4834","td","null","null","null","null","null","null","[2,3]","","",""
"","canvas-keyboard-response","264","193082","0.0-6.0-6.36","512","","","","","clear_screen","null","null","","","critical","c","t","d","240","164","164","240","158.0083","227.1683","spektor","0.09","h","164","240","240","164","158.0083","227.1683","39360","39360","35894.4834","td","null","null","null","null","null","null","[2,3]","","",""
"","canvas-keyboard-response","265","193282","0.0-6.0-0.37","512","","","","","pre trial waiting period","null","null","","","critical","t","d","c","164","240","154.6796","220.0396","240","164","spektor","0.14","h","164","240","240","164","154.6796","220.0396","39360","39360","34035.6388","dc","null","null","null","null","null","null","[2,3]","495.11303601898084","110.23381000233778","537.9585396530201"
