"success","trial_type","trial_index","time_elapsed","internal_node_id","sub_n","timeout","failed_images","failed_audio","failed_video","screen_id","rt","response","stimulus","view_history","trial","r1","r2","r3","w1","h1","w2","h2","w3","h3","display","tdd","tdo","tw","th","cw","ch","dw","dh","ta","ca","da","probe","csls","csss","clls","clss","sa","la","probe_rects","r1yloc","r2yloc","r3yloc"
"true","fullscreen","0","3463","0.0-0.0","559","","","","","","","","","","","","","","","","","","","","","","","","","","","","","","","","","","","","","","","","","",""
"true","preload","1","3481","0.0-1.0","559","false","[]","[]","[]","img preload","","","","","","","","","","","","","","","","","","","","","","","","","","","","","","","","","","","","",""
"","survey-html-form","2","9722","0.0-2.0","559","","","","","enter-sub-number","6236","{""response"":""559""}","","","","","","","","","","","","","","","","","","","","","","","","","","","","","","","","","","",""
"","image-button-response","3","15687","0.0-3.0","559","","","","","","5894","0","consent.png","","","","","","","","","","","","","","","","","","","","","","","","","","","","","","","","","",""
"","html-button-response","4","25983","0.0-4.0","559","","","","","intro mssg","10289","0","<div style= ""font-size:25px;"" <p> <strong> Welcome! </strong><br> <p style=""color:#8B0000; font-size:25px;""><strong> Please do NOT exit full screen until you are done with the experiment. </strong> </p><p style=""font-size:25px;color:#8B0000;""> <strong> Your data will be lost <br> if you try to go back or refresh the page after the experiment starts. Feel free to click ""previous"" during the instructions, however.</strong> </p><br><p> <strong> Thanks in advance for your contribution to our research! </strong></p>","","","","","","","","","","","","","","","","","","","","","","","","","","","","","","","","","",""
"","instructions","5","78999","0.0-5.0","559","","","","","instructions","53010","","","[{""page_index"":0,""viewing_time"":5561},{""page_index"":1,""viewing_time"":14096},{""page_index"":2,""viewing_time"":3032},{""page_index"":3,""viewing_time"":16511},{""page_index"":4,""viewing_time"":7776},{""page_index"":5,""viewing_time"":2313},{""page_index"":6,""viewing_time"":2376},{""page_index"":7,""viewing_time"":1345}]","","","","","","","","","","","","","","","","","","","","","","","","","","","","","","","","",""
"","canvas-keyboard-response","6","79205","0.0-6.0-0.0","559","","","","","pre trial waiting period","null","null","","","critical","d","t","c","227.1683","158.0083","240","164","164","240","trueblood","0.09","w","240","164","164","240","227.1683","158.0083","39360","39360","35894.4834","tc","null","null","null","null","null","null","[2,3]","513.4966717292601","473.5204353479196","447.33606746216276"
"","canvas-keyboard-response","7","79232","0.0-6.0-1.0","559","","","","","clear_screen","null","null","","","critical","d","t","c","227.1683","158.0083","240","164","164","240","trueblood","0.09","w","240","164","164","240","227.1683","158.0083","39360","39360","35894.4834","tc","null","null","null","null","null","null","[2,3]","513.4966717292601","473.5204353479196","447.33606746216276"
"","canvas-keyboard-response","8","79744","0.0-6.0-2.0","559","","","","","rectangles no change","null","null","","","critical","d","t","c","227.1683","158.0083","240","164","164","240","trueblood","0.09","w","240","164","164","240","227.1683","158.0083","39360","39360","35894.4834","tc","null","null","null","null","null","null","[2,3]","513.4966717292601","473.5204353479196","447.33606746216276"
"","canvas-keyboard-response","9","81083","0.0-6.0-3.0","559","","","","","rectangles with change","null","null","","","critical","d","t","c","227.1683","158.0083","240","164","164","240","trueblood","0.09","w","240","164","164","240","227.1683","158.0083","39360","39360","35894.4834","tc","null","null","null","null","null","null","[2,3]","513.4966717292601","473.5204353479196","447.33606746216276"
"","canvas-keyboard-response","10","81107","0.0-6.0-4.0","559","","","","","clear_screen","null","null","","","critical","d","t","c","227.1683","158.0083","240","164","164","240","trueblood","0.09","w","240","164","164","240","227.1683","158.0083","39360","39360","35894.4834","tc","null","null","null","null","null","null","[2,3]","513.4966717292601","473.5204353479196","447.33606746216276"
"","canvas-keyboard-response","11","91810","0.0-6.0-5.0","559","","","","","make choice","10695","3","","","critical","d","t","c","227.1683","158.0083","240","164","164","240","trueblood","0.09","w","240","164","164","240","227.1683","158.0083","39360","39360","35894.4834","tc","null","null","null","null","null","null","[2,3]","","",""
"","canvas-keyboard-response","12","91827","0.0-6.0-6.0","559","","","","","clear_screen","null","null","","","critical","d","t","c","227.1683","158.0083","240","164","164","240","trueblood","0.09","w","240","164","164","240","227.1683","158.0083","39360","39360","35894.4834","tc","null","null","null","null","null","null","[2,3]","","",""
"","canvas-keyboard-response","13","92031","0.0-6.0-0.1","559","","","","","pre trial waiting period","null","null","","","critical","d","c","t","158.0083","227.1683","240","164","164","240","spektor","0.09","h","164","240","240","164","158.0083","227.1683","39360","39360","35894.4834","dc","null","null","null","null","null","null","[1,2]","501.32228885673715","182.2672020416509","470.1098394707725"
"","canvas-keyboard-response","14","92050","0.0-6.0-1.1","559","","","","","clear_screen","null","null","","","critical","d","c","t","158.0083","227.1683","240","164","164","240","spektor","0.09","h","164","240","240","164","158.0083","227.1683","39360","39360","35894.4834","dc","null","null","null","null","null","null","[1,2]","501.32228885673715","182.2672020416509","470.1098394707725"
"","canvas-keyboard-response","15","92560","0.0-6.0-2.1","559","","","","","rectangles no change","null","null","","","critical","d","c","t","158.0083","227.1683","240","164","164","240","spektor","0.09","h","164","240","240","164","158.0083","227.1683","39360","39360","35894.4834","dc","null","null","null","null","null","null","[1,2]","501.32228885673715","182.2672020416509","470.1098394707725"
"","canvas-keyboard-response","16","93896","0.0-6.0-3.1","559","","","","","rectangles with change","null","null","","","critical","d","c","t","158.0083","227.1683","240","164","164","240","spektor","0.09","h","164","240","240","164","158.0083","227.1683","39360","39360","35894.4834","dc","null","null","null","null","null","null","[1,2]","501.32228885673715","182.2672020416509","470.1098394707725"
"","canvas-keyboard-response","17","93919","0.0-6.0-4.1","559","","","","","clear_screen","null","null","","","critical","d","c","t","158.0083","227.1683","240","164","164","240","spektor","0.09","h","164","240","240","164","158.0083","227.1683","39360","39360","35894.4834","dc","null","null","null","null","null","null","[1,2]","501.32228885673715","182.2672020416509","470.1098394707725"
"","canvas-keyboard-response","18","95593","0.0-6.0-5.1","559","","","","","make choice","1664","2","","","critical","d","c","t","158.0083","227.1683","240","164","164","240","spektor","0.09","h","164","240","240","164","158.0083","227.1683","39360","39360","35894.4834","dc","null","null","null","null","null","null","[1,2]","","",""
"","canvas-keyboard-response","19","95614","0.0-6.0-6.1","559","","","","","clear_screen","null","null","","","critical","d","c","t","158.0083","227.1683","240","164","164","240","spektor","0.09","h","164","240","240","164","158.0083","227.1683","39360","39360","35894.4834","dc","null","null","null","null","null","null","[1,2]","","",""
"","canvas-keyboard-response","20","95817","0.0-6.0-0.2","559","","","","","pre trial waiting period","null","null","","","critical","t","d","c","240","164","237.1485","162.6685","164","240","trueblood","0.02","w","240","164","164","240","237.1485","162.6685","39360","39360","38576.5967","dc","null","null","null","null","null","null","[2,3]","500.5936414977909","477.06828191681683","422.94277742406564"
"","canvas-keyboard-response","21","95839","0.0-6.0-1.2","559","","","","","clear_screen","null","null","","","critical","t","d","c","240","164","237.1485","162.6685","164","240","trueblood","0.02","w","240","164","164","240","237.1485","162.6685","39360","39360","38576.5967","dc","null","null","null","null","null","null","[2,3]","500.5936414977909","477.06828191681683","422.94277742406564"
"","canvas-keyboard-response","22","96347","0.0-6.0-2.2","559","","","","","rectangles no change","null","null","","","critical","t","d","c","240","164","237.1485","162.6685","164","240","trueblood","0.02","w","240","164","164","240","237.1485","162.6685","39360","39360","38576.5967","dc","null","null","null","null","null","null","[2,3]","500.5936414977909","477.06828191681683","422.94277742406564"
"","canvas-keyboard-response","23","97682","0.0-6.0-3.2","559","","","","","rectangles with change","null","null","","","critical","t","d","c","240","164","237.1485","162.6685","164","240","trueblood","0.02","w","240","164","164","240","237.1485","162.6685","39360","39360","38576.5967","dc","null","null","null","null","null","null","[2,3]","500.5936414977909","477.06828191681683","422.94277742406564"
"","canvas-keyboard-response","24","97701","0.0-6.0-4.2","559","","","","","clear_screen","null","null","","","critical","t","d","c","240","164","237.1485","162.6685","164","240","trueblood","0.02","w","240","164","164","240","237.1485","162.6685","39360","39360","38576.5967","dc","null","null","null","null","null","null","[2,3]","500.5936414977909","477.06828191681683","422.94277742406564"
"","canvas-keyboard-response","25","100385","0.0-6.0-5.2","559","","","","","make choice","2678","3","","","critical","t","d","c","240","164","237.1485","162.6685","164","240","trueblood","0.02","w","240","164","164","240","237.1485","162.6685","39360","39360","38576.5967","dc","null","null","null","null","null","null","[2,3]","","",""
"","canvas-keyboard-response","26","100407","0.0-6.0-6.2","559","","","","","clear_screen","null","null","","","critical","t","d","c","240","164","237.1485","162.6685","164","240","trueblood","0.02","w","240","164","164","240","237.1485","162.6685","39360","39360","38576.5967","dc","null","null","null","null","null","null","[2,3]","","",""
"","canvas-keyboard-response","27","100609","0.0-6.0-0.3","559","","","","","pre trial waiting period","null","null","","","critical","c","d","t","240","164","158.0083","227.1683","164","240","trueblood","0.09","h","164","240","240","164","158.0083","227.1683","39360","39360","35894.4834","tc","null","null","null","null","null","null","[3,1]","507.13093125039836","475.1349431528244","435.51594450700117"
"","canvas-keyboard-response","28","100630","0.0-6.0-1.3","559","","","","","clear_screen","null","null","","","critical","c","d","t","240","164","158.0083","227.1683","164","240","trueblood","0.09","h","164","240","240","164","158.0083","227.1683","39360","39360","35894.4834","tc","null","null","null","null","null","null","[3,1]","507.13093125039836","475.1349431528244","435.51594450700117"
"","canvas-keyboard-response","29","101137","0.0-6.0-2.3","559","","","","","rectangles no change","null","null","","","critical","c","d","t","240","164","158.0083","227.1683","164","240","trueblood","0.09","h","164","240","240","164","158.0083","227.1683","39360","39360","35894.4834","tc","null","null","null","null","null","null","[3,1]","507.13093125039836","475.1349431528244","435.51594450700117"
"","canvas-keyboard-response","30","102472","0.0-6.0-3.3","559","","","","","rectangles with change","null","null","","","critical","c","d","t","240","164","158.0083","227.1683","164","240","trueblood","0.09","h","164","240","240","164","158.0083","227.1683","39360","39360","35894.4834","tc","null","null","null","null","null","null","[3,1]","507.13093125039836","475.1349431528244","435.51594450700117"
"","canvas-keyboard-response","31","102495","0.0-6.0-4.3","559","","","","","clear_screen","null","null","","","critical","c","d","t","240","164","158.0083","227.1683","164","240","trueblood","0.09","h","164","240","240","164","158.0083","227.1683","39360","39360","35894.4834","tc","null","null","null","null","null","null","[3,1]","507.13093125039836","475.1349431528244","435.51594450700117"
"","canvas-keyboard-response","32","103937","0.0-6.0-5.3","559","","","","","make choice","1438","1","","","critical","c","d","t","240","164","158.0083","227.1683","164","240","trueblood","0.09","h","164","240","240","164","158.0083","227.1683","39360","39360","35894.4834","tc","null","null","null","null","null","null","[3,1]","","",""
"","canvas-keyboard-response","33","103955","0.0-6.0-6.3","559","","","","","clear_screen","null","null","","","critical","c","d","t","240","164","158.0083","227.1683","164","240","trueblood","0.09","h","164","240","240","164","158.0083","227.1683","39360","39360","35894.4834","tc","null","null","null","null","null","null","[3,1]","","",""
"","canvas-keyboard-response","34","104157","0.0-6.0-0.4","559","","","","","pre trial waiting period","null","null","","","critical","c","d","t","240","164","162.6685","237.1485","164","240","spektor","0.02","h","164","240","240","164","162.6685","237.1485","39360","39360","38576.5967","tc","null","null","null","null","null","null","[3,1]","517.5224390240701","107.2182545475757","496.926770402211"
"","canvas-keyboard-response","35","104180","0.0-6.0-1.4","559","","","","","clear_screen","null","null","","","critical","c","d","t","240","164","162.6685","237.1485","164","240","spektor","0.02","h","164","240","240","164","162.6685","237.1485","39360","39360","38576.5967","tc","null","null","null","null","null","null","[3,1]","517.5224390240701","107.2182545475757","496.926770402211"
"","canvas-keyboard-response","36","104687","0.0-6.0-2.4","559","","","","","rectangles no change","null","null","","","critical","c","d","t","240","164","162.6685","237.1485","164","240","spektor","0.02","h","164","240","240","164","162.6685","237.1485","39360","39360","38576.5967","tc","null","null","null","null","null","null","[3,1]","517.5224390240701","107.2182545475757","496.926770402211"
"","canvas-keyboard-response","37","106027","0.0-6.0-3.4","559","","","","","rectangles with change","null","null","","","critical","c","d","t","240","164","162.6685","237.1485","164","240","spektor","0.02","h","164","240","240","164","162.6685","237.1485","39360","39360","38576.5967","tc","null","null","null","null","null","null","[3,1]","517.5224390240701","107.2182545475757","496.926770402211"
"","canvas-keyboard-response","38","106049","0.0-6.0-4.4","559","","","","","clear_screen","null","null","","","critical","c","d","t","240","164","162.6685","237.1485","164","240","spektor","0.02","h","164","240","240","164","162.6685","237.1485","39360","39360","38576.5967","tc","null","null","null","null","null","null","[3,1]","517.5224390240701","107.2182545475757","496.926770402211"
"","canvas-keyboard-response","39","106833","0.0-6.0-5.4","559","","","","","make choice","775","1","","","critical","c","d","t","240","164","162.6685","237.1485","164","240","spektor","0.02","h","164","240","240","164","162.6685","237.1485","39360","39360","38576.5967","tc","null","null","null","null","null","null","[3,1]","","",""
"","canvas-keyboard-response","40","106851","0.0-6.0-6.4","559","","","","","clear_screen","null","null","","","critical","c","d","t","240","164","162.6685","237.1485","164","240","spektor","0.02","h","164","240","240","164","162.6685","237.1485","39360","39360","38576.5967","tc","null","null","null","null","null","null","[3,1]","","",""
"","canvas-keyboard-response","41","107054","0.0-6.0-0.5","559","","","","","pre trial waiting period","null","null","","","critical","d","c","t","160.6713","232.8713","240","164","164","240","trueblood","0.05","h","164","240","240","164","160.6713","232.8713","39360","39360","37415.7294","dc","null","null","null","null","null","null","[1,2]","443.4912249955638","486.06927237496933","436.08294280634067"
"","canvas-keyboard-response","42","107075","0.0-6.0-1.5","559","","","","","clear_screen","null","null","","","critical","d","c","t","160.6713","232.8713","240","164","164","240","trueblood","0.05","h","164","240","240","164","160.6713","232.8713","39360","39360","37415.7294","dc","null","null","null","null","null","null","[1,2]","443.4912249955638","486.06927237496933","436.08294280634067"
"","canvas-keyboard-response","43","107583","0.0-6.0-2.5","559","","","","","rectangles no change","null","null","","","critical","d","c","t","160.6713","232.8713","240","164","164","240","trueblood","0.05","h","164","240","240","164","160.6713","232.8713","39360","39360","37415.7294","dc","null","null","null","null","null","null","[1,2]","443.4912249955638","486.06927237496933","436.08294280634067"
"","canvas-keyboard-response","44","108918","0.0-6.0-3.5","559","","","","","rectangles with change","null","null","","","critical","d","c","t","160.6713","232.8713","240","164","164","240","trueblood","0.05","h","164","240","240","164","160.6713","232.8713","39360","39360","37415.7294","dc","null","null","null","null","null","null","[1,2]","443.4912249955638","486.06927237496933","436.08294280634067"
"","canvas-keyboard-response","45","108938","0.0-6.0-4.5","559","","","","","clear_screen","null","null","","","critical","d","c","t","160.6713","232.8713","240","164","164","240","trueblood","0.05","h","164","240","240","164","160.6713","232.8713","39360","39360","37415.7294","dc","null","null","null","null","null","null","[1,2]","443.4912249955638","486.06927237496933","436.08294280634067"
"","canvas-keyboard-response","46","109793","0.0-6.0-5.5","559","","","","","make choice","847","2","","","critical","d","c","t","160.6713","232.8713","240","164","164","240","trueblood","0.05","h","164","240","240","164","160.6713","232.8713","39360","39360","37415.7294","dc","null","null","null","null","null","null","[1,2]","","",""
"","canvas-keyboard-response","47","109812","0.0-6.0-6.5","559","","","","","clear_screen","null","null","","","critical","d","c","t","160.6713","232.8713","240","164","164","240","trueblood","0.05","h","164","240","240","164","160.6713","232.8713","39360","39360","37415.7294","dc","null","null","null","null","null","null","[1,2]","","",""
"","canvas-keyboard-response","48","110013","0.0-6.0-0.6","559","","","","","pre trial waiting period","null","null","","","catch","sw","sh","l","180","200","236","159","225","228","spektor","null","null","null","null","null","null","null","null","null","null","null","","180","200","260","200","36000","52000","[2,3]","507.06029448083643","196.13177554649926","487.19428971296634"
"","canvas-keyboard-response","49","110033","0.0-6.0-1.6","559","","","","","clear_screen","null","null","","","catch","sw","sh","l","180","200","236","159","225","228","spektor","null","null","null","null","null","null","null","null","null","null","null","","180","200","260","200","36000","52000","[2,3]","507.06029448083643","196.13177554649926","487.19428971296634"
"","canvas-keyboard-response","50","110541","0.0-6.0-2.6","559","","","","","rectangles no change","null","null","","","catch","sw","sh","l","180","200","236","159","225","228","spektor","null","null","null","null","null","null","null","null","null","null","null","","180","200","260","200","36000","52000","[2,3]","507.06029448083643","196.13177554649926","487.19428971296634"
"","canvas-keyboard-response","51","111881","0.0-6.0-3.6","559","","","","","rectangles with change","null","null","","","catch","sw","sh","l","180","200","236","159","225","228","spektor","null","null","null","null","null","null","null","null","null","null","null","","180","200","260","200","36000","52000","[2,3]","507.06029448083643","196.13177554649926","487.19428971296634"
"","canvas-keyboard-response","52","111904","0.0-6.0-4.6","559","","","","","clear_screen","null","null","","","catch","sw","sh","l","180","200","236","159","225","228","spektor","null","null","null","null","null","null","null","null","null","null","null","","180","200","260","200","36000","52000","[2,3]","507.06029448083643","196.13177554649926","487.19428971296634"
"","canvas-keyboard-response","53","112393","0.0-6.0-5.6","559","","","","","make choice","483","3","","","catch","sw","sh","l","180","200","236","159","225","228","spektor","null","null","null","null","null","null","null","null","null","null","null","","180","200","260","200","36000","52000","[2,3]","","",""
"","canvas-keyboard-response","54","112415","0.0-6.0-6.6","559","","","","","clear_screen","null","null","","","catch","sw","sh","l","180","200","236","159","225","228","spektor","null","null","null","null","null","null","null","null","null","null","null","","180","200","260","200","36000","52000","[2,3]","","",""
"","canvas-keyboard-response","55","112616","0.0-6.0-0.7","559","","","","","pre trial waiting period","null","null","","","catch","sh","sw","l","235","214","219","232","212","233","trueblood","null","null","null","null","null","null","null","null","null","null","null","","180","200","260","200","36000","52000","[1,3]","445.3167383528171","442.16895012078385","446.0234682359795"
"","canvas-keyboard-response","56","112635","0.0-6.0-1.7","559","","","","","clear_screen","null","null","","","catch","sh","sw","l","235","214","219","232","212","233","trueblood","null","null","null","null","null","null","null","null","null","null","null","","180","200","260","200","36000","52000","[1,3]","445.3167383528171","442.16895012078385","446.0234682359795"
"","canvas-keyboard-response","57","113148","0.0-6.0-2.7","559","","","","","rectangles no change","null","null","","","catch","sh","sw","l","235","214","219","232","212","233","trueblood","null","null","null","null","null","null","null","null","null","null","null","","180","200","260","200","36000","52000","[1,3]","445.3167383528171","442.16895012078385","446.0234682359795"
"","canvas-keyboard-response","58","114483","0.0-6.0-3.7","559","","","","","rectangles with change","null","null","","","catch","sh","sw","l","235","214","219","232","212","233","trueblood","null","null","null","null","null","null","null","null","null","null","null","","180","200","260","200","36000","52000","[1,3]","445.3167383528171","442.16895012078385","446.0234682359795"
"","canvas-keyboard-response","59","114501","0.0-6.0-4.7","559","","","","","clear_screen","null","null","","","catch","sh","sw","l","235","214","219","232","212","233","trueblood","null","null","null","null","null","null","null","null","null","null","null","","180","200","260","200","36000","52000","[1,3]","445.3167383528171","442.16895012078385","446.0234682359795"
"","canvas-keyboard-response","60","115481","0.0-6.0-5.7","559","","","","","make choice","974","3","","","catch","sh","sw","l","235","214","219","232","212","233","trueblood","null","null","null","null","null","null","null","null","null","null","null","","180","200","260","200","36000","52000","[1,3]","","",""
"","canvas-keyboard-response","61","115500","0.0-6.0-6.7","559","","","","","clear_screen","null","null","","","catch","sh","sw","l","235","214","219","232","212","233","trueblood","null","null","null","null","null","null","null","null","null","null","null","","180","200","260","200","36000","52000","[1,3]","","",""
"","canvas-keyboard-response","62","115700","0.0-6.0-0.8","559","","","","","pre trial waiting period","null","null","","","critical","d","c","t","240","164","164","240","240","164","spektor","0","w","240","164","164","240","240","164","39360","39360","39360","td","null","null","null","null","null","null","[3,1]","495.4337797893976","134.29484423089124","520.293893544222"
"","canvas-keyboard-response","63","115725","0.0-6.0-1.8","559","","","","","clear_screen","null","null","","","critical","d","c","t","240","164","164","240","240","164","spektor","0","w","240","164","164","240","240","164","39360","39360","39360","td","null","null","null","null","null","null","[3,1]","495.4337797893976","134.29484423089124","520.293893544222"
"","canvas-keyboard-response","64","116231","0.0-6.0-2.8","559","","","","","rectangles no change","null","null","","","critical","d","c","t","240","164","164","240","240","164","spektor","0","w","240","164","164","240","240","164","39360","39360","39360","td","null","null","null","null","null","null","[3,1]","495.4337797893976","134.29484423089124","520.293893544222"
"","canvas-keyboard-response","65","117570","0.0-6.0-3.8","559","","","","","rectangles with change","null","null","","","critical","d","c","t","240","164","164","240","240","164","spektor","0","w","240","164","164","240","240","164","39360","39360","39360","td","null","null","null","null","null","null","[3,1]","495.4337797893976","134.29484423089124","520.293893544222"
"","canvas-keyboard-response","66","117588","0.0-6.0-4.8","559","","","","","clear_screen","null","null","","","critical","d","c","t","240","164","164","240","240","164","spektor","0","w","240","164","164","240","240","164","39360","39360","39360","td","null","null","null","null","null","null","[3,1]","495.4337797893976","134.29484423089124","520.293893544222"
"","canvas-keyboard-response","67","118145","0.0-6.0-5.8","559","","","","","make choice","548","1","","","critical","d","c","t","240","164","164","240","240","164","spektor","0","w","240","164","164","240","240","164","39360","39360","39360","td","null","null","null","null","null","null","[3,1]","","",""
"","canvas-keyboard-response","68","118165","0.0-6.0-6.8","559","","","","","clear_screen","null","null","","","critical","d","c","t","240","164","164","240","240","164","spektor","0","w","240","164","164","240","240","164","39360","39360","39360","td","null","null","null","null","null","null","[3,1]","","",""
"","canvas-keyboard-response","69","118366","0.0-6.0-0.9","559","","","","","pre trial waiting period","null","null","","","critical","c","d","t","164","240","237.1485","162.6685","240","164","spektor","0.02","w","240","164","164","240","237.1485","162.6685","39360","39360","38576.5967","tc","null","null","null","null","null","null","[3,1]","463.18457545624517","202.51650109769832","513.6992865864211"
"","canvas-keyboard-response","70","118390","0.0-6.0-1.9","559","","","","","clear_screen","null","null","","","critical","c","d","t","164","240","237.1485","162.6685","240","164","spektor","0.02","w","240","164","164","240","237.1485","162.6685","39360","39360","38576.5967","tc","null","null","null","null","null","null","[3,1]","463.18457545624517","202.51650109769832","513.6992865864211"
"","canvas-keyboard-response","71","118898","0.0-6.0-2.9","559","","","","","rectangles no change","null","null","","","critical","c","d","t","164","240","237.1485","162.6685","240","164","spektor","0.02","w","240","164","164","240","237.1485","162.6685","39360","39360","38576.5967","tc","null","null","null","null","null","null","[3,1]","463.18457545624517","202.51650109769832","513.6992865864211"
"","canvas-keyboard-response","72","120239","0.0-6.0-3.9","559","","","","","rectangles with change","null","null","","","critical","c","d","t","164","240","237.1485","162.6685","240","164","spektor","0.02","w","240","164","164","240","237.1485","162.6685","39360","39360","38576.5967","tc","null","null","null","null","null","null","[3,1]","463.18457545624517","202.51650109769832","513.6992865864211"
"","canvas-keyboard-response","73","120259","0.0-6.0-4.9","559","","","","","clear_screen","null","null","","","critical","c","d","t","164","240","237.1485","162.6685","240","164","spektor","0.02","w","240","164","164","240","237.1485","162.6685","39360","39360","38576.5967","tc","null","null","null","null","null","null","[3,1]","463.18457545624517","202.51650109769832","513.6992865864211"
"","canvas-keyboard-response","74","120906","0.0-6.0-5.9","559","","","","","make choice","640","1","","","critical","c","d","t","164","240","237.1485","162.6685","240","164","spektor","0.02","w","240","164","164","240","237.1485","162.6685","39360","39360","38576.5967","tc","null","null","null","null","null","null","[3,1]","","",""
"","canvas-keyboard-response","75","120926","0.0-6.0-6.9","559","","","","","clear_screen","null","null","","","critical","c","d","t","164","240","237.1485","162.6685","240","164","spektor","0.02","w","240","164","164","240","237.1485","162.6685","39360","39360","38576.5967","tc","null","null","null","null","null","null","[3,1]","","",""
"","canvas-keyboard-response","76","121127","0.0-6.0-0.10","559","","","","","pre trial waiting period","null","null","","","catch","sw","l","sh","180","200","201","226","230","191","trueblood","null","null","null","null","null","null","null","null","null","null","null","","180","200","260","200","36000","52000","[1,2]","486.84121917916275","476.51426485358274","488.0702621371432"
"","canvas-keyboard-response","77","121148","0.0-6.0-1.10","559","","","","","clear_screen","null","null","","","catch","sw","l","sh","180","200","201","226","230","191","trueblood","null","null","null","null","null","null","null","null","null","null","null","","180","200","260","200","36000","52000","[1,2]","486.84121917916275","476.51426485358274","488.0702621371432"
"","canvas-keyboard-response","78","121655","0.0-6.0-2.10","559","","","","","rectangles no change","null","null","","","catch","sw","l","sh","180","200","201","226","230","191","trueblood","null","null","null","null","null","null","null","null","null","null","null","","180","200","260","200","36000","52000","[1,2]","486.84121917916275","476.51426485358274","488.0702621371432"
"","canvas-keyboard-response","79","122994","0.0-6.0-3.10","559","","","","","rectangles with change","null","null","","","catch","sw","l","sh","180","200","201","226","230","191","trueblood","null","null","null","null","null","null","null","null","null","null","null","","180","200","260","200","36000","52000","[1,2]","486.84121917916275","476.51426485358274","488.0702621371432"
"","canvas-keyboard-response","80","123018","0.0-6.0-4.10","559","","","","","clear_screen","null","null","","","catch","sw","l","sh","180","200","201","226","230","191","trueblood","null","null","null","null","null","null","null","null","null","null","null","","180","200","260","200","36000","52000","[1,2]","486.84121917916275","476.51426485358274","488.0702621371432"
"","canvas-keyboard-response","81","123417","0.0-6.0-5.10","559","","","","","make choice","394","2","","","catch","sw","l","sh","180","200","201","226","230","191","trueblood","null","null","null","null","null","null","null","null","null","null","null","","180","200","260","200","36000","52000","[1,2]","","",""
"","canvas-keyboard-response","82","123433","0.0-6.0-6.10","559","","","","","clear_screen","null","null","","","catch","sw","l","sh","180","200","201","226","230","191","trueblood","null","null","null","null","null","null","null","null","null","null","null","","180","200","260","200","36000","52000","[1,2]","","",""
"","canvas-keyboard-response","83","123633","0.0-6.0-0.11","559","","","","","pre trial waiting period","null","null","","","critical","d","t","c","154.6796","220.0396","164","240","240","164","spektor","0.14","h","164","240","240","164","154.6796","220.0396","39360","39360","34035.6388","dc","null","null","null","null","null","null","[1,3]","477.9575131770775","106.90043176023366","527.3067249662424"
"","canvas-keyboard-response","84","123654","0.0-6.0-1.11","559","","","","","clear_screen","null","null","","","critical","d","t","c","154.6796","220.0396","164","240","240","164","spektor","0.14","h","164","240","240","164","154.6796","220.0396","39360","39360","34035.6388","dc","null","null","null","null","null","null","[1,3]","477.9575131770775","106.90043176023366","527.3067249662424"
"","canvas-keyboard-response","85","124162","0.0-6.0-2.11","559","","","","","rectangles no change","null","null","","","critical","d","t","c","154.6796","220.0396","164","240","240","164","spektor","0.14","h","164","240","240","164","154.6796","220.0396","39360","39360","34035.6388","dc","null","null","null","null","null","null","[1,3]","477.9575131770775","106.90043176023366","527.3067249662424"
"","canvas-keyboard-response","86","125503","0.0-6.0-3.11","559","","","","","rectangles with change","null","null","","","critical","d","t","c","154.6796","220.0396","164","240","240","164","spektor","0.14","h","164","240","240","164","154.6796","220.0396","39360","39360","34035.6388","dc","null","null","null","null","null","null","[1,3]","477.9575131770775","106.90043176023366","527.3067249662424"
"","canvas-keyboard-response","87","125521","0.0-6.0-4.11","559","","","","","clear_screen","null","null","","","critical","d","t","c","154.6796","220.0396","164","240","240","164","spektor","0.14","h","164","240","240","164","154.6796","220.0396","39360","39360","34035.6388","dc","null","null","null","null","null","null","[1,3]","477.9575131770775","106.90043176023366","527.3067249662424"
"","canvas-keyboard-response","88","126113","0.0-6.0-5.11","559","","","","","make choice","583","3","","","critical","d","t","c","154.6796","220.0396","164","240","240","164","spektor","0.14","h","164","240","240","164","154.6796","220.0396","39360","39360","34035.6388","dc","null","null","null","null","null","null","[1,3]","","",""
"","canvas-keyboard-response","89","126134","0.0-6.0-6.11","559","","","","","clear_screen","null","null","","","critical","d","t","c","154.6796","220.0396","164","240","240","164","spektor","0.14","h","164","240","240","164","154.6796","220.0396","39360","39360","34035.6388","dc","null","null","null","null","null","null","[1,3]","","",""
"","canvas-keyboard-response","90","126336","0.0-6.0-0.12","559","","","","","pre trial waiting period","null","null","","","critical","t","d","c","240","164","232.8713","160.6713","164","240","trueblood","0.05","w","240","164","164","240","232.8713","160.6713","39360","39360","37415.7294","td","null","null","null","null","null","null","[1,2]","477.7531544830403","501.0748519808564","446.70629076498244"
"","canvas-keyboard-response","91","126355","0.0-6.0-1.12","559","","","","","clear_screen","null","null","","","critical","t","d","c","240","164","232.8713","160.6713","164","240","trueblood","0.05","w","240","164","164","240","232.8713","160.6713","39360","39360","37415.7294","td","null","null","null","null","null","null","[1,2]","477.7531544830403","501.0748519808564","446.70629076498244"
"","canvas-keyboard-response","92","126863","0.0-6.0-2.12","559","","","","","rectangles no change","null","null","","","critical","t","d","c","240","164","232.8713","160.6713","164","240","trueblood","0.05","w","240","164","164","240","232.8713","160.6713","39360","39360","37415.7294","td","null","null","null","null","null","null","[1,2]","477.7531544830403","501.0748519808564","446.70629076498244"
"","canvas-keyboard-response","93","128202","0.0-6.0-3.12","559","","","","","rectangles with change","null","null","","","critical","t","d","c","240","164","232.8713","160.6713","164","240","trueblood","0.05","w","240","164","164","240","232.8713","160.6713","39360","39360","37415.7294","td","null","null","null","null","null","null","[1,2]","477.7531544830403","501.0748519808564","446.70629076498244"
"","canvas-keyboard-response","94","128217","0.0-6.0-4.12","559","","","","","clear_screen","null","null","","","critical","t","d","c","240","164","232.8713","160.6713","164","240","trueblood","0.05","w","240","164","164","240","232.8713","160.6713","39360","39360","37415.7294","td","null","null","null","null","null","null","[1,2]","477.7531544830403","501.0748519808564","446.70629076498244"
"","canvas-keyboard-response","95","130409","0.0-6.0-5.12","559","","","","","make choice","2184","2","","","critical","t","d","c","240","164","232.8713","160.6713","164","240","trueblood","0.05","w","240","164","164","240","232.8713","160.6713","39360","39360","37415.7294","td","null","null","null","null","null","null","[1,2]","","",""
"","canvas-keyboard-response","96","130427","0.0-6.0-6.12","559","","","","","clear_screen","null","null","","","critical","t","d","c","240","164","232.8713","160.6713","164","240","trueblood","0.05","w","240","164","164","240","232.8713","160.6713","39360","39360","37415.7294","td","null","null","null","null","null","null","[1,2]","","",""
"","canvas-keyboard-response","97","130628","0.0-6.0-0.13","559","","","","","pre trial waiting period","null","null","","","catch","l","sh","sw","178","271","177","181","185","237","spektor","null","null","null","null","null","null","null","null","null","null","null","","180","200","260","200","36000","52000","[1,3]","449.7994829371541","149.00362077380788","487.18870661579626"
"","canvas-keyboard-response","98","130651","0.0-6.0-1.13","559","","","","","clear_screen","null","null","","","catch","l","sh","sw","178","271","177","181","185","237","spektor","null","null","null","null","null","null","null","null","null","null","null","","180","200","260","200","36000","52000","[1,3]","449.7994829371541","149.00362077380788","487.18870661579626"
"","canvas-keyboard-response","99","131159","0.0-6.0-2.13","559","","","","","rectangles no change","null","null","","","catch","l","sh","sw","178","271","177","181","185","237","spektor","null","null","null","null","null","null","null","null","null","null","null","","180","200","260","200","36000","52000","[1,3]","449.7994829371541","149.00362077380788","487.18870661579626"
"","canvas-keyboard-response","100","132498","0.0-6.0-3.13","559","","","","","rectangles with change","null","null","","","catch","l","sh","sw","178","271","177","181","185","237","spektor","null","null","null","null","null","null","null","null","null","null","null","","180","200","260","200","36000","52000","[1,3]","449.7994829371541","149.00362077380788","487.18870661579626"
"","canvas-keyboard-response","101","132521","0.0-6.0-4.13","559","","","","","clear_screen","null","null","","","catch","l","sh","sw","178","271","177","181","185","237","spektor","null","null","null","null","null","null","null","null","null","null","null","","180","200","260","200","36000","52000","[1,3]","449.7994829371541","149.00362077380788","487.18870661579626"
"","canvas-keyboard-response","102","133296","0.0-6.0-5.13","559","","","","","make choice","771","1","","","catch","l","sh","sw","178","271","177","181","185","237","spektor","null","null","null","null","null","null","null","null","null","null","null","","180","200","260","200","36000","52000","[1,3]","","",""
"","canvas-keyboard-response","103","133315","0.0-6.0-6.13","559","","","","","clear_screen","null","null","","","catch","l","sh","sw","178","271","177","181","185","237","spektor","null","null","null","null","null","null","null","null","null","null","null","","180","200","260","200","36000","52000","[1,3]","","",""
"","canvas-keyboard-response","104","133516","0.0-6.0-0.14","559","","","","","pre trial waiting period","null","null","","","critical","t","d","c","164","240","164","240","240","164","spektor","0","h","164","240","240","164","164","240","39360","39360","39360","td","null","null","null","null","null","null","[1,2]","463.1844274652992","126.55917565507751","540.7390020062659"
"","canvas-keyboard-response","105","133535","0.0-6.0-1.14","559","","","","","clear_screen","null","null","","","critical","t","d","c","164","240","164","240","240","164","spektor","0","h","164","240","240","164","164","240","39360","39360","39360","td","null","null","null","null","null","null","[1,2]","463.1844274652992","126.55917565507751","540.7390020062659"
"","canvas-keyboard-response","106","134044","0.0-6.0-2.14","559","","","","","rectangles no change","null","null","","","critical","t","d","c","164","240","164","240","240","164","spektor","0","h","164","240","240","164","164","240","39360","39360","39360","td","null","null","null","null","null","null","[1,2]","463.1844274652992","126.55917565507751","540.7390020062659"
"","canvas-keyboard-response","107","135380","0.0-6.0-3.14","559","","","","","rectangles with change","null","null","","","critical","t","d","c","164","240","164","240","240","164","spektor","0","h","164","240","240","164","164","240","39360","39360","39360","td","null","null","null","null","null","null","[1,2]","463.1844274652992","126.55917565507751","540.7390020062659"
"","canvas-keyboard-response","108","135402","0.0-6.0-4.14","559","","","","","clear_screen","null","null","","","critical","t","d","c","164","240","164","240","240","164","spektor","0","h","164","240","240","164","164","240","39360","39360","39360","td","null","null","null","null","null","null","[1,2]","463.1844274652992","126.55917565507751","540.7390020062659"
"","canvas-keyboard-response","109","135889","0.0-6.0-5.14","559","","","","","make choice","480","1","","","critical","t","d","c","164","240","164","240","240","164","spektor","0","h","164","240","240","164","164","240","39360","39360","39360","td","null","null","null","null","null","null","[1,2]","","",""
"","canvas-keyboard-response","110","135910","0.0-6.0-6.14","559","","","","","clear_screen","null","null","","","critical","t","d","c","164","240","164","240","240","164","spektor","0","h","164","240","240","164","164","240","39360","39360","39360","td","null","null","null","null","null","null","[1,2]","","",""
"","canvas-keyboard-response","111","136112","0.0-6.0-0.15","559","","","","","pre trial waiting period","null","null","","","critical","d","c","t","164","240","240","164","164","240","trueblood","0","h","164","240","240","164","164","240","39360","39360","39360","dc","null","null","null","null","null","null","[1,2]","421.2002667020735","487.74596768971423","450.1178006446365"
"","canvas-keyboard-response","112","136131","0.0-6.0-1.15","559","","","","","clear_screen","null","null","","","critical","d","c","t","164","240","240","164","164","240","trueblood","0","h","164","240","240","164","164","240","39360","39360","39360","dc","null","null","null","null","null","null","[1,2]","421.2002667020735","487.74596768971423","450.1178006446365"
"","canvas-keyboard-response","113","136638","0.0-6.0-2.15","559","","","","","rectangles no change","null","null","","","critical","d","c","t","164","240","240","164","164","240","trueblood","0","h","164","240","240","164","164","240","39360","39360","39360","dc","null","null","null","null","null","null","[1,2]","421.2002667020735","487.74596768971423","450.1178006446365"
"","canvas-keyboard-response","114","137977","0.0-6.0-3.15","559","","","","","rectangles with change","null","null","","","critical","d","c","t","164","240","240","164","164","240","trueblood","0","h","164","240","240","164","164","240","39360","39360","39360","dc","null","null","null","null","null","null","[1,2]","421.2002667020735","487.74596768971423","450.1178006446365"
"","canvas-keyboard-response","115","138001","0.0-6.0-4.15","559","","","","","clear_screen","null","null","","","critical","d","c","t","164","240","240","164","164","240","trueblood","0","h","164","240","240","164","164","240","39360","39360","39360","dc","null","null","null","null","null","null","[1,2]","421.2002667020735","487.74596768971423","450.1178006446365"
"","canvas-keyboard-response","116","138657","0.0-6.0-5.15","559","","","","","make choice","651","2","","","critical","d","c","t","164","240","240","164","164","240","trueblood","0","h","164","240","240","164","164","240","39360","39360","39360","dc","null","null","null","null","null","null","[1,2]","","",""
"","canvas-keyboard-response","117","138678","0.0-6.0-6.15","559","","","","","clear_screen","null","null","","","critical","d","c","t","164","240","240","164","164","240","trueblood","0","h","164","240","240","164","164","240","39360","39360","39360","dc","null","null","null","null","null","null","[1,2]","","",""
"","canvas-keyboard-response","118","138879","0.0-6.0-0.16","559","","","","","pre trial waiting period","null","null","","","catch","sh","sw","l","204","190","209","195","212","230","trueblood","null","null","null","null","null","null","null","null","null","null","null","","180","200","260","200","36000","52000","[1,3]","478.33975367285313","488.3161300026226","456.3787960311021"
"","canvas-keyboard-response","119","138899","0.0-6.0-1.16","559","","","","","clear_screen","null","null","","","catch","sh","sw","l","204","190","209","195","212","230","trueblood","null","null","null","null","null","null","null","null","null","null","null","","180","200","260","200","36000","52000","[1,3]","478.33975367285313","488.3161300026226","456.3787960311021"
"","canvas-keyboard-response","120","139410","0.0-6.0-2.16","559","","","","","rectangles no change","null","null","","","catch","sh","sw","l","204","190","209","195","212","230","trueblood","null","null","null","null","null","null","null","null","null","null","null","","180","200","260","200","36000","52000","[1,3]","478.33975367285313","488.3161300026226","456.3787960311021"
"","canvas-keyboard-response","121","140747","0.0-6.0-3.16","559","","","","","rectangles with change","null","null","","","catch","sh","sw","l","204","190","209","195","212","230","trueblood","null","null","null","null","null","null","null","null","null","null","null","","180","200","260","200","36000","52000","[1,3]","478.33975367285313","488.3161300026226","456.3787960311021"
"","canvas-keyboard-response","122","140766","0.0-6.0-4.16","559","","","","","clear_screen","null","null","","","catch","sh","sw","l","204","190","209","195","212","230","trueblood","null","null","null","null","null","null","null","null","null","null","null","","180","200","260","200","36000","52000","[1,3]","478.33975367285313","488.3161300026226","456.3787960311021"
"","canvas-keyboard-response","123","141161","0.0-6.0-5.16","559","","","","","make choice","390","3","","","catch","sh","sw","l","204","190","209","195","212","230","trueblood","null","null","null","null","null","null","null","null","null","null","null","","180","200","260","200","36000","52000","[1,3]","","",""
"","canvas-keyboard-response","124","141181","0.0-6.0-6.16","559","","","","","clear_screen","null","null","","","catch","sh","sw","l","204","190","209","195","212","230","trueblood","null","null","null","null","null","null","null","null","null","null","null","","180","200","260","200","36000","52000","[1,3]","","",""
"","canvas-keyboard-response","125","141383","0.0-6.0-0.17","559","","","","","pre trial waiting period","null","null","","","critical","t","d","c","240","164","240","164","164","240","trueblood","0","w","240","164","164","240","240","164","39360","39360","39360","td","null","null","null","null","null","null","[1,2]","474.5705902096253","480.4272988018977","465.39696742522017"
"","canvas-keyboard-response","126","141403","0.0-6.0-1.17","559","","","","","clear_screen","null","null","","","critical","t","d","c","240","164","240","164","164","240","trueblood","0","w","240","164","164","240","240","164","39360","39360","39360","td","null","null","null","null","null","null","[1,2]","474.5705902096253","480.4272988018977","465.39696742522017"
"","canvas-keyboard-response","127","141909","0.0-6.0-2.17","559","","","","","rectangles no change","null","null","","","critical","t","d","c","240","164","240","164","164","240","trueblood","0","w","240","164","164","240","240","164","39360","39360","39360","td","null","null","null","null","null","null","[1,2]","474.5705902096253","480.4272988018977","465.39696742522017"
"","canvas-keyboard-response","128","143250","0.0-6.0-3.17","559","","","","","rectangles with change","null","null","","","critical","t","d","c","240","164","240","164","164","240","trueblood","0","w","240","164","164","240","240","164","39360","39360","39360","td","null","null","null","null","null","null","[1,2]","474.5705902096253","480.4272988018977","465.39696742522017"
"","canvas-keyboard-response","129","143270","0.0-6.0-4.17","559","","","","","clear_screen","null","null","","","critical","t","d","c","240","164","240","164","164","240","trueblood","0","w","240","164","164","240","240","164","39360","39360","39360","td","null","null","null","null","null","null","[1,2]","474.5705902096253","480.4272988018977","465.39696742522017"
"","canvas-keyboard-response","130","143537","0.0-6.0-5.17","559","","","","","make choice","263","2","","","critical","t","d","c","240","164","240","164","164","240","trueblood","0","w","240","164","164","240","240","164","39360","39360","39360","td","null","null","null","null","null","null","[1,2]","","",""
"","canvas-keyboard-response","131","143556","0.0-6.0-6.17","559","","","","","clear_screen","null","null","","","critical","t","d","c","240","164","240","164","164","240","trueblood","0","w","240","164","164","240","240","164","39360","39360","39360","td","null","null","null","null","null","null","[1,2]","","",""
"","canvas-keyboard-response","132","143756","0.0-6.0-0.18","559","","","","","pre trial waiting period","null","null","","","critical","t","d","c","240","164","237.1485","162.6685","164","240","spektor","0.02","w","240","164","164","240","237.1485","162.6685","39360","39360","38576.5967","td","null","null","null","null","null","null","[1,2]","523.4574421870661","200.2841068699782","474.51552776178346"
"","canvas-keyboard-response","133","143779","0.0-6.0-1.18","559","","","","","clear_screen","null","null","","","critical","t","d","c","240","164","237.1485","162.6685","164","240","spektor","0.02","w","240","164","164","240","237.1485","162.6685","39360","39360","38576.5967","td","null","null","null","null","null","null","[1,2]","523.4574421870661","200.2841068699782","474.51552776178346"
"","canvas-keyboard-response","134","144287","0.0-6.0-2.18","559","","","","","rectangles no change","null","null","","","critical","t","d","c","240","164","237.1485","162.6685","164","240","spektor","0.02","w","240","164","164","240","237.1485","162.6685","39360","39360","38576.5967","td","null","null","null","null","null","null","[1,2]","523.4574421870661","200.2841068699782","474.51552776178346"
"","canvas-keyboard-response","135","145626","0.0-6.0-3.18","559","","","","","rectangles with change","null","null","","","critical","t","d","c","240","164","237.1485","162.6685","164","240","spektor","0.02","w","240","164","164","240","237.1485","162.6685","39360","39360","38576.5967","td","null","null","null","null","null","null","[1,2]","523.4574421870661","200.2841068699782","474.51552776178346"
"","canvas-keyboard-response","136","145647","0.0-6.0-4.18","559","","","","","clear_screen","null","null","","","critical","t","d","c","240","164","237.1485","162.6685","164","240","spektor","0.02","w","240","164","164","240","237.1485","162.6685","39360","39360","38576.5967","td","null","null","null","null","null","null","[1,2]","523.4574421870661","200.2841068699782","474.51552776178346"
"","canvas-keyboard-response","137","145672","0.0-6.0-5.18","559","","","","","make choice","19","2","","","critical","t","d","c","240","164","237.1485","162.6685","164","240","spektor","0.02","w","240","164","164","240","237.1485","162.6685","39360","39360","38576.5967","td","null","null","null","null","null","null","[1,2]","","",""
"","canvas-keyboard-response","138","145688","0.0-6.0-6.18","559","","","","","clear_screen","null","null","","","critical","t","d","c","240","164","237.1485","162.6685","164","240","spektor","0.02","w","240","164","164","240","237.1485","162.6685","39360","39360","38576.5967","td","null","null","null","null","null","null","[1,2]","","",""
"","canvas-keyboard-response","139","145890","0.0-6.0-0.19","559","","","","","pre trial waiting period","null","null","","","critical","t","c","d","240","164","164","240","232.8713","160.6713","spektor","0.05","w","240","164","164","240","232.8713","160.6713","39360","39360","37415.7294","td","null","null","null","null","null","null","[1,3]","503.46231082440937","156.4574930993832","519.9186493237374"
"","canvas-keyboard-response","140","145913","0.0-6.0-1.19","559","","","","","clear_screen","null","null","","","critical","t","c","d","240","164","164","240","232.8713","160.6713","spektor","0.05","w","240","164","164","240","232.8713","160.6713","39360","39360","37415.7294","td","null","null","null","null","null","null","[1,3]","503.46231082440937","156.4574930993832","519.9186493237374"
"","canvas-keyboard-response","141","146420","0.0-6.0-2.19","559","","","","","rectangles no change","null","null","","","critical","t","c","d","240","164","164","240","232.8713","160.6713","spektor","0.05","w","240","164","164","240","232.8713","160.6713","39360","39360","37415.7294","td","null","null","null","null","null","null","[1,3]","503.46231082440937","156.4574930993832","519.9186493237374"
"","canvas-keyboard-response","142","147758","0.0-6.0-3.19","559","","","","","rectangles with change","null","null","","","critical","t","c","d","240","164","164","240","232.8713","160.6713","spektor","0.05","w","240","164","164","240","232.8713","160.6713","39360","39360","37415.7294","td","null","null","null","null","null","null","[1,3]","503.46231082440937","156.4574930993832","519.9186493237374"
"","canvas-keyboard-response","143","147782","0.0-6.0-4.19","559","","","","","clear_screen","null","null","","","critical","t","c","d","240","164","164","240","232.8713","160.6713","spektor","0.05","w","240","164","164","240","232.8713","160.6713","39360","39360","37415.7294","td","null","null","null","null","null","null","[1,3]","503.46231082440937","156.4574930993832","519.9186493237374"
"","canvas-keyboard-response","144","154803","0.0-6.0-5.19","559","","","","","make choice","7013","3","","","critical","t","c","d","240","164","164","240","232.8713","160.6713","spektor","0.05","w","240","164","164","240","232.8713","160.6713","39360","39360","37415.7294","td","null","null","null","null","null","null","[1,3]","","",""
"","canvas-keyboard-response","145","154823","0.0-6.0-6.19","559","","","","","clear_screen","null","null","","","critical","t","c","d","240","164","164","240","232.8713","160.6713","spektor","0.05","w","240","164","164","240","232.8713","160.6713","39360","39360","37415.7294","td","null","null","null","null","null","null","[1,3]","","",""
"","canvas-keyboard-response","146","155026","0.0-6.0-0.20","559","","","","","pre trial waiting period","null","null","","","critical","c","t","d","240","164","164","240","158.0083","227.1683","spektor","0.09","h","164","240","240","164","158.0083","227.1683","39360","39360","35894.4834","tc","null","null","null","null","null","null","[2,1]","512.1492580037649","102.12225844719471","464.9313991395094"
"","canvas-keyboard-response","147","155051","0.0-6.0-1.20","559","","","","","clear_screen","null","null","","","critical","c","t","d","240","164","164","240","158.0083","227.1683","spektor","0.09","h","164","240","240","164","158.0083","227.1683","39360","39360","35894.4834","tc","null","null","null","null","null","null","[2,1]","512.1492580037649","102.12225844719471","464.9313991395094"
"","canvas-keyboard-response","148","155560","0.0-6.0-2.20","559","","","","","rectangles no change","null","null","","","critical","c","t","d","240","164","164","240","158.0083","227.1683","spektor","0.09","h","164","240","240","164","158.0083","227.1683","39360","39360","35894.4834","tc","null","null","null","null","null","null","[2,1]","512.1492580037649","102.12225844719471","464.9313991395094"
"","canvas-keyboard-response","149","156902","0.0-6.0-3.20","559","","","","","rectangles with change","null","null","","","critical","c","t","d","240","164","164","240","158.0083","227.1683","spektor","0.09","h","164","240","240","164","158.0083","227.1683","39360","39360","35894.4834","tc","null","null","null","null","null","null","[2,1]","512.1492580037649","102.12225844719471","464.9313991395094"
"","canvas-keyboard-response","150","156921","0.0-6.0-4.20","559","","","","","clear_screen","null","null","","","critical","c","t","d","240","164","164","240","158.0083","227.1683","spektor","0.09","h","164","240","240","164","158.0083","227.1683","39360","39360","35894.4834","tc","null","null","null","null","null","null","[2,1]","512.1492580037649","102.12225844719471","464.9313991395094"
"","canvas-keyboard-response","151","157290","0.0-6.0-5.20","559","","","","","make choice","361","1","","","critical","c","t","d","240","164","164","240","158.0083","227.1683","spektor","0.09","h","164","240","240","164","158.0083","227.1683","39360","39360","35894.4834","tc","null","null","null","null","null","null","[2,1]","","",""
"","canvas-keyboard-response","152","157310","0.0-6.0-6.20","559","","","","","clear_screen","null","null","","","critical","c","t","d","240","164","164","240","158.0083","227.1683","spektor","0.09","h","164","240","240","164","158.0083","227.1683","39360","39360","35894.4834","tc","null","null","null","null","null","null","[2,1]","","",""
"","canvas-keyboard-response","153","157512","0.0-6.0-0.21","559","","","","","pre trial waiting period","null","null","","","critical","d","c","t","237.1485","162.6685","164","240","240","164","trueblood","0.02","w","240","164","164","240","237.1485","162.6685","39360","39360","38576.5967","td","null","null","null","null","null","null","[3,1]","490.8625844062928","421.46643274494465","483.162297405009"
"","canvas-keyboard-response","154","157534","0.0-6.0-1.21","559","","","","","clear_screen","null","null","","","critical","d","c","t","237.1485","162.6685","164","240","240","164","trueblood","0.02","w","240","164","164","240","237.1485","162.6685","39360","39360","38576.5967","td","null","null","null","null","null","null","[3,1]","490.8625844062928","421.46643274494465","483.162297405009"
"","canvas-keyboard-response","155","158042","0.0-6.0-2.21","559","","","","","rectangles no change","null","null","","","critical","d","c","t","237.1485","162.6685","164","240","240","164","trueblood","0.02","w","240","164","164","240","237.1485","162.6685","39360","39360","38576.5967","td","null","null","null","null","null","null","[3,1]","490.8625844062928","421.46643274494465","483.162297405009"
"","canvas-keyboard-response","156","159382","0.0-6.0-3.21","559","","","","","rectangles with change","null","null","","","critical","d","c","t","237.1485","162.6685","164","240","240","164","trueblood","0.02","w","240","164","164","240","237.1485","162.6685","39360","39360","38576.5967","td","null","null","null","null","null","null","[3,1]","490.8625844062928","421.46643274494465","483.162297405009"
"","canvas-keyboard-response","157","159401","0.0-6.0-4.21","559","","","","","clear_screen","null","null","","","critical","d","c","t","237.1485","162.6685","164","240","240","164","trueblood","0.02","w","240","164","164","240","237.1485","162.6685","39360","39360","38576.5967","td","null","null","null","null","null","null","[3,1]","490.8625844062928","421.46643274494465","483.162297405009"
"","canvas-keyboard-response","158","159857","0.0-6.0-5.21","559","","","","","make choice","444","3","","","critical","d","c","t","237.1485","162.6685","164","240","240","164","trueblood","0.02","w","240","164","164","240","237.1485","162.6685","39360","39360","38576.5967","td","null","null","null","null","null","null","[3,1]","","",""
"","canvas-keyboard-response","159","159879","0.0-6.0-6.21","559","","","","","clear_screen","null","null","","","critical","d","c","t","237.1485","162.6685","164","240","240","164","trueblood","0.02","w","240","164","164","240","237.1485","162.6685","39360","39360","38576.5967","td","null","null","null","null","null","null","[3,1]","","",""
"","canvas-keyboard-response","160","160080","0.0-6.0-0.22","559","","","","","pre trial waiting period","null","null","","","critical","d","t","c","158.0083","227.1683","164","240","240","164","spektor","0.09","h","164","240","240","164","158.0083","227.1683","39360","39360","35894.4834","td","null","null","null","null","null","null","[2,1]","509.0961874126207","109.94827747771366","542.3267739829073"
"","canvas-keyboard-response","161","160103","0.0-6.0-1.22","559","","","","","clear_screen","null","null","","","critical","d","t","c","158.0083","227.1683","164","240","240","164","spektor","0.09","h","164","240","240","164","158.0083","227.1683","39360","39360","35894.4834","td","null","null","null","null","null","null","[2,1]","509.0961874126207","109.94827747771366","542.3267739829073"
"","canvas-keyboard-response","162","160612","0.0-6.0-2.22","559","","","","","rectangles no change","null","null","","","critical","d","t","c","158.0083","227.1683","164","240","240","164","spektor","0.09","h","164","240","240","164","158.0083","227.1683","39360","39360","35894.4834","td","null","null","null","null","null","null","[2,1]","509.0961874126207","109.94827747771366","542.3267739829073"
"","canvas-keyboard-response","163","161951","0.0-6.0-3.22","559","","","","","rectangles with change","null","null","","","critical","d","t","c","158.0083","227.1683","164","240","240","164","spektor","0.09","h","164","240","240","164","158.0083","227.1683","39360","39360","35894.4834","td","null","null","null","null","null","null","[2,1]","509.0961874126207","109.94827747771366","542.3267739829073"
"","canvas-keyboard-response","164","161974","0.0-6.0-4.22","559","","","","","clear_screen","null","null","","","critical","d","t","c","158.0083","227.1683","164","240","240","164","spektor","0.09","h","164","240","240","164","158.0083","227.1683","39360","39360","35894.4834","td","null","null","null","null","null","null","[2,1]","509.0961874126207","109.94827747771366","542.3267739829073"
"","canvas-keyboard-response","165","162729","0.0-6.0-5.22","559","","","","","make choice","748","2","","","critical","d","t","c","158.0083","227.1683","164","240","240","164","spektor","0.09","h","164","240","240","164","158.0083","227.1683","39360","39360","35894.4834","td","null","null","null","null","null","null","[2,1]","","",""
"","canvas-keyboard-response","166","162749","0.0-6.0-6.22","559","","","","","clear_screen","null","null","","","critical","d","t","c","158.0083","227.1683","164","240","240","164","spektor","0.09","h","164","240","240","164","158.0083","227.1683","39360","39360","35894.4834","td","null","null","null","null","null","null","[2,1]","","",""
"","canvas-keyboard-response","167","162950","0.0-6.0-0.23","559","","","","","pre trial waiting period","null","null","","","catch","sh","l","sw","235","156","228","236","179","230","trueblood","null","null","null","null","null","null","null","null","null","null","null","","180","200","260","200","36000","52000","[2,3]","498.45851765467455","441.80499982768646","435.38027591044334"
"","canvas-keyboard-response","168","162970","0.0-6.0-1.23","559","","","","","clear_screen","null","null","","","catch","sh","l","sw","235","156","228","236","179","230","trueblood","null","null","null","null","null","null","null","null","null","null","null","","180","200","260","200","36000","52000","[2,3]","498.45851765467455","441.80499982768646","435.38027591044334"
"","canvas-keyboard-response","169","163479","0.0-6.0-2.23","559","","","","","rectangles no change","null","null","","","catch","sh","l","sw","235","156","228","236","179","230","trueblood","null","null","null","null","null","null","null","null","null","null","null","","180","200","260","200","36000","52000","[2,3]","498.45851765467455","441.80499982768646","435.38027591044334"
"","canvas-keyboard-response","170","164815","0.0-6.0-3.23","559","","","","","rectangles with change","null","null","","","catch","sh","l","sw","235","156","228","236","179","230","trueblood","null","null","null","null","null","null","null","null","null","null","null","","180","200","260","200","36000","52000","[2,3]","498.45851765467455","441.80499982768646","435.38027591044334"
"","canvas-keyboard-response","171","164839","0.0-6.0-4.23","559","","","","","clear_screen","null","null","","","catch","sh","l","sw","235","156","228","236","179","230","trueblood","null","null","null","null","null","null","null","null","null","null","null","","180","200","260","200","36000","52000","[2,3]","498.45851765467455","441.80499982768646","435.38027591044334"
"","canvas-keyboard-response","172","165210","0.0-6.0-5.23","559","","","","","make choice","365","2","","","catch","sh","l","sw","235","156","228","236","179","230","trueblood","null","null","null","null","null","null","null","null","null","null","null","","180","200","260","200","36000","52000","[2,3]","","",""
"","canvas-keyboard-response","173","165228","0.0-6.0-6.23","559","","","","","clear_screen","null","null","","","catch","sh","l","sw","235","156","228","236","179","230","trueblood","null","null","null","null","null","null","null","null","null","null","null","","180","200","260","200","36000","52000","[2,3]","","",""
"","canvas-keyboard-response","174","165429","0.0-6.0-0.24","559","","","","","pre trial waiting period","null","null","","","critical","t","d","c","164","240","164","240","240","164","trueblood","0","h","164","240","240","164","164","240","39360","39360","39360","tc","null","null","null","null","null","null","[1,3]","426.75443453876125","464.9504720284256","506.2801928140959"
"","canvas-keyboard-response","175","165448","0.0-6.0-1.24","559","","","","","clear_screen","null","null","","","critical","t","d","c","164","240","164","240","240","164","trueblood","0","h","164","240","240","164","164","240","39360","39360","39360","tc","null","null","null","null","null","null","[1,3]","426.75443453876125","464.9504720284256","506.2801928140959"
"","canvas-keyboard-response","176","165957","0.0-6.0-2.24","559","","","","","rectangles no change","null","null","","","critical","t","d","c","164","240","164","240","240","164","trueblood","0","h","164","240","240","164","164","240","39360","39360","39360","tc","null","null","null","null","null","null","[1,3]","426.75443453876125","464.9504720284256","506.2801928140959"
"","canvas-keyboard-response","177","167294","0.0-6.0-3.24","559","","","","","rectangles with change","null","null","","","critical","t","d","c","164","240","164","240","240","164","trueblood","0","h","164","240","240","164","164","240","39360","39360","39360","tc","null","null","null","null","null","null","[1,3]","426.75443453876125","464.9504720284256","506.2801928140959"
"","canvas-keyboard-response","178","167314","0.0-6.0-4.24","559","","","","","clear_screen","null","null","","","critical","t","d","c","164","240","164","240","240","164","trueblood","0","h","164","240","240","164","164","240","39360","39360","39360","tc","null","null","null","null","null","null","[1,3]","426.75443453876125","464.9504720284256","506.2801928140959"
"","canvas-keyboard-response","179","167673","0.0-6.0-5.24","559","","","","","make choice","352","3","","","critical","t","d","c","164","240","164","240","240","164","trueblood","0","h","164","240","240","164","164","240","39360","39360","39360","tc","null","null","null","null","null","null","[1,3]","","",""
"","canvas-keyboard-response","180","167693","0.0-6.0-6.24","559","","","","","clear_screen","null","null","","","critical","t","d","c","164","240","164","240","240","164","trueblood","0","h","164","240","240","164","164","240","39360","39360","39360","tc","null","null","null","null","null","null","[1,3]","","",""
"","canvas-keyboard-response","181","167893","0.0-6.0-0.25","559","","","","","pre trial waiting period","null","null","","","catch","l","sw","sh","189","227","210","186","234","219","spektor","null","null","null","null","null","null","null","null","null","null","null","","180","200","260","200","36000","52000","[1,3]","488.8423055879726","154.56616284521562","509.46472416449404"
"","canvas-keyboard-response","182","167918","0.0-6.0-1.25","559","","","","","clear_screen","null","null","","","catch","l","sw","sh","189","227","210","186","234","219","spektor","null","null","null","null","null","null","null","null","null","null","null","","180","200","260","200","36000","52000","[1,3]","488.8423055879726","154.56616284521562","509.46472416449404"
"","canvas-keyboard-response","183","168426","0.0-6.0-2.25","559","","","","","rectangles no change","null","null","","","catch","l","sw","sh","189","227","210","186","234","219","spektor","null","null","null","null","null","null","null","null","null","null","null","","180","200","260","200","36000","52000","[1,3]","488.8423055879726","154.56616284521562","509.46472416449404"
"","canvas-keyboard-response","184","169764","0.0-6.0-3.25","559","","","","","rectangles with change","null","null","","","catch","l","sw","sh","189","227","210","186","234","219","spektor","null","null","null","null","null","null","null","null","null","null","null","","180","200","260","200","36000","52000","[1,3]","488.8423055879726","154.56616284521562","509.46472416449404"
"","canvas-keyboard-response","185","169782","0.0-6.0-4.25","559","","","","","clear_screen","null","null","","","catch","l","sw","sh","189","227","210","186","234","219","spektor","null","null","null","null","null","null","null","null","null","null","null","","180","200","260","200","36000","52000","[1,3]","488.8423055879726","154.56616284521562","509.46472416449404"
"","canvas-keyboard-response","186","170130","0.0-6.0-5.25","559","","","","","make choice","339","3","","","catch","l","sw","sh","189","227","210","186","234","219","spektor","null","null","null","null","null","null","null","null","null","null","null","","180","200","260","200","36000","52000","[1,3]","","",""
"","canvas-keyboard-response","187","170147","0.0-6.0-6.25","559","","","","","clear_screen","null","null","","","catch","l","sw","sh","189","227","210","186","234","219","spektor","null","null","null","null","null","null","null","null","null","null","null","","180","200","260","200","36000","52000","[1,3]","","",""
"","canvas-keyboard-response","188","170348","0.0-6.0-0.26","559","","","","","pre trial waiting period","null","null","","","critical","c","d","t","240","164","154.6796","220.0396","164","240","spektor","0.14","h","164","240","240","164","154.6796","220.0396","39360","39360","34035.6388","td","null","null","null","null","null","null","[3,2]","506.92665369288665","133.4040245489678","455.9745053450114"
"","canvas-keyboard-response","189","170370","0.0-6.0-1.26","559","","","","","clear_screen","null","null","","","critical","c","d","t","240","164","154.6796","220.0396","164","240","spektor","0.14","h","164","240","240","164","154.6796","220.0396","39360","39360","34035.6388","td","null","null","null","null","null","null","[3,2]","506.92665369288665","133.4040245489678","455.9745053450114"
"","canvas-keyboard-response","190","170876","0.0-6.0-2.26","559","","","","","rectangles no change","null","null","","","critical","c","d","t","240","164","154.6796","220.0396","164","240","spektor","0.14","h","164","240","240","164","154.6796","220.0396","39360","39360","34035.6388","td","null","null","null","null","null","null","[3,2]","506.92665369288665","133.4040245489678","455.9745053450114"
"","canvas-keyboard-response","191","172215","0.0-6.0-3.26","559","","","","","rectangles with change","null","null","","","critical","c","d","t","240","164","154.6796","220.0396","164","240","spektor","0.14","h","164","240","240","164","154.6796","220.0396","39360","39360","34035.6388","td","null","null","null","null","null","null","[3,2]","506.92665369288665","133.4040245489678","455.9745053450114"
"","canvas-keyboard-response","192","172239","0.0-6.0-4.26","559","","","","","clear_screen","null","null","","","critical","c","d","t","240","164","154.6796","220.0396","164","240","spektor","0.14","h","164","240","240","164","154.6796","220.0396","39360","39360","34035.6388","td","null","null","null","null","null","null","[3,2]","506.92665369288665","133.4040245489678","455.9745053450114"
"","canvas-keyboard-response","193","172561","0.0-6.0-5.26","559","","","","","make choice","317","3","","","critical","c","d","t","240","164","154.6796","220.0396","164","240","spektor","0.14","h","164","240","240","164","154.6796","220.0396","39360","39360","34035.6388","td","null","null","null","null","null","null","[3,2]","","",""
"","canvas-keyboard-response","194","172582","0.0-6.0-6.26","559","","","","","clear_screen","null","null","","","critical","c","d","t","240","164","154.6796","220.0396","164","240","spektor","0.14","h","164","240","240","164","154.6796","220.0396","39360","39360","34035.6388","td","null","null","null","null","null","null","[3,2]","","",""
"","canvas-keyboard-response","195","172783","0.0-6.0-0.27","559","","","","","pre trial waiting period","null","null","","","catch","sw","sh","l","180","200","173","211","216","240","spektor","null","null","null","null","null","null","null","null","null","null","null","","180","200","260","200","36000","52000","[2,3]","484.8851433217392","138.86726672174217","475.2849667701284"
"","canvas-keyboard-response","196","172806","0.0-6.0-1.27","559","","","","","clear_screen","null","null","","","catch","sw","sh","l","180","200","173","211","216","240","spektor","null","null","null","null","null","null","null","null","null","null","null","","180","200","260","200","36000","52000","[2,3]","484.8851433217392","138.86726672174217","475.2849667701284"
"","canvas-keyboard-response","197","173319","0.0-6.0-2.27","559","","","","","rectangles no change","null","null","","","catch","sw","sh","l","180","200","173","211","216","240","spektor","null","null","null","null","null","null","null","null","null","null","null","","180","200","260","200","36000","52000","[2,3]","484.8851433217392","138.86726672174217","475.2849667701284"
"","canvas-keyboard-response","198","174658","0.0-6.0-3.27","559","","","","","rectangles with change","null","null","","","catch","sw","sh","l","180","200","173","211","216","240","spektor","null","null","null","null","null","null","null","null","null","null","null","","180","200","260","200","36000","52000","[2,3]","484.8851433217392","138.86726672174217","475.2849667701284"
"","canvas-keyboard-response","199","174679","0.0-6.0-4.27","559","","","","","clear_screen","null","null","","","catch","sw","sh","l","180","200","173","211","216","240","spektor","null","null","null","null","null","null","null","null","null","null","null","","180","200","260","200","36000","52000","[2,3]","484.8851433217392","138.86726672174217","475.2849667701284"
"","canvas-keyboard-response","200","175034","0.0-6.0-5.27","559","","","","","make choice","347","3","","","catch","sw","sh","l","180","200","173","211","216","240","spektor","null","null","null","null","null","null","null","null","null","null","null","","180","200","260","200","36000","52000","[2,3]","","",""
"","canvas-keyboard-response","201","175052","0.0-6.0-6.27","559","","","","","clear_screen","null","null","","","catch","sw","sh","l","180","200","173","211","216","240","spektor","null","null","null","null","null","null","null","null","null","null","null","","180","200","260","200","36000","52000","[2,3]","","",""
"","canvas-keyboard-response","202","175252","0.0-6.0-0.28","559","","","","","pre trial waiting period","null","null","","","critical","c","t","d","164","240","240","164","240","164","trueblood","0","w","240","164","164","240","240","164","39360","39360","39360","tc","null","null","null","null","null","null","[2,1]","448.72797808346525","497.64119351081206","517.0429987860655"
"","canvas-keyboard-response","203","175275","0.0-6.0-1.28","559","","","","","clear_screen","null","null","","","critical","c","t","d","164","240","240","164","240","164","trueblood","0","w","240","164","164","240","240","164","39360","39360","39360","tc","null","null","null","null","null","null","[2,1]","448.72797808346525","497.64119351081206","517.0429987860655"
"","canvas-keyboard-response","204","175780","0.0-6.0-2.28","559","","","","","rectangles no change","null","null","","","critical","c","t","d","164","240","240","164","240","164","trueblood","0","w","240","164","164","240","240","164","39360","39360","39360","tc","null","null","null","null","null","null","[2,1]","448.72797808346525","497.64119351081206","517.0429987860655"
"","canvas-keyboard-response","205","177118","0.0-6.0-3.28","559","","","","","rectangles with change","null","null","","","critical","c","t","d","164","240","240","164","240","164","trueblood","0","w","240","164","164","240","240","164","39360","39360","39360","tc","null","null","null","null","null","null","[2,1]","448.72797808346525","497.64119351081206","517.0429987860655"
"","canvas-keyboard-response","206","177139","0.0-6.0-4.28","559","","","","","clear_screen","null","null","","","critical","c","t","d","164","240","240","164","240","164","trueblood","0","w","240","164","164","240","240","164","39360","39360","39360","tc","null","null","null","null","null","null","[2,1]","448.72797808346525","497.64119351081206","517.0429987860655"
"","canvas-keyboard-response","207","177553","0.0-6.0-5.28","559","","","","","make choice","407","1","","","critical","c","t","d","164","240","240","164","240","164","trueblood","0","w","240","164","164","240","240","164","39360","39360","39360","tc","null","null","null","null","null","null","[2,1]","","",""
"","canvas-keyboard-response","208","177574","0.0-6.0-6.28","559","","","","","clear_screen","null","null","","","critical","c","t","d","164","240","240","164","240","164","trueblood","0","w","240","164","164","240","240","164","39360","39360","39360","tc","null","null","null","null","null","null","[2,1]","","",""
"","canvas-keyboard-response","209","177775","0.0-6.0-0.29","559","","","","","pre trial waiting period","null","null","","","catch","sh","sw","l","210","206","146","197","261","196","spektor","null","null","null","null","null","null","null","null","null","null","null","","180","200","260","200","36000","52000","[2,3]","516.9903062839172","155.2402768316922","517.5648600922821"
"","canvas-keyboard-response","210","177800","0.0-6.0-1.29","559","","","","","clear_screen","null","null","","","catch","sh","sw","l","210","206","146","197","261","196","spektor","null","null","null","null","null","null","null","null","null","null","null","","180","200","260","200","36000","52000","[2,3]","516.9903062839172","155.2402768316922","517.5648600922821"
"","canvas-keyboard-response","211","178306","0.0-6.0-2.29","559","","","","","rectangles no change","null","null","","","catch","sh","sw","l","210","206","146","197","261","196","spektor","null","null","null","null","null","null","null","null","null","null","null","","180","200","260","200","36000","52000","[2,3]","516.9903062839172","155.2402768316922","517.5648600922821"
"","canvas-keyboard-response","212","179643","0.0-6.0-3.29","559","","","","","rectangles with change","null","null","","","catch","sh","sw","l","210","206","146","197","261","196","spektor","null","null","null","null","null","null","null","null","null","null","null","","180","200","260","200","36000","52000","[2,3]","516.9903062839172","155.2402768316922","517.5648600922821"
"","canvas-keyboard-response","213","179664","0.0-6.0-4.29","559","","","","","clear_screen","null","null","","","catch","sh","sw","l","210","206","146","197","261","196","spektor","null","null","null","null","null","null","null","null","null","null","null","","180","200","260","200","36000","52000","[2,3]","516.9903062839172","155.2402768316922","517.5648600922821"
"","canvas-keyboard-response","214","179978","0.0-6.0-5.29","559","","","","","make choice","307","3","","","catch","sh","sw","l","210","206","146","197","261","196","spektor","null","null","null","null","null","null","null","null","null","null","null","","180","200","260","200","36000","52000","[2,3]","","",""
"","canvas-keyboard-response","215","179998","0.0-6.0-6.29","559","","","","","clear_screen","null","null","","","catch","sh","sw","l","210","206","146","197","261","196","spektor","null","null","null","null","null","null","null","null","null","null","null","","180","200","260","200","36000","52000","[2,3]","","",""
"","canvas-keyboard-response","216","180199","0.0-6.0-0.30","559","","","","","pre trial waiting period","null","null","","","catch","l","sh","sw","204","227","189","141","149","211","spektor","null","null","null","null","null","null","null","null","null","null","null","","180","200","260","200","36000","52000","[1,2]","474.0882933682949","196.79943132192494","499.6414333798032"
"","canvas-keyboard-response","217","180219","0.0-6.0-1.30","559","","","","","clear_screen","null","null","","","catch","l","sh","sw","204","227","189","141","149","211","spektor","null","null","null","null","null","null","null","null","null","null","null","","180","200","260","200","36000","52000","[1,2]","474.0882933682949","196.79943132192494","499.6414333798032"
"","canvas-keyboard-response","218","180728","0.0-6.0-2.30","559","","","","","rectangles no change","null","null","","","catch","l","sh","sw","204","227","189","141","149","211","spektor","null","null","null","null","null","null","null","null","null","null","null","","180","200","260","200","36000","52000","[1,2]","474.0882933682949","196.79943132192494","499.6414333798032"
"","canvas-keyboard-response","219","182071","0.0-6.0-3.30","559","","","","","rectangles with change","null","null","","","catch","l","sh","sw","204","227","189","141","149","211","spektor","null","null","null","null","null","null","null","null","null","null","null","","180","200","260","200","36000","52000","[1,2]","474.0882933682949","196.79943132192494","499.6414333798032"
"","canvas-keyboard-response","220","182090","0.0-6.0-4.30","559","","","","","clear_screen","null","null","","","catch","l","sh","sw","204","227","189","141","149","211","spektor","null","null","null","null","null","null","null","null","null","null","null","","180","200","260","200","36000","52000","[1,2]","474.0882933682949","196.79943132192494","499.6414333798032"
"","canvas-keyboard-response","221","182377","0.0-6.0-5.30","559","","","","","make choice","279","1","","","catch","l","sh","sw","204","227","189","141","149","211","spektor","null","null","null","null","null","null","null","null","null","null","null","","180","200","260","200","36000","52000","[1,2]","","",""
"","canvas-keyboard-response","222","182399","0.0-6.0-6.30","559","","","","","clear_screen","null","null","","","catch","l","sh","sw","204","227","189","141","149","211","spektor","null","null","null","null","null","null","null","null","null","null","null","","180","200","260","200","36000","52000","[1,2]","","",""
"","canvas-keyboard-response","223","182599","0.0-6.0-0.31","559","","","","","pre trial waiting period","null","null","","","catch","l","sw","sh","281","184","171","218","199","170","trueblood","null","null","null","null","null","null","null","null","null","null","null","","180","200","260","200","36000","52000","[1,2]","481.6652237792092","466.3402764592018","510.7146818714208"
"","canvas-keyboard-response","224","182619","0.0-6.0-1.31","559","","","","","clear_screen","null","null","","","catch","l","sw","sh","281","184","171","218","199","170","trueblood","null","null","null","null","null","null","null","null","null","null","null","","180","200","260","200","36000","52000","[1,2]","481.6652237792092","466.3402764592018","510.7146818714208"
"","canvas-keyboard-response","225","183126","0.0-6.0-2.31","559","","","","","rectangles no change","null","null","","","catch","l","sw","sh","281","184","171","218","199","170","trueblood","null","null","null","null","null","null","null","null","null","null","null","","180","200","260","200","36000","52000","[1,2]","481.6652237792092","466.3402764592018","510.7146818714208"
"","canvas-keyboard-response","226","184461","0.0-6.0-3.31","559","","","","","rectangles with change","null","null","","","catch","l","sw","sh","281","184","171","218","199","170","trueblood","null","null","null","null","null","null","null","null","null","null","null","","180","200","260","200","36000","52000","[1,2]","481.6652237792092","466.3402764592018","510.7146818714208"
"","canvas-keyboard-response","227","184478","0.0-6.0-4.31","559","","","","","clear_screen","null","null","","","catch","l","sw","sh","281","184","171","218","199","170","trueblood","null","null","null","null","null","null","null","null","null","null","null","","180","200","260","200","36000","52000","[1,2]","481.6652237792092","466.3402764592018","510.7146818714208"
"","canvas-keyboard-response","228","184785","0.0-6.0-5.31","559","","","","","make choice","300","1","","","catch","l","sw","sh","281","184","171","218","199","170","trueblood","null","null","null","null","null","null","null","null","null","null","null","","180","200","260","200","36000","52000","[1,2]","","",""
"","canvas-keyboard-response","229","184804","0.0-6.0-6.31","559","","","","","clear_screen","null","null","","","catch","l","sw","sh","281","184","171","218","199","170","trueblood","null","null","null","null","null","null","null","null","null","null","null","","180","200","260","200","36000","52000","[1,2]","","",""
"","canvas-keyboard-response","230","185005","0.0-6.0-0.32","559","","","","","pre trial waiting period","null","null","","","critical","t","c","d","240","164","164","240","237.1485","162.6685","trueblood","0.02","w","240","164","164","240","237.1485","162.6685","39360","39360","38576.5967","tc","null","null","null","null","null","null","[1,2]","482.79400024997227","456.23422106014107","508.13233590719165"
"","canvas-keyboard-response","231","185027","0.0-6.0-1.32","559","","","","","clear_screen","null","null","","","critical","t","c","d","240","164","164","240","237.1485","162.6685","trueblood","0.02","w","240","164","164","240","237.1485","162.6685","39360","39360","38576.5967","tc","null","null","null","null","null","null","[1,2]","482.79400024997227","456.23422106014107","508.13233590719165"
"","canvas-keyboard-response","232","185536","0.0-6.0-2.32","559","","","","","rectangles no change","null","null","","","critical","t","c","d","240","164","164","240","237.1485","162.6685","trueblood","0.02","w","240","164","164","240","237.1485","162.6685","39360","39360","38576.5967","tc","null","null","null","null","null","null","[1,2]","482.79400024997227","456.23422106014107","508.13233590719165"
"","canvas-keyboard-response","233","186875","0.0-6.0-3.32","559","","","","","rectangles with change","null","null","","","critical","t","c","d","240","164","164","240","237.1485","162.6685","trueblood","0.02","w","240","164","164","240","237.1485","162.6685","39360","39360","38576.5967","tc","null","null","null","null","null","null","[1,2]","482.79400024997227","456.23422106014107","508.13233590719165"
"","canvas-keyboard-response","234","186894","0.0-6.0-4.32","559","","","","","clear_screen","null","null","","","critical","t","c","d","240","164","164","240","237.1485","162.6685","trueblood","0.02","w","240","164","164","240","237.1485","162.6685","39360","39360","38576.5967","tc","null","null","null","null","null","null","[1,2]","482.79400024997227","456.23422106014107","508.13233590719165"
"","canvas-keyboard-response","235","187626","0.0-6.0-5.32","559","","","","","make choice","724","2","","","critical","t","c","d","240","164","164","240","237.1485","162.6685","trueblood","0.02","w","240","164","164","240","237.1485","162.6685","39360","39360","38576.5967","tc","null","null","null","null","null","null","[1,2]","","",""
"","canvas-keyboard-response","236","187646","0.0-6.0-6.32","559","","","","","clear_screen","null","null","","","critical","t","c","d","240","164","164","240","237.1485","162.6685","trueblood","0.02","w","240","164","164","240","237.1485","162.6685","39360","39360","38576.5967","tc","null","null","null","null","null","null","[1,2]","","",""
"","canvas-keyboard-response","237","187846","0.0-6.0-0.33","559","","","","","pre trial waiting period","null","null","","","critical","c","t","d","240","164","164","240","154.6796","220.0396","spektor","0.14","h","164","240","240","164","154.6796","220.0396","39360","39360","34035.6388","tc","null","null","null","null","null","null","[2,1]","502.056216161958","95.17411329449934","498.74561488304425"
"","canvas-keyboard-response","238","187867","0.0-6.0-1.33","559","","","","","clear_screen","null","null","","","critical","c","t","d","240","164","164","240","154.6796","220.0396","spektor","0.14","h","164","240","240","164","154.6796","220.0396","39360","39360","34035.6388","tc","null","null","null","null","null","null","[2,1]","502.056216161958","95.17411329449934","498.74561488304425"
"","canvas-keyboard-response","239","188376","0.0-6.0-2.33","559","","","","","rectangles no change","null","null","","","critical","c","t","d","240","164","164","240","154.6796","220.0396","spektor","0.14","h","164","240","240","164","154.6796","220.0396","39360","39360","34035.6388","tc","null","null","null","null","null","null","[2,1]","502.056216161958","95.17411329449934","498.74561488304425"
"","canvas-keyboard-response","240","189713","0.0-6.0-3.33","559","","","","","rectangles with change","null","null","","","critical","c","t","d","240","164","164","240","154.6796","220.0396","spektor","0.14","h","164","240","240","164","154.6796","220.0396","39360","39360","34035.6388","tc","null","null","null","null","null","null","[2,1]","502.056216161958","95.17411329449934","498.74561488304425"
"","canvas-keyboard-response","241","189732","0.0-6.0-4.33","559","","","","","clear_screen","null","null","","","critical","c","t","d","240","164","164","240","154.6796","220.0396","spektor","0.14","h","164","240","240","164","154.6796","220.0396","39360","39360","34035.6388","tc","null","null","null","null","null","null","[2,1]","502.056216161958","95.17411329449934","498.74561488304425"
"","canvas-keyboard-response","242","190266","0.0-6.0-5.33","559","","","","","make choice","528","1","","","critical","c","t","d","240","164","164","240","154.6796","220.0396","spektor","0.14","h","164","240","240","164","154.6796","220.0396","39360","39360","34035.6388","tc","null","null","null","null","null","null","[2,1]","","",""
"","canvas-keyboard-response","243","190286","0.0-6.0-6.33","559","","","","","clear_screen","null","null","","","critical","c","t","d","240","164","164","240","154.6796","220.0396","spektor","0.14","h","164","240","240","164","154.6796","220.0396","39360","39360","34035.6388","tc","null","null","null","null","null","null","[2,1]","","",""
"","canvas-keyboard-response","244","190487","0.0-6.0-0.34","559","","","","","pre trial waiting period","null","null","","","catch","sw","l","sh","180","200","256","238","194","183","spektor","null","null","null","null","null","null","null","null","null","null","null","","180","200","260","200","36000","52000","[1,2]","519.0278825361249","122.89813224470451","514.0962466872046"
"","canvas-keyboard-response","245","190508","0.0-6.0-1.34","559","","","","","clear_screen","null","null","","","catch","sw","l","sh","180","200","256","238","194","183","spektor","null","null","null","null","null","null","null","null","null","null","null","","180","200","260","200","36000","52000","[1,2]","519.0278825361249","122.89813224470451","514.0962466872046"
"","canvas-keyboard-response","246","191017","0.0-6.0-2.34","559","","","","","rectangles no change","null","null","","","catch","sw","l","sh","180","200","256","238","194","183","spektor","null","null","null","null","null","null","null","null","null","null","null","","180","200","260","200","36000","52000","[1,2]","519.0278825361249","122.89813224470451","514.0962466872046"
"","canvas-keyboard-response","247","192358","0.0-6.0-3.34","559","","","","","rectangles with change","null","null","","","catch","sw","l","sh","180","200","256","238","194","183","spektor","null","null","null","null","null","null","null","null","null","null","null","","180","200","260","200","36000","52000","[1,2]","519.0278825361249","122.89813224470451","514.0962466872046"
"","canvas-keyboard-response","248","192378","0.0-6.0-4.34","559","","","","","clear_screen","null","null","","","catch","sw","l","sh","180","200","256","238","194","183","spektor","null","null","null","null","null","null","null","null","null","null","null","","180","200","260","200","36000","52000","[1,2]","519.0278825361249","122.89813224470451","514.0962466872046"
"","canvas-keyboard-response","249","192705","0.0-6.0-5.34","559","","","","","make choice","321","2","","","catch","sw","l","sh","180","200","256","238","194","183","spektor","null","null","null","null","null","null","null","null","null","null","null","","180","200","260","200","36000","52000","[1,2]","","",""
"","canvas-keyboard-response","250","192725","0.0-6.0-6.34","559","","","","","clear_screen","null","null","","","catch","sw","l","sh","180","200","256","238","194","183","spektor","null","null","null","null","null","null","null","null","null","null","null","","180","200","260","200","36000","52000","[1,2]","","",""
"","canvas-keyboard-response","251","192925","0.0-6.0-0.35","559","","","","","pre trial waiting period","null","null","","","critical","c","d","t","164","240","227.1683","158.0083","240","164","spektor","0.09","w","240","164","164","240","227.1683","158.0083","39360","39360","35894.4834","td","null","null","null","null","null","null","[3,2]","499.3591549071226","219.51386786166628","527.3401740327607"
"","canvas-keyboard-response","252","192950","0.0-6.0-1.35","559","","","","","clear_screen","null","null","","","critical","c","d","t","164","240","227.1683","158.0083","240","164","spektor","0.09","w","240","164","164","240","227.1683","158.0083","39360","39360","35894.4834","td","null","null","null","null","null","null","[3,2]","499.3591549071226","219.51386786166628","527.3401740327607"
"","canvas-keyboard-response","253","193458","0.0-6.0-2.35","559","","","","","rectangles no change","null","null","","","critical","c","d","t","164","240","227.1683","158.0083","240","164","spektor","0.09","w","240","164","164","240","227.1683","158.0083","39360","39360","35894.4834","td","null","null","null","null","null","null","[3,2]","499.3591549071226","219.51386786166628","527.3401740327607"
"","canvas-keyboard-response","254","194792","0.0-6.0-3.35","559","","","","","rectangles with change","null","null","","","critical","c","d","t","164","240","227.1683","158.0083","240","164","spektor","0.09","w","240","164","164","240","227.1683","158.0083","39360","39360","35894.4834","td","null","null","null","null","null","null","[3,2]","499.3591549071226","219.51386786166628","527.3401740327607"
"","canvas-keyboard-response","255","194811","0.0-6.0-4.35","559","","","","","clear_screen","null","null","","","critical","c","d","t","164","240","227.1683","158.0083","240","164","spektor","0.09","w","240","164","164","240","227.1683","158.0083","39360","39360","35894.4834","td","null","null","null","null","null","null","[3,2]","499.3591549071226","219.51386786166628","527.3401740327607"
"","canvas-keyboard-response","256","196065","0.0-6.0-5.35","559","","","","","make choice","1248","3","","","critical","c","d","t","164","240","227.1683","158.0083","240","164","spektor","0.09","w","240","164","164","240","227.1683","158.0083","39360","39360","35894.4834","td","null","null","null","null","null","null","[3,2]","","",""
"","canvas-keyboard-response","257","196085","0.0-6.0-6.35","559","","","","","clear_screen","null","null","","","critical","c","d","t","164","240","227.1683","158.0083","240","164","spektor","0.09","w","240","164","164","240","227.1683","158.0083","39360","39360","35894.4834","td","null","null","null","null","null","null","[3,2]","","",""
"","canvas-keyboard-response","258","196286","0.0-6.0-0.36","559","","","","","pre trial waiting period","null","null","","","catch","sh","sw","l","218","210","193","168","263","216","spektor","null","null","null","null","null","null","null","null","null","null","null","","180","200","260","200","36000","52000","[1,3]","497.60861261074433","161.8499607068746","513.922924083052"
"","canvas-keyboard-response","259","196305","0.0-6.0-1.36","559","","","","","clear_screen","null","null","","","catch","sh","sw","l","218","210","193","168","263","216","spektor","null","null","null","null","null","null","null","null","null","null","null","","180","200","260","200","36000","52000","[1,3]","497.60861261074433","161.8499607068746","513.922924083052"
"","canvas-keyboard-response","260","196817","0.0-6.0-2.36","559","","","","","rectangles no change","null","null","","","catch","sh","sw","l","218","210","193","168","263","216","spektor","null","null","null","null","null","null","null","null","null","null","null","","180","200","260","200","36000","52000","[1,3]","497.60861261074433","161.8499607068746","513.922924083052"
"","canvas-keyboard-response","261","198156","0.0-6.0-3.36","559","","","","","rectangles with change","null","null","","","catch","sh","sw","l","218","210","193","168","263","216","spektor","null","null","null","null","null","null","null","null","null","null","null","","180","200","260","200","36000","52000","[1,3]","497.60861261074433","161.8499607068746","513.922924083052"
"","canvas-keyboard-response","262","198179","0.0-6.0-4.36","559","","","","","clear_screen","null","null","","","catch","sh","sw","l","218","210","193","168","263","216","spektor","null","null","null","null","null","null","null","null","null","null","null","","180","200","260","200","36000","52000","[1,3]","497.60861261074433","161.8499607068746","513.922924083052"
"","canvas-keyboard-response","263","198609","0.0-6.0-5.36","559","","","","","make choice","423","3","","","catch","sh","sw","l","218","210","193","168","263","216","spektor","null","null","null","null","null","null","null","null","null","null","null","","180","200","260","200","36000","52000","[1,3]","","",""
"","canvas-keyboard-response","264","198630","0.0-6.0-6.36","559","","","","","clear_screen","null","null","","","catch","sh","sw","l","218","210","193","168","263","216","spektor","null","null","null","null","null","null","null","null","null","null","null","","180","200","260","200","36000","52000","[1,3]","","",""
"","canvas-keyboard-response","265","198832","0.0-6.0-0.37","559","","","","","pre trial waiting period","null","null","","","critical","t","c","d","240","164","164","240","237.1485","162.6685","spektor","0.02","w","240","164","164","240","237.1485","162.6685","39360","39360","38576.5967","dc","null","null","null","null","null","null","[3,2]","504.66305163534605","119.29774680419105","510.88480776041143"
"","canvas-keyboard-response","266","198850","0.0-6.0-1.37","559","","","","","clear_screen","null","null","","","critical","t","c","d","240","164","164","240","237.1485","162.6685","spektor","0.02","w","240","164","164","240","237.1485","162.6685","39360","39360","38576.5967","dc","null","null","null","null","null","null","[3,2]","504.66305163534605","119.29774680419105","510.88480776041143"
"","canvas-keyboard-response","267","199359","0.0-6.0-2.37","559","","","","","rectangles no change","null","null","","","critical","t","c","d","240","164","164","240","237.1485","162.6685","spektor","0.02","w","240","164","164","240","237.1485","162.6685","39360","39360","38576.5967","dc","null","null","null","null","null","null","[3,2]","504.66305163534605","119.29774680419105","510.88480776041143"
