"success","trial_type","trial_index","time_elapsed","internal_node_id","sub_n","timeout","failed_images","failed_audio","failed_video","screen_id","rt","response","stimulus","view_history","trial","r1","r2","r3","w1","h1","w2","h2","w3","h3","display","tdd","tdo","tw","th","cw","ch","dw","dh","ta","ca","da","probe","csls","csss","clls","clss","sa","la","probe_rects","r1yloc","r2yloc","r3yloc"
"true","fullscreen","0","5265","0.0-0.0","561","","","","","","","","","","","","","","","","","","","","","","","","","","","","","","","","","","","","","","","","","",""
"true","preload","1","5284","0.0-1.0","561","false","[]","[]","[]","img preload","","","","","","","","","","","","","","","","","","","","","","","","","","","","","","","","","","","","",""
"","survey-html-form","2","11515","0.0-2.0","561","","","","","enter-sub-number","6225","{""response"":""561""}","","","","","","","","","","","","","","","","","","","","","","","","","","","","","","","","","","",""
"","image-button-response","3","20073","0.0-3.0","561","","","","","","8491","0","consent.png","","","","","","","","","","","","","","","","","","","","","","","","","","","","","","","","","",""
"","html-button-response","4","23592","0.0-4.0","561","","","","","intro mssg","3514","0","<div style= ""font-size:25px;"" <p> <strong> Welcome! </strong><br> <p style=""color:#8B0000; font-size:25px;""><strong> Please do NOT exit full screen until you are done with the experiment. </strong> </p><p style=""font-size:25px;color:#8B0000;""> <strong> Your data will be lost <br> if you try to go back or refresh the page after the experiment starts. Feel free to click ""previous"" during the instructions, however.</strong> </p><br><p> <strong> Thanks in advance for your contribution to our research! </strong></p>","","","","","","","","","","","","","","","","","","","","","","","","","","","","","","","","","",""
"","instructions","5","65657","0.0-5.0","561","","","","","instructions","42060","","","[{""page_index"":0,""viewing_time"":7603},{""page_index"":1,""viewing_time"":5160},{""page_index"":2,""viewing_time"":2497},{""page_index"":3,""viewing_time"":12720},{""page_index"":4,""viewing_time"":8616},{""page_index"":5,""viewing_time"":2776},{""page_index"":6,""viewing_time"":1567},{""page_index"":7,""viewing_time"":1121}]","","","","","","","","","","","","","","","","","","","","","","","","","","","","","","","","",""
"","canvas-keyboard-response","6","65861","0.0-6.0-0.0","561","","","","","pre trial waiting period","null","null","","","critical","c","t","d","240","164","164","240","154.6796","220.0396","spektor","0.14","h","164","240","240","164","154.6796","220.0396","39360","39360","34035.6388","tc","null","null","null","null","null","null","[2,1]","511.5583069965908","126.48311228617838","497.9647697617108"
"","canvas-keyboard-response","7","65883","0.0-6.0-1.0","561","","","","","clear_screen","null","null","","","critical","c","t","d","240","164","164","240","154.6796","220.0396","spektor","0.14","h","164","240","240","164","154.6796","220.0396","39360","39360","34035.6388","tc","null","null","null","null","null","null","[2,1]","511.5583069965908","126.48311228617838","497.9647697617108"
"","canvas-keyboard-response","8","66394","0.0-6.0-2.0","561","","","","","rectangles no change","null","null","","","critical","c","t","d","240","164","164","240","154.6796","220.0396","spektor","0.14","h","164","240","240","164","154.6796","220.0396","39360","39360","34035.6388","tc","null","null","null","null","null","null","[2,1]","511.5583069965908","126.48311228617838","497.9647697617108"
"","canvas-keyboard-response","9","67735","0.0-6.0-3.0","561","","","","","rectangles with change","null","null","","","critical","c","t","d","240","164","164","240","154.6796","220.0396","spektor","0.14","h","164","240","240","164","154.6796","220.0396","39360","39360","34035.6388","tc","null","null","null","null","null","null","[2,1]","511.5583069965908","126.48311228617838","497.9647697617108"
"","canvas-keyboard-response","10","67754","0.0-6.0-4.0","561","","","","","clear_screen","null","null","","","critical","c","t","d","240","164","164","240","154.6796","220.0396","spektor","0.14","h","164","240","240","164","154.6796","220.0396","39360","39360","34035.6388","tc","null","null","null","null","null","null","[2,1]","511.5583069965908","126.48311228617838","497.9647697617108"
"","canvas-keyboard-response","11","69128","0.0-6.0-5.0","561","","","","","make choice","1364","1","","","critical","c","t","d","240","164","164","240","154.6796","220.0396","spektor","0.14","h","164","240","240","164","154.6796","220.0396","39360","39360","34035.6388","tc","null","null","null","null","null","null","[2,1]","","",""
"","canvas-keyboard-response","12","69145","0.0-6.0-6.0","561","","","","","clear_screen","null","null","","","critical","c","t","d","240","164","164","240","154.6796","220.0396","spektor","0.14","h","164","240","240","164","154.6796","220.0396","39360","39360","34035.6388","tc","null","null","null","null","null","null","[2,1]","","",""
"","canvas-keyboard-response","13","69347","0.0-6.0-0.1","561","","","","","pre trial waiting period","null","null","","","catch","sw","sh","l","180","200","198","185","212","224","trueblood","null","null","null","null","null","null","null","null","null","null","null","","180","200","260","200","36000","52000","[1,3]","445.8790092159271","463.1509088288299","430.8180046042863"
"","canvas-keyboard-response","14","69367","0.0-6.0-1.1","561","","","","","clear_screen","null","null","","","catch","sw","sh","l","180","200","198","185","212","224","trueblood","null","null","null","null","null","null","null","null","null","null","null","","180","200","260","200","36000","52000","[1,3]","445.8790092159271","463.1509088288299","430.8180046042863"
"","canvas-keyboard-response","15","69874","0.0-6.0-2.1","561","","","","","rectangles no change","null","null","","","catch","sw","sh","l","180","200","198","185","212","224","trueblood","null","null","null","null","null","null","null","null","null","null","null","","180","200","260","200","36000","52000","[1,3]","445.8790092159271","463.1509088288299","430.8180046042863"
"","canvas-keyboard-response","16","71213","0.0-6.0-3.1","561","","","","","rectangles with change","null","null","","","catch","sw","sh","l","180","200","198","185","212","224","trueblood","null","null","null","null","null","null","null","null","null","null","null","","180","200","260","200","36000","52000","[1,3]","445.8790092159271","463.1509088288299","430.8180046042863"
"","canvas-keyboard-response","17","71238","0.0-6.0-4.1","561","","","","","clear_screen","null","null","","","catch","sw","sh","l","180","200","198","185","212","224","trueblood","null","null","null","null","null","null","null","null","null","null","null","","180","200","260","200","36000","52000","[1,3]","445.8790092159271","463.1509088288299","430.8180046042863"
"","canvas-keyboard-response","18","72153","0.0-6.0-5.1","561","","","","","make choice","903","3","","","catch","sw","sh","l","180","200","198","185","212","224","trueblood","null","null","null","null","null","null","null","null","null","null","null","","180","200","260","200","36000","52000","[1,3]","","",""
"","canvas-keyboard-response","19","72175","0.0-6.0-6.1","561","","","","","clear_screen","null","null","","","catch","sw","sh","l","180","200","198","185","212","224","trueblood","null","null","null","null","null","null","null","null","null","null","null","","180","200","260","200","36000","52000","[1,3]","","",""
"","canvas-keyboard-response","20","72377","0.0-6.0-0.2","561","","","","","pre trial waiting period","null","null","","","critical","c","t","d","240","164","164","240","160.6713","232.8713","spektor","0.05","h","164","240","240","164","160.6713","232.8713","39360","39360","37415.7294","td","null","null","null","null","null","null","[2,3]","533.6638754441309","125.69620257084549","492.0052461936851"
"","canvas-keyboard-response","21","72399","0.0-6.0-1.2","561","","","","","clear_screen","null","null","","","critical","c","t","d","240","164","164","240","160.6713","232.8713","spektor","0.05","h","164","240","240","164","160.6713","232.8713","39360","39360","37415.7294","td","null","null","null","null","null","null","[2,3]","533.6638754441309","125.69620257084549","492.0052461936851"
"","canvas-keyboard-response","22","72906","0.0-6.0-2.2","561","","","","","rectangles no change","null","null","","","critical","c","t","d","240","164","164","240","160.6713","232.8713","spektor","0.05","h","164","240","240","164","160.6713","232.8713","39360","39360","37415.7294","td","null","null","null","null","null","null","[2,3]","533.6638754441309","125.69620257084549","492.0052461936851"
"","canvas-keyboard-response","23","74247","0.0-6.0-3.2","561","","","","","rectangles with change","null","null","","","critical","c","t","d","240","164","164","240","160.6713","232.8713","spektor","0.05","h","164","240","240","164","160.6713","232.8713","39360","39360","37415.7294","td","null","null","null","null","null","null","[2,3]","533.6638754441309","125.69620257084549","492.0052461936851"
"","canvas-keyboard-response","24","74261","0.0-6.0-4.2","561","","","","","clear_screen","null","null","","","critical","c","t","d","240","164","164","240","160.6713","232.8713","spektor","0.05","h","164","240","240","164","160.6713","232.8713","39360","39360","37415.7294","td","null","null","null","null","null","null","[2,3]","533.6638754441309","125.69620257084549","492.0052461936851"
"","canvas-keyboard-response","25","75465","0.0-6.0-5.2","561","","","","","make choice","1198","3","","","critical","c","t","d","240","164","164","240","160.6713","232.8713","spektor","0.05","h","164","240","240","164","160.6713","232.8713","39360","39360","37415.7294","td","null","null","null","null","null","null","[2,3]","","",""
"","canvas-keyboard-response","26","75483","0.0-6.0-6.2","561","","","","","clear_screen","null","null","","","critical","c","t","d","240","164","164","240","160.6713","232.8713","spektor","0.05","h","164","240","240","164","160.6713","232.8713","39360","39360","37415.7294","td","null","null","null","null","null","null","[2,3]","","",""
"","canvas-keyboard-response","27","75685","0.0-6.0-0.3","561","","","","","pre trial waiting period","null","null","","","critical","c","t","d","240","164","164","240","164","240","spektor","0","h","164","240","240","164","164","240","39360","39360","39360","tc","null","null","null","null","null","null","[2,1]","499.88000996008213","99.2079390331074","486.9022094688088"
"","canvas-keyboard-response","28","75706","0.0-6.0-1.3","561","","","","","clear_screen","null","null","","","critical","c","t","d","240","164","164","240","164","240","spektor","0","h","164","240","240","164","164","240","39360","39360","39360","tc","null","null","null","null","null","null","[2,1]","499.88000996008213","99.2079390331074","486.9022094688088"
"","canvas-keyboard-response","29","76215","0.0-6.0-2.3","561","","","","","rectangles no change","null","null","","","critical","c","t","d","240","164","164","240","164","240","spektor","0","h","164","240","240","164","164","240","39360","39360","39360","tc","null","null","null","null","null","null","[2,1]","499.88000996008213","99.2079390331074","486.9022094688088"
"","canvas-keyboard-response","30","77554","0.0-6.0-3.3","561","","","","","rectangles with change","null","null","","","critical","c","t","d","240","164","164","240","164","240","spektor","0","h","164","240","240","164","164","240","39360","39360","39360","tc","null","null","null","null","null","null","[2,1]","499.88000996008213","99.2079390331074","486.9022094688088"
"","canvas-keyboard-response","31","77578","0.0-6.0-4.3","561","","","","","clear_screen","null","null","","","critical","c","t","d","240","164","164","240","164","240","spektor","0","h","164","240","240","164","164","240","39360","39360","39360","tc","null","null","null","null","null","null","[2,1]","499.88000996008213","99.2079390331074","486.9022094688088"
"","canvas-keyboard-response","32","77615","0.0-6.0-5.3","561","","","","","make choice","25","1","","","critical","c","t","d","240","164","164","240","164","240","spektor","0","h","164","240","240","164","164","240","39360","39360","39360","tc","null","null","null","null","null","null","[2,1]","","",""
"","canvas-keyboard-response","33","77630","0.0-6.0-6.3","561","","","","","clear_screen","null","null","","","critical","c","t","d","240","164","164","240","164","240","spektor","0","h","164","240","240","164","164","240","39360","39360","39360","tc","null","null","null","null","null","null","[2,1]","","",""
"","canvas-keyboard-response","34","77831","0.0-6.0-0.4","561","","","","","pre trial waiting period","null","null","","","catch","sw","l","sh","180","200","237","202","178","189","spektor","null","null","null","null","null","null","null","null","null","null","null","","180","200","260","200","36000","52000","[1,2]","483.5860615901774","134.82365134769924","513.5739548714301"
"","canvas-keyboard-response","35","77851","0.0-6.0-1.4","561","","","","","clear_screen","null","null","","","catch","sw","l","sh","180","200","237","202","178","189","spektor","null","null","null","null","null","null","null","null","null","null","null","","180","200","260","200","36000","52000","[1,2]","483.5860615901774","134.82365134769924","513.5739548714301"
"","canvas-keyboard-response","36","78357","0.0-6.0-2.4","561","","","","","rectangles no change","null","null","","","catch","sw","l","sh","180","200","237","202","178","189","spektor","null","null","null","null","null","null","null","null","null","null","null","","180","200","260","200","36000","52000","[1,2]","483.5860615901774","134.82365134769924","513.5739548714301"
"","canvas-keyboard-response","37","79694","0.0-6.0-3.4","561","","","","","rectangles with change","null","null","","","catch","sw","l","sh","180","200","237","202","178","189","spektor","null","null","null","null","null","null","null","null","null","null","null","","180","200","260","200","36000","52000","[1,2]","483.5860615901774","134.82365134769924","513.5739548714301"
"","canvas-keyboard-response","38","79704","0.0-6.0-4.4","561","","","","","clear_screen","1","2","","","catch","sw","l","sh","180","200","237","202","178","189","spektor","null","null","null","null","null","null","null","null","null","null","null","","180","200","260","200","36000","52000","[1,2]","483.5860615901774","134.82365134769924","513.5739548714301"
"","canvas-keyboard-response","39","80255","0.0-6.0-5.4","561","","","","","make choice","547","2","","","catch","sw","l","sh","180","200","237","202","178","189","spektor","null","null","null","null","null","null","null","null","null","null","null","","180","200","260","200","36000","52000","[1,2]","","",""
"","canvas-keyboard-response","40","80274","0.0-6.0-6.4","561","","","","","clear_screen","null","null","","","catch","sw","l","sh","180","200","237","202","178","189","spektor","null","null","null","null","null","null","null","null","null","null","null","","180","200","260","200","36000","52000","[1,2]","","",""
"","canvas-keyboard-response","41","80475","0.0-6.0-0.5","561","","","","","pre trial waiting period","null","null","","","catch","sw","l","sh","180","200","272","221","173","187","spektor","null","null","null","null","null","null","null","null","null","null","null","","180","200","260","200","36000","52000","[1,2]","495.54491423593527","116.1294899340962","509.2875128376523"
"","canvas-keyboard-response","42","80495","0.0-6.0-1.5","561","","","","","clear_screen","null","null","","","catch","sw","l","sh","180","200","272","221","173","187","spektor","null","null","null","null","null","null","null","null","null","null","null","","180","200","260","200","36000","52000","[1,2]","495.54491423593527","116.1294899340962","509.2875128376523"
"","canvas-keyboard-response","43","81003","0.0-6.0-2.5","561","","","","","rectangles no change","null","null","","","catch","sw","l","sh","180","200","272","221","173","187","spektor","null","null","null","null","null","null","null","null","null","null","null","","180","200","260","200","36000","52000","[1,2]","495.54491423593527","116.1294899340962","509.2875128376523"
"","canvas-keyboard-response","44","82340","0.0-6.0-3.5","561","","","","","rectangles with change","null","null","","","catch","sw","l","sh","180","200","272","221","173","187","spektor","null","null","null","null","null","null","null","null","null","null","null","","180","200","260","200","36000","52000","[1,2]","495.54491423593527","116.1294899340962","509.2875128376523"
"","canvas-keyboard-response","45","82359","0.0-6.0-4.5","561","","","","","clear_screen","null","null","","","catch","sw","l","sh","180","200","272","221","173","187","spektor","null","null","null","null","null","null","null","null","null","null","null","","180","200","260","200","36000","52000","[1,2]","495.54491423593527","116.1294899340962","509.2875128376523"
"","canvas-keyboard-response","46","82873","0.0-6.0-5.5","561","","","","","make choice","507","2","","","catch","sw","l","sh","180","200","272","221","173","187","spektor","null","null","null","null","null","null","null","null","null","null","null","","180","200","260","200","36000","52000","[1,2]","","",""
"","canvas-keyboard-response","47","82893","0.0-6.0-6.5","561","","","","","clear_screen","null","null","","","catch","sw","l","sh","180","200","272","221","173","187","spektor","null","null","null","null","null","null","null","null","null","null","null","","180","200","260","200","36000","52000","[1,2]","","",""
"","canvas-keyboard-response","48","83094","0.0-6.0-0.6","561","","","","","pre trial waiting period","null","null","","","catch","sw","sh","l","180","200","217","147","218","259","spektor","null","null","null","null","null","null","null","null","null","null","null","","180","200","260","200","36000","52000","[2,3]","502.9150541250693","195.76832163967347","472.57903123865515"
"","canvas-keyboard-response","49","83117","0.0-6.0-1.6","561","","","","","clear_screen","null","null","","","catch","sw","sh","l","180","200","217","147","218","259","spektor","null","null","null","null","null","null","null","null","null","null","null","","180","200","260","200","36000","52000","[2,3]","502.9150541250693","195.76832163967347","472.57903123865515"
"","canvas-keyboard-response","50","83625","0.0-6.0-2.6","561","","","","","rectangles no change","null","null","","","catch","sw","sh","l","180","200","217","147","218","259","spektor","null","null","null","null","null","null","null","null","null","null","null","","180","200","260","200","36000","52000","[2,3]","502.9150541250693","195.76832163967347","472.57903123865515"
"","canvas-keyboard-response","51","84962","0.0-6.0-3.6","561","","","","","rectangles with change","null","null","","","catch","sw","sh","l","180","200","217","147","218","259","spektor","null","null","null","null","null","null","null","null","null","null","null","","180","200","260","200","36000","52000","[2,3]","502.9150541250693","195.76832163967347","472.57903123865515"
"","canvas-keyboard-response","52","84985","0.0-6.0-4.6","561","","","","","clear_screen","null","null","","","catch","sw","sh","l","180","200","217","147","218","259","spektor","null","null","null","null","null","null","null","null","null","null","null","","180","200","260","200","36000","52000","[2,3]","502.9150541250693","195.76832163967347","472.57903123865515"
"","canvas-keyboard-response","53","86736","0.0-6.0-5.6","561","","","","","make choice","1744","3","","","catch","sw","sh","l","180","200","217","147","218","259","spektor","null","null","null","null","null","null","null","null","null","null","null","","180","200","260","200","36000","52000","[2,3]","","",""
"","canvas-keyboard-response","54","86755","0.0-6.0-6.6","561","","","","","clear_screen","null","null","","","catch","sw","sh","l","180","200","217","147","218","259","spektor","null","null","null","null","null","null","null","null","null","null","null","","180","200","260","200","36000","52000","[2,3]","","",""
"","canvas-keyboard-response","55","86956","0.0-6.0-0.7","561","","","","","pre trial waiting period","null","null","","","critical","d","t","c","240","164","240","164","164","240","trueblood","0","w","240","164","164","240","240","164","39360","39360","39360","tc","null","null","null","null","null","null","[2,3]","500.21007877893504","510.239837329471","452.3750327066618"
"","canvas-keyboard-response","56","86975","0.0-6.0-1.7","561","","","","","clear_screen","null","null","","","critical","d","t","c","240","164","240","164","164","240","trueblood","0","w","240","164","164","240","240","164","39360","39360","39360","tc","null","null","null","null","null","null","[2,3]","500.21007877893504","510.239837329471","452.3750327066618"
"","canvas-keyboard-response","57","87486","0.0-6.0-2.7","561","","","","","rectangles no change","null","null","","","critical","d","t","c","240","164","240","164","164","240","trueblood","0","w","240","164","164","240","240","164","39360","39360","39360","tc","null","null","null","null","null","null","[2,3]","500.21007877893504","510.239837329471","452.3750327066618"
"","canvas-keyboard-response","58","88820","0.0-6.0-3.7","561","","","","","rectangles with change","null","null","","","critical","d","t","c","240","164","240","164","164","240","trueblood","0","w","240","164","164","240","240","164","39360","39360","39360","tc","null","null","null","null","null","null","[2,3]","500.21007877893504","510.239837329471","452.3750327066618"
"","canvas-keyboard-response","59","88839","0.0-6.0-4.7","561","","","","","clear_screen","null","null","","","critical","d","t","c","240","164","240","164","164","240","trueblood","0","w","240","164","164","240","240","164","39360","39360","39360","tc","null","null","null","null","null","null","[2,3]","500.21007877893504","510.239837329471","452.3750327066618"
"","canvas-keyboard-response","60","89696","0.0-6.0-5.7","561","","","","","make choice","850","2","","","critical","d","t","c","240","164","240","164","164","240","trueblood","0","w","240","164","164","240","240","164","39360","39360","39360","tc","null","null","null","null","null","null","[2,3]","","",""
"","canvas-keyboard-response","61","89715","0.0-6.0-6.7","561","","","","","clear_screen","null","null","","","critical","d","t","c","240","164","240","164","164","240","trueblood","0","w","240","164","164","240","240","164","39360","39360","39360","tc","null","null","null","null","null","null","[2,3]","","",""
"","canvas-keyboard-response","62","89916","0.0-6.0-0.8","561","","","","","pre trial waiting period","null","null","","","critical","c","t","d","164","240","240","164","240","164","spektor","0","w","240","164","164","240","240","164","39360","39360","39360","dc","null","null","null","null","null","null","[3,1]","497.67861009682207","197.37900438318192","505.12582848633457"
"","canvas-keyboard-response","63","89936","0.0-6.0-1.8","561","","","","","clear_screen","null","null","","","critical","c","t","d","164","240","240","164","240","164","spektor","0","w","240","164","164","240","240","164","39360","39360","39360","dc","null","null","null","null","null","null","[3,1]","497.67861009682207","197.37900438318192","505.12582848633457"
"","canvas-keyboard-response","64","90443","0.0-6.0-2.8","561","","","","","rectangles no change","null","null","","","critical","c","t","d","164","240","240","164","240","164","spektor","0","w","240","164","164","240","240","164","39360","39360","39360","dc","null","null","null","null","null","null","[3,1]","497.67861009682207","197.37900438318192","505.12582848633457"
"","canvas-keyboard-response","65","91780","0.0-6.0-3.8","561","","","","","rectangles with change","null","null","","","critical","c","t","d","164","240","240","164","240","164","spektor","0","w","240","164","164","240","240","164","39360","39360","39360","dc","null","null","null","null","null","null","[3,1]","497.67861009682207","197.37900438318192","505.12582848633457"
"","canvas-keyboard-response","66","91802","0.0-6.0-4.8","561","","","","","clear_screen","null","null","","","critical","c","t","d","164","240","240","164","240","164","spektor","0","w","240","164","164","240","240","164","39360","39360","39360","dc","null","null","null","null","null","null","[3,1]","497.67861009682207","197.37900438318192","505.12582848633457"
"","canvas-keyboard-response","67","92288","0.0-6.0-5.8","561","","","","","make choice","482","1","","","critical","c","t","d","164","240","240","164","240","164","spektor","0","w","240","164","164","240","240","164","39360","39360","39360","dc","null","null","null","null","null","null","[3,1]","","",""
"","canvas-keyboard-response","68","92309","0.0-6.0-6.8","561","","","","","clear_screen","null","null","","","critical","c","t","d","164","240","240","164","240","164","spektor","0","w","240","164","164","240","240","164","39360","39360","39360","dc","null","null","null","null","null","null","[3,1]","","",""
"","canvas-keyboard-response","69","92511","0.0-6.0-0.9","561","","","","","pre trial waiting period","null","null","","","catch","sh","l","sw","204","206","231","220","197","208","spektor","null","null","null","null","null","null","null","null","null","null","null","","180","200","260","200","36000","52000","[2,3]","508.7681773312032","139.36420943189688","485.91706723939353"
"","canvas-keyboard-response","70","92530","0.0-6.0-1.9","561","","","","","clear_screen","null","null","","","catch","sh","l","sw","204","206","231","220","197","208","spektor","null","null","null","null","null","null","null","null","null","null","null","","180","200","260","200","36000","52000","[2,3]","508.7681773312032","139.36420943189688","485.91706723939353"
"","canvas-keyboard-response","71","93037","0.0-6.0-2.9","561","","","","","rectangles no change","null","null","","","catch","sh","l","sw","204","206","231","220","197","208","spektor","null","null","null","null","null","null","null","null","null","null","null","","180","200","260","200","36000","52000","[2,3]","508.7681773312032","139.36420943189688","485.91706723939353"
"","canvas-keyboard-response","72","94378","0.0-6.0-3.9","561","","","","","rectangles with change","null","null","","","catch","sh","l","sw","204","206","231","220","197","208","spektor","null","null","null","null","null","null","null","null","null","null","null","","180","200","260","200","36000","52000","[2,3]","508.7681773312032","139.36420943189688","485.91706723939353"
"","canvas-keyboard-response","73","94399","0.0-6.0-4.9","561","","","","","clear_screen","null","null","","","catch","sh","l","sw","204","206","231","220","197","208","spektor","null","null","null","null","null","null","null","null","null","null","null","","180","200","260","200","36000","52000","[2,3]","508.7681773312032","139.36420943189688","485.91706723939353"
"","canvas-keyboard-response","74","94592","0.0-6.0-5.9","561","","","","","make choice","187","2","","","catch","sh","l","sw","204","206","231","220","197","208","spektor","null","null","null","null","null","null","null","null","null","null","null","","180","200","260","200","36000","52000","[2,3]","","",""
"","canvas-keyboard-response","75","94608","0.0-6.0-6.9","561","","","","","clear_screen","null","null","","","catch","sh","l","sw","204","206","231","220","197","208","spektor","null","null","null","null","null","null","null","null","null","null","null","","180","200","260","200","36000","52000","[2,3]","","",""
"","canvas-keyboard-response","76","94810","0.0-6.0-0.10","561","","","","","pre trial waiting period","null","null","","","critical","d","t","c","227.1683","158.0083","240","164","164","240","trueblood","0.09","w","240","164","164","240","227.1683","158.0083","39360","39360","35894.4834","dc","null","null","null","null","null","null","[1,3]","492.98952299787567","497.2703528809487","437.5853095102239"
"","canvas-keyboard-response","77","94834","0.0-6.0-1.10","561","","","","","clear_screen","null","null","","","critical","d","t","c","227.1683","158.0083","240","164","164","240","trueblood","0.09","w","240","164","164","240","227.1683","158.0083","39360","39360","35894.4834","dc","null","null","null","null","null","null","[1,3]","492.98952299787567","497.2703528809487","437.5853095102239"
"","canvas-keyboard-response","78","95340","0.0-6.0-2.10","561","","","","","rectangles no change","null","null","","","critical","d","t","c","227.1683","158.0083","240","164","164","240","trueblood","0.09","w","240","164","164","240","227.1683","158.0083","39360","39360","35894.4834","dc","null","null","null","null","null","null","[1,3]","492.98952299787567","497.2703528809487","437.5853095102239"
"","canvas-keyboard-response","79","96676","0.0-6.0-3.10","561","","","","","rectangles with change","null","null","","","critical","d","t","c","227.1683","158.0083","240","164","164","240","trueblood","0.09","w","240","164","164","240","227.1683","158.0083","39360","39360","35894.4834","dc","null","null","null","null","null","null","[1,3]","492.98952299787567","497.2703528809487","437.5853095102239"
"","canvas-keyboard-response","80","96695","0.0-6.0-4.10","561","","","","","clear_screen","null","null","","","critical","d","t","c","227.1683","158.0083","240","164","164","240","trueblood","0.09","w","240","164","164","240","227.1683","158.0083","39360","39360","35894.4834","dc","null","null","null","null","null","null","[1,3]","492.98952299787567","497.2703528809487","437.5853095102239"
"","canvas-keyboard-response","81","97047","0.0-6.0-5.10","561","","","","","make choice","346","3","","","critical","d","t","c","227.1683","158.0083","240","164","164","240","trueblood","0.09","w","240","164","164","240","227.1683","158.0083","39360","39360","35894.4834","dc","null","null","null","null","null","null","[1,3]","","",""
"","canvas-keyboard-response","82","97068","0.0-6.0-6.10","561","","","","","clear_screen","null","null","","","critical","d","t","c","227.1683","158.0083","240","164","164","240","trueblood","0.09","w","240","164","164","240","227.1683","158.0083","39360","39360","35894.4834","dc","null","null","null","null","null","null","[1,3]","","",""
"","canvas-keyboard-response","83","97269","0.0-6.0-0.11","561","","","","","pre trial waiting period","null","null","","","catch","l","sw","sh","194","229","174","198","175","197","trueblood","null","null","null","null","null","null","null","null","null","null","null","","180","200","260","200","36000","52000","[1,2]","450.5584480451261","487.58067301206836","493.43806463096854"
"","canvas-keyboard-response","84","97290","0.0-6.0-1.11","561","","","","","clear_screen","null","null","","","catch","l","sw","sh","194","229","174","198","175","197","trueblood","null","null","null","null","null","null","null","null","null","null","null","","180","200","260","200","36000","52000","[1,2]","450.5584480451261","487.58067301206836","493.43806463096854"
"","canvas-keyboard-response","85","97797","0.0-6.0-2.11","561","","","","","rectangles no change","null","null","","","catch","l","sw","sh","194","229","174","198","175","197","trueblood","null","null","null","null","null","null","null","null","null","null","null","","180","200","260","200","36000","52000","[1,2]","450.5584480451261","487.58067301206836","493.43806463096854"
"","canvas-keyboard-response","86","99132","0.0-6.0-3.11","561","","","","","rectangles with change","null","null","","","catch","l","sw","sh","194","229","174","198","175","197","trueblood","null","null","null","null","null","null","null","null","null","null","null","","180","200","260","200","36000","52000","[1,2]","450.5584480451261","487.58067301206836","493.43806463096854"
"","canvas-keyboard-response","87","99154","0.0-6.0-4.11","561","","","","","clear_screen","null","null","","","catch","l","sw","sh","194","229","174","198","175","197","trueblood","null","null","null","null","null","null","null","null","null","null","null","","180","200","260","200","36000","52000","[1,2]","450.5584480451261","487.58067301206836","493.43806463096854"
"","canvas-keyboard-response","88","99272","0.0-6.0-5.11","561","","","","","make choice","111","1","","","catch","l","sw","sh","194","229","174","198","175","197","trueblood","null","null","null","null","null","null","null","null","null","null","null","","180","200","260","200","36000","52000","[1,2]","","",""
"","canvas-keyboard-response","89","99290","0.0-6.0-6.11","561","","","","","clear_screen","null","null","","","catch","l","sw","sh","194","229","174","198","175","197","trueblood","null","null","null","null","null","null","null","null","null","null","null","","180","200","260","200","36000","52000","[1,2]","","",""
"","canvas-keyboard-response","90","99492","0.0-6.0-0.12","561","","","","","pre trial waiting period","null","null","","","critical","c","d","t","240","164","158.0083","227.1683","164","240","trueblood","0.09","h","164","240","240","164","158.0083","227.1683","39360","39360","35894.4834","td","null","null","null","null","null","null","[3,2]","506.47847391321864","446.5701060716537","426.8394987178567"
"","canvas-keyboard-response","91","99511","0.0-6.0-1.12","561","","","","","clear_screen","null","null","","","critical","c","d","t","240","164","158.0083","227.1683","164","240","trueblood","0.09","h","164","240","240","164","158.0083","227.1683","39360","39360","35894.4834","td","null","null","null","null","null","null","[3,2]","506.47847391321864","446.5701060716537","426.8394987178567"
"","canvas-keyboard-response","92","100019","0.0-6.0-2.12","561","","","","","rectangles no change","null","null","","","critical","c","d","t","240","164","158.0083","227.1683","164","240","trueblood","0.09","h","164","240","240","164","158.0083","227.1683","39360","39360","35894.4834","td","null","null","null","null","null","null","[3,2]","506.47847391321864","446.5701060716537","426.8394987178567"
"","canvas-keyboard-response","93","101357","0.0-6.0-3.12","561","","","","","rectangles with change","null","null","","","critical","c","d","t","240","164","158.0083","227.1683","164","240","trueblood","0.09","h","164","240","240","164","158.0083","227.1683","39360","39360","35894.4834","td","null","null","null","null","null","null","[3,2]","506.47847391321864","446.5701060716537","426.8394987178567"
"","canvas-keyboard-response","94","101377","0.0-6.0-4.12","561","","","","","clear_screen","null","null","","","critical","c","d","t","240","164","158.0083","227.1683","164","240","trueblood","0.09","h","164","240","240","164","158.0083","227.1683","39360","39360","35894.4834","td","null","null","null","null","null","null","[3,2]","506.47847391321864","446.5701060716537","426.8394987178567"
"","canvas-keyboard-response","95","101431","0.0-6.0-5.12","561","","","","","make choice","50","3","","","critical","c","d","t","240","164","158.0083","227.1683","164","240","trueblood","0.09","h","164","240","240","164","158.0083","227.1683","39360","39360","35894.4834","td","null","null","null","null","null","null","[3,2]","","",""
"","canvas-keyboard-response","96","101451","0.0-6.0-6.12","561","","","","","clear_screen","null","null","","","critical","c","d","t","240","164","158.0083","227.1683","164","240","trueblood","0.09","h","164","240","240","164","158.0083","227.1683","39360","39360","35894.4834","td","null","null","null","null","null","null","[3,2]","","",""
"","canvas-keyboard-response","97","101652","0.0-6.0-0.13","561","","","","","pre trial waiting period","null","null","","","critical","c","t","d","164","240","240","164","220.0396","154.6796","trueblood","0.14","w","240","164","164","240","220.0396","154.6796","39360","39360","34035.6388","dc","null","null","null","null","null","null","[3,1]","449.3245441965086","485.20488373429674","514.6034688953822"
"","canvas-keyboard-response","98","101677","0.0-6.0-1.13","561","","","","","clear_screen","null","null","","","critical","c","t","d","164","240","240","164","220.0396","154.6796","trueblood","0.14","w","240","164","164","240","220.0396","154.6796","39360","39360","34035.6388","dc","null","null","null","null","null","null","[3,1]","449.3245441965086","485.20488373429674","514.6034688953822"
"","canvas-keyboard-response","99","102183","0.0-6.0-2.13","561","","","","","rectangles no change","null","null","","","critical","c","t","d","164","240","240","164","220.0396","154.6796","trueblood","0.14","w","240","164","164","240","220.0396","154.6796","39360","39360","34035.6388","dc","null","null","null","null","null","null","[3,1]","449.3245441965086","485.20488373429674","514.6034688953822"
"","canvas-keyboard-response","100","103518","0.0-6.0-3.13","561","","","","","rectangles with change","null","null","","","critical","c","t","d","164","240","240","164","220.0396","154.6796","trueblood","0.14","w","240","164","164","240","220.0396","154.6796","39360","39360","34035.6388","dc","null","null","null","null","null","null","[3,1]","449.3245441965086","485.20488373429674","514.6034688953822"
"","canvas-keyboard-response","101","103539","0.0-6.0-4.13","561","","","","","clear_screen","null","null","","","critical","c","t","d","164","240","240","164","220.0396","154.6796","trueblood","0.14","w","240","164","164","240","220.0396","154.6796","39360","39360","34035.6388","dc","null","null","null","null","null","null","[3,1]","449.3245441965086","485.20488373429674","514.6034688953822"
"","canvas-keyboard-response","102","104359","0.0-6.0-5.13","561","","","","","make choice","814","1","","","critical","c","t","d","164","240","240","164","220.0396","154.6796","trueblood","0.14","w","240","164","164","240","220.0396","154.6796","39360","39360","34035.6388","dc","null","null","null","null","null","null","[3,1]","","",""
"","canvas-keyboard-response","103","104378","0.0-6.0-6.13","561","","","","","clear_screen","null","null","","","critical","c","t","d","164","240","240","164","220.0396","154.6796","trueblood","0.14","w","240","164","164","240","220.0396","154.6796","39360","39360","34035.6388","dc","null","null","null","null","null","null","[3,1]","","",""
"","canvas-keyboard-response","104","104579","0.0-6.0-0.14","561","","","","","pre trial waiting period","null","null","","","critical","t","c","d","164","240","240","164","162.6685","237.1485","trueblood","0.02","h","164","240","240","164","162.6685","237.1485","39360","39360","38576.5967","dc","null","null","null","null","null","null","[3,2]","443.94908126004105","517.8804267021603","469.0612031167779"
"","canvas-keyboard-response","105","104602","0.0-6.0-1.14","561","","","","","clear_screen","null","null","","","critical","t","c","d","164","240","240","164","162.6685","237.1485","trueblood","0.02","h","164","240","240","164","162.6685","237.1485","39360","39360","38576.5967","dc","null","null","null","null","null","null","[3,2]","443.94908126004105","517.8804267021603","469.0612031167779"
"","canvas-keyboard-response","106","105112","0.0-6.0-2.14","561","","","","","rectangles no change","null","null","","","critical","t","c","d","164","240","240","164","162.6685","237.1485","trueblood","0.02","h","164","240","240","164","162.6685","237.1485","39360","39360","38576.5967","dc","null","null","null","null","null","null","[3,2]","443.94908126004105","517.8804267021603","469.0612031167779"
"","canvas-keyboard-response","107","106448","0.0-6.0-3.14","561","","","","","rectangles with change","null","null","","","critical","t","c","d","164","240","240","164","162.6685","237.1485","trueblood","0.02","h","164","240","240","164","162.6685","237.1485","39360","39360","38576.5967","dc","null","null","null","null","null","null","[3,2]","443.94908126004105","517.8804267021603","469.0612031167779"
"","canvas-keyboard-response","108","106469","0.0-6.0-4.14","561","","","","","clear_screen","null","null","","","critical","t","c","d","164","240","240","164","162.6685","237.1485","trueblood","0.02","h","164","240","240","164","162.6685","237.1485","39360","39360","38576.5967","dc","null","null","null","null","null","null","[3,2]","443.94908126004105","517.8804267021603","469.0612031167779"
"","canvas-keyboard-response","109","107311","0.0-6.0-5.14","561","","","","","make choice","838","2","","","critical","t","c","d","164","240","240","164","162.6685","237.1485","trueblood","0.02","h","164","240","240","164","162.6685","237.1485","39360","39360","38576.5967","dc","null","null","null","null","null","null","[3,2]","","",""
"","canvas-keyboard-response","110","107334","0.0-6.0-6.14","561","","","","","clear_screen","null","null","","","critical","t","c","d","164","240","240","164","162.6685","237.1485","trueblood","0.02","h","164","240","240","164","162.6685","237.1485","39360","39360","38576.5967","dc","null","null","null","null","null","null","[3,2]","","",""
"","canvas-keyboard-response","111","107534","0.0-6.0-0.15","561","","","","","pre trial waiting period","null","null","","","catch","l","sh","sw","182","257","198","141","162","238","trueblood","null","null","null","null","null","null","null","null","null","null","null","","180","200","260","200","36000","52000","[1,3]","417.2385732615348","532.4769320039122","454.6519070386548"
"","canvas-keyboard-response","112","107554","0.0-6.0-1.15","561","","","","","clear_screen","null","null","","","catch","l","sh","sw","182","257","198","141","162","238","trueblood","null","null","null","null","null","null","null","null","null","null","null","","180","200","260","200","36000","52000","[1,3]","417.2385732615348","532.4769320039122","454.6519070386548"
"","canvas-keyboard-response","113","108063","0.0-6.0-2.15","561","","","","","rectangles no change","null","null","","","catch","l","sh","sw","182","257","198","141","162","238","trueblood","null","null","null","null","null","null","null","null","null","null","null","","180","200","260","200","36000","52000","[1,3]","417.2385732615348","532.4769320039122","454.6519070386548"
"","canvas-keyboard-response","114","109398","0.0-6.0-3.15","561","","","","","rectangles with change","null","null","","","catch","l","sh","sw","182","257","198","141","162","238","trueblood","null","null","null","null","null","null","null","null","null","null","null","","180","200","260","200","36000","52000","[1,3]","417.2385732615348","532.4769320039122","454.6519070386548"
"","canvas-keyboard-response","115","109421","0.0-6.0-4.15","561","","","","","clear_screen","null","null","","","catch","l","sh","sw","182","257","198","141","162","238","trueblood","null","null","null","null","null","null","null","null","null","null","null","","180","200","260","200","36000","52000","[1,3]","417.2385732615348","532.4769320039122","454.6519070386548"
"","canvas-keyboard-response","116","110016","0.0-6.0-5.15","561","","","","","make choice","589","1","","","catch","l","sh","sw","182","257","198","141","162","238","trueblood","null","null","null","null","null","null","null","null","null","null","null","","180","200","260","200","36000","52000","[1,3]","","",""
"","canvas-keyboard-response","117","110035","0.0-6.0-6.15","561","","","","","clear_screen","null","null","","","catch","l","sh","sw","182","257","198","141","162","238","trueblood","null","null","null","null","null","null","null","null","null","null","null","","180","200","260","200","36000","52000","[1,3]","","",""
"","canvas-keyboard-response","118","110236","0.0-6.0-0.16","561","","","","","pre trial waiting period","null","null","","","critical","t","d","c","164","240","158.0083","227.1683","240","164","trueblood","0.09","h","164","240","240","164","158.0083","227.1683","39360","39360","35894.4834","tc","null","null","null","null","null","null","[1,3]","438.7317340925627","455.01937026417556","481.33059241560613"
"","canvas-keyboard-response","119","110255","0.0-6.0-1.16","561","","","","","clear_screen","null","null","","","critical","t","d","c","164","240","158.0083","227.1683","240","164","trueblood","0.09","h","164","240","240","164","158.0083","227.1683","39360","39360","35894.4834","tc","null","null","null","null","null","null","[1,3]","438.7317340925627","455.01937026417556","481.33059241560613"
"","canvas-keyboard-response","120","110763","0.0-6.0-2.16","561","","","","","rectangles no change","null","null","","","critical","t","d","c","164","240","158.0083","227.1683","240","164","trueblood","0.09","h","164","240","240","164","158.0083","227.1683","39360","39360","35894.4834","tc","null","null","null","null","null","null","[1,3]","438.7317340925627","455.01937026417556","481.33059241560613"
"","canvas-keyboard-response","121","112097","0.0-6.0-3.16","561","","","","","rectangles with change","null","null","","","critical","t","d","c","164","240","158.0083","227.1683","240","164","trueblood","0.09","h","164","240","240","164","158.0083","227.1683","39360","39360","35894.4834","tc","null","null","null","null","null","null","[1,3]","438.7317340925627","455.01937026417556","481.33059241560613"
"","canvas-keyboard-response","122","112118","0.0-6.0-4.16","561","","","","","clear_screen","null","null","","","critical","t","d","c","164","240","158.0083","227.1683","240","164","trueblood","0.09","h","164","240","240","164","158.0083","227.1683","39360","39360","35894.4834","tc","null","null","null","null","null","null","[1,3]","438.7317340925627","455.01937026417556","481.33059241560613"
"","canvas-keyboard-response","123","112536","0.0-6.0-5.16","561","","","","","make choice","413","3","","","critical","t","d","c","164","240","158.0083","227.1683","240","164","trueblood","0.09","h","164","240","240","164","158.0083","227.1683","39360","39360","35894.4834","tc","null","null","null","null","null","null","[1,3]","","",""
"","canvas-keyboard-response","124","112553","0.0-6.0-6.16","561","","","","","clear_screen","null","null","","","critical","t","d","c","164","240","158.0083","227.1683","240","164","trueblood","0.09","h","164","240","240","164","158.0083","227.1683","39360","39360","35894.4834","tc","null","null","null","null","null","null","[1,3]","","",""
"","canvas-keyboard-response","125","112754","0.0-6.0-0.17","561","","","","","pre trial waiting period","null","null","","","catch","sw","l","sh","180","200","241","227","175","202","spektor","null","null","null","null","null","null","null","null","null","null","null","","180","200","260","200","36000","52000","[2,3]","518.4453445015013","121.50772221918783","523.7227437805841"
"","canvas-keyboard-response","126","112775","0.0-6.0-1.17","561","","","","","clear_screen","null","null","","","catch","sw","l","sh","180","200","241","227","175","202","spektor","null","null","null","null","null","null","null","null","null","null","null","","180","200","260","200","36000","52000","[2,3]","518.4453445015013","121.50772221918783","523.7227437805841"
"","canvas-keyboard-response","127","113283","0.0-6.0-2.17","561","","","","","rectangles no change","null","null","","","catch","sw","l","sh","180","200","241","227","175","202","spektor","null","null","null","null","null","null","null","null","null","null","null","","180","200","260","200","36000","52000","[2,3]","518.4453445015013","121.50772221918783","523.7227437805841"
"","canvas-keyboard-response","128","114621","0.0-6.0-3.17","561","","","","","rectangles with change","null","null","","","catch","sw","l","sh","180","200","241","227","175","202","spektor","null","null","null","null","null","null","null","null","null","null","null","","180","200","260","200","36000","52000","[2,3]","518.4453445015013","121.50772221918783","523.7227437805841"
"","canvas-keyboard-response","129","114644","0.0-6.0-4.17","561","","","","","clear_screen","null","null","","","catch","sw","l","sh","180","200","241","227","175","202","spektor","null","null","null","null","null","null","null","null","null","null","null","","180","200","260","200","36000","52000","[2,3]","518.4453445015013","121.50772221918783","523.7227437805841"
"","canvas-keyboard-response","130","114991","0.0-6.0-5.17","561","","","","","make choice","339","2","","","catch","sw","l","sh","180","200","241","227","175","202","spektor","null","null","null","null","null","null","null","null","null","null","null","","180","200","260","200","36000","52000","[2,3]","","",""
"","canvas-keyboard-response","131","115013","0.0-6.0-6.17","561","","","","","clear_screen","null","null","","","catch","sw","l","sh","180","200","241","227","175","202","spektor","null","null","null","null","null","null","null","null","null","null","null","","180","200","260","200","36000","52000","[2,3]","","",""
"","canvas-keyboard-response","132","115214","0.0-6.0-0.18","561","","","","","pre trial waiting period","null","null","","","critical","d","t","c","154.6796","220.0396","164","240","240","164","trueblood","0.14","h","164","240","240","164","154.6796","220.0396","39360","39360","34035.6388","td","null","null","null","null","null","null","[2,1]","439.39729044862486","451.1658966074126","518.3093464093895"
"","canvas-keyboard-response","133","115238","0.0-6.0-1.18","561","","","","","clear_screen","null","null","","","critical","d","t","c","154.6796","220.0396","164","240","240","164","trueblood","0.14","h","164","240","240","164","154.6796","220.0396","39360","39360","34035.6388","td","null","null","null","null","null","null","[2,1]","439.39729044862486","451.1658966074126","518.3093464093895"
"","canvas-keyboard-response","134","115744","0.0-6.0-2.18","561","","","","","rectangles no change","null","null","","","critical","d","t","c","154.6796","220.0396","164","240","240","164","trueblood","0.14","h","164","240","240","164","154.6796","220.0396","39360","39360","34035.6388","td","null","null","null","null","null","null","[2,1]","439.39729044862486","451.1658966074126","518.3093464093895"
"","canvas-keyboard-response","135","117080","0.0-6.0-3.18","561","","","","","rectangles with change","null","null","","","critical","d","t","c","154.6796","220.0396","164","240","240","164","trueblood","0.14","h","164","240","240","164","154.6796","220.0396","39360","39360","34035.6388","td","null","null","null","null","null","null","[2,1]","439.39729044862486","451.1658966074126","518.3093464093895"
"","canvas-keyboard-response","136","117102","0.0-6.0-4.18","561","","","","","clear_screen","null","null","","","critical","d","t","c","154.6796","220.0396","164","240","240","164","trueblood","0.14","h","164","240","240","164","154.6796","220.0396","39360","39360","34035.6388","td","null","null","null","null","null","null","[2,1]","439.39729044862486","451.1658966074126","518.3093464093895"
"","canvas-keyboard-response","137","117448","0.0-6.0-5.18","561","","","","","make choice","342","2","","","critical","d","t","c","154.6796","220.0396","164","240","240","164","trueblood","0.14","h","164","240","240","164","154.6796","220.0396","39360","39360","34035.6388","td","null","null","null","null","null","null","[2,1]","","",""
"","canvas-keyboard-response","138","117466","0.0-6.0-6.18","561","","","","","clear_screen","null","null","","","critical","d","t","c","154.6796","220.0396","164","240","240","164","trueblood","0.14","h","164","240","240","164","154.6796","220.0396","39360","39360","34035.6388","td","null","null","null","null","null","null","[2,1]","","",""
"","canvas-keyboard-response","139","117667","0.0-6.0-0.19","561","","","","","pre trial waiting period","null","null","","","critical","d","t","c","232.8713","160.6713","240","164","164","240","spektor","0.05","w","240","164","164","240","232.8713","160.6713","39360","39360","37415.7294","dc","null","null","null","null","null","null","[1,3]","514.3872910110038","178.93082919313827","499.3175354365585"
"","canvas-keyboard-response","140","117689","0.0-6.0-1.19","561","","","","","clear_screen","null","null","","","critical","d","t","c","232.8713","160.6713","240","164","164","240","spektor","0.05","w","240","164","164","240","232.8713","160.6713","39360","39360","37415.7294","dc","null","null","null","null","null","null","[1,3]","514.3872910110038","178.93082919313827","499.3175354365585"
"","canvas-keyboard-response","141","118197","0.0-6.0-2.19","561","","","","","rectangles no change","null","null","","","critical","d","t","c","232.8713","160.6713","240","164","164","240","spektor","0.05","w","240","164","164","240","232.8713","160.6713","39360","39360","37415.7294","dc","null","null","null","null","null","null","[1,3]","514.3872910110038","178.93082919313827","499.3175354365585"
"","canvas-keyboard-response","142","119532","0.0-6.0-3.19","561","","","","","rectangles with change","null","null","","","critical","d","t","c","232.8713","160.6713","240","164","164","240","spektor","0.05","w","240","164","164","240","232.8713","160.6713","39360","39360","37415.7294","dc","null","null","null","null","null","null","[1,3]","514.3872910110038","178.93082919313827","499.3175354365585"
"","canvas-keyboard-response","143","119553","0.0-6.0-4.19","561","","","","","clear_screen","null","null","","","critical","d","t","c","232.8713","160.6713","240","164","164","240","spektor","0.05","w","240","164","164","240","232.8713","160.6713","39360","39360","37415.7294","dc","null","null","null","null","null","null","[1,3]","514.3872910110038","178.93082919313827","499.3175354365585"
"","canvas-keyboard-response","144","121503","0.0-6.0-5.19","561","","","","","make choice","1945","3","","","critical","d","t","c","232.8713","160.6713","240","164","164","240","spektor","0.05","w","240","164","164","240","232.8713","160.6713","39360","39360","37415.7294","dc","null","null","null","null","null","null","[1,3]","","",""
"","canvas-keyboard-response","145","121521","0.0-6.0-6.19","561","","","","","clear_screen","null","null","","","critical","d","t","c","232.8713","160.6713","240","164","164","240","spektor","0.05","w","240","164","164","240","232.8713","160.6713","39360","39360","37415.7294","dc","null","null","null","null","null","null","[1,3]","","",""
"","canvas-keyboard-response","146","121722","0.0-6.0-0.20","561","","","","","pre trial waiting period","null","null","","","critical","d","c","t","160.6713","232.8713","240","164","164","240","spektor","0.05","h","164","240","240","164","160.6713","232.8713","39360","39360","37415.7294","tc","null","null","null","null","null","null","[3,2]","492.3849832461703","171.25256959917954","485.268549813812"
"","canvas-keyboard-response","147","121744","0.0-6.0-1.20","561","","","","","clear_screen","null","null","","","critical","d","c","t","160.6713","232.8713","240","164","164","240","spektor","0.05","h","164","240","240","164","160.6713","232.8713","39360","39360","37415.7294","tc","null","null","null","null","null","null","[3,2]","492.3849832461703","171.25256959917954","485.268549813812"
"","canvas-keyboard-response","148","122253","0.0-6.0-2.20","561","","","","","rectangles no change","null","null","","","critical","d","c","t","160.6713","232.8713","240","164","164","240","spektor","0.05","h","164","240","240","164","160.6713","232.8713","39360","39360","37415.7294","tc","null","null","null","null","null","null","[3,2]","492.3849832461703","171.25256959917954","485.268549813812"
"","canvas-keyboard-response","149","123587","0.0-6.0-3.20","561","","","","","rectangles with change","null","null","","","critical","d","c","t","160.6713","232.8713","240","164","164","240","spektor","0.05","h","164","240","240","164","160.6713","232.8713","39360","39360","37415.7294","tc","null","null","null","null","null","null","[3,2]","492.3849832461703","171.25256959917954","485.268549813812"
"","canvas-keyboard-response","150","123609","0.0-6.0-4.20","561","","","","","clear_screen","null","null","","","critical","d","c","t","160.6713","232.8713","240","164","164","240","spektor","0.05","h","164","240","240","164","160.6713","232.8713","39360","39360","37415.7294","tc","null","null","null","null","null","null","[3,2]","492.3849832461703","171.25256959917954","485.268549813812"
"","canvas-keyboard-response","151","123912","0.0-6.0-5.20","561","","","","","make choice","298","3","","","critical","d","c","t","160.6713","232.8713","240","164","164","240","spektor","0.05","h","164","240","240","164","160.6713","232.8713","39360","39360","37415.7294","tc","null","null","null","null","null","null","[3,2]","","",""
"","canvas-keyboard-response","152","123932","0.0-6.0-6.20","561","","","","","clear_screen","null","null","","","critical","d","c","t","160.6713","232.8713","240","164","164","240","spektor","0.05","h","164","240","240","164","160.6713","232.8713","39360","39360","37415.7294","tc","null","null","null","null","null","null","[3,2]","","",""
"","canvas-keyboard-response","153","124133","0.0-6.0-0.21","561","","","","","pre trial waiting period","null","null","","","critical","t","c","d","240","164","164","240","220.0396","154.6796","spektor","0.14","w","240","164","164","240","220.0396","154.6796","39360","39360","34035.6388","td","null","null","null","null","null","null","[1,3]","498.30093171752014","153.39503557986262","540.3062817803235"
"","canvas-keyboard-response","154","124152","0.0-6.0-1.21","561","","","","","clear_screen","null","null","","","critical","t","c","d","240","164","164","240","220.0396","154.6796","spektor","0.14","w","240","164","164","240","220.0396","154.6796","39360","39360","34035.6388","td","null","null","null","null","null","null","[1,3]","498.30093171752014","153.39503557986262","540.3062817803235"
"","canvas-keyboard-response","155","124661","0.0-6.0-2.21","561","","","","","rectangles no change","null","null","","","critical","t","c","d","240","164","164","240","220.0396","154.6796","spektor","0.14","w","240","164","164","240","220.0396","154.6796","39360","39360","34035.6388","td","null","null","null","null","null","null","[1,3]","498.30093171752014","153.39503557986262","540.3062817803235"
"","canvas-keyboard-response","156","125998","0.0-6.0-3.21","561","","","","","rectangles with change","null","null","","","critical","t","c","d","240","164","164","240","220.0396","154.6796","spektor","0.14","w","240","164","164","240","220.0396","154.6796","39360","39360","34035.6388","td","null","null","null","null","null","null","[1,3]","498.30093171752014","153.39503557986262","540.3062817803235"
"","canvas-keyboard-response","157","126018","0.0-6.0-4.21","561","","","","","clear_screen","null","null","","","critical","t","c","d","240","164","164","240","220.0396","154.6796","spektor","0.14","w","240","164","164","240","220.0396","154.6796","39360","39360","34035.6388","td","null","null","null","null","null","null","[1,3]","498.30093171752014","153.39503557986262","540.3062817803235"
"","canvas-keyboard-response","158","126656","0.0-6.0-5.21","561","","","","","make choice","632","1","","","critical","t","c","d","240","164","164","240","220.0396","154.6796","spektor","0.14","w","240","164","164","240","220.0396","154.6796","39360","39360","34035.6388","td","null","null","null","null","null","null","[1,3]","","",""
"","canvas-keyboard-response","159","126677","0.0-6.0-6.21","561","","","","","clear_screen","null","null","","","critical","t","c","d","240","164","164","240","220.0396","154.6796","spektor","0.14","w","240","164","164","240","220.0396","154.6796","39360","39360","34035.6388","td","null","null","null","null","null","null","[1,3]","","",""
"","canvas-keyboard-response","160","126879","0.0-6.0-0.22","561","","","","","pre trial waiting period","null","null","","","critical","c","d","t","240","164","164","240","164","240","trueblood","0","h","164","240","240","164","164","240","39360","39360","39360","tc","null","null","null","null","null","null","[3,1]","486.6804831842156","451.88917391594583","466.0535554630913"
"","canvas-keyboard-response","161","126898","0.0-6.0-1.22","561","","","","","clear_screen","null","null","","","critical","c","d","t","240","164","164","240","164","240","trueblood","0","h","164","240","240","164","164","240","39360","39360","39360","tc","null","null","null","null","null","null","[3,1]","486.6804831842156","451.88917391594583","466.0535554630913"
"","canvas-keyboard-response","162","127405","0.0-6.0-2.22","561","","","","","rectangles no change","null","null","","","critical","c","d","t","240","164","164","240","164","240","trueblood","0","h","164","240","240","164","164","240","39360","39360","39360","tc","null","null","null","null","null","null","[3,1]","486.6804831842156","451.88917391594583","466.0535554630913"
"","canvas-keyboard-response","163","128742","0.0-6.0-3.22","561","","","","","rectangles with change","null","null","","","critical","c","d","t","240","164","164","240","164","240","trueblood","0","h","164","240","240","164","164","240","39360","39360","39360","tc","null","null","null","null","null","null","[3,1]","486.6804831842156","451.88917391594583","466.0535554630913"
"","canvas-keyboard-response","164","128763","0.0-6.0-4.22","561","","","","","clear_screen","null","null","","","critical","c","d","t","240","164","164","240","164","240","trueblood","0","h","164","240","240","164","164","240","39360","39360","39360","tc","null","null","null","null","null","null","[3,1]","486.6804831842156","451.88917391594583","466.0535554630913"
"","canvas-keyboard-response","165","129287","0.0-6.0-5.22","561","","","","","make choice","519","1","","","critical","c","d","t","240","164","164","240","164","240","trueblood","0","h","164","240","240","164","164","240","39360","39360","39360","tc","null","null","null","null","null","null","[3,1]","","",""
"","canvas-keyboard-response","166","129307","0.0-6.0-6.22","561","","","","","clear_screen","null","null","","","critical","c","d","t","240","164","164","240","164","240","trueblood","0","h","164","240","240","164","164","240","39360","39360","39360","tc","null","null","null","null","null","null","[3,1]","","",""
"","canvas-keyboard-response","167","129508","0.0-6.0-0.23","561","","","","","pre trial waiting period","null","null","","","critical","d","c","t","220.0396","154.6796","164","240","240","164","spektor","0.14","w","240","164","164","240","220.0396","154.6796","39360","39360","34035.6388","tc","null","null","null","null","null","null","[3,2]","501.8167410999991","124.6528822211704","527.9781199371781"
"","canvas-keyboard-response","168","129531","0.0-6.0-1.23","561","","","","","clear_screen","null","null","","","critical","d","c","t","220.0396","154.6796","164","240","240","164","spektor","0.14","w","240","164","164","240","220.0396","154.6796","39360","39360","34035.6388","tc","null","null","null","null","null","null","[3,2]","501.8167410999991","124.6528822211704","527.9781199371781"
"","canvas-keyboard-response","169","130037","0.0-6.0-2.23","561","","","","","rectangles no change","null","null","","","critical","d","c","t","220.0396","154.6796","164","240","240","164","spektor","0.14","w","240","164","164","240","220.0396","154.6796","39360","39360","34035.6388","tc","null","null","null","null","null","null","[3,2]","501.8167410999991","124.6528822211704","527.9781199371781"
"","canvas-keyboard-response","170","131374","0.0-6.0-3.23","561","","","","","rectangles with change","null","null","","","critical","d","c","t","220.0396","154.6796","164","240","240","164","spektor","0.14","w","240","164","164","240","220.0396","154.6796","39360","39360","34035.6388","tc","null","null","null","null","null","null","[3,2]","501.8167410999991","124.6528822211704","527.9781199371781"
"","canvas-keyboard-response","171","131392","0.0-6.0-4.23","561","","","","","clear_screen","null","null","","","critical","d","c","t","220.0396","154.6796","164","240","240","164","spektor","0.14","w","240","164","164","240","220.0396","154.6796","39360","39360","34035.6388","tc","null","null","null","null","null","null","[3,2]","501.8167410999991","124.6528822211704","527.9781199371781"
"","canvas-keyboard-response","172","131840","0.0-6.0-5.23","561","","","","","make choice","442","3","","","critical","d","c","t","220.0396","154.6796","164","240","240","164","spektor","0.14","w","240","164","164","240","220.0396","154.6796","39360","39360","34035.6388","tc","null","null","null","null","null","null","[3,2]","","",""
"","canvas-keyboard-response","173","131861","0.0-6.0-6.23","561","","","","","clear_screen","null","null","","","critical","d","c","t","220.0396","154.6796","164","240","240","164","spektor","0.14","w","240","164","164","240","220.0396","154.6796","39360","39360","34035.6388","tc","null","null","null","null","null","null","[3,2]","","",""
"","canvas-keyboard-response","174","132062","0.0-6.0-0.24","561","","","","","pre trial waiting period","null","null","","","catch","sw","l","sh","180","200","230","290","186","145","spektor","null","null","null","null","null","null","null","null","null","null","null","","180","200","260","200","36000","52000","[2,3]","501.2308927929357","103.23976666005248","547.9772484164981"
"","canvas-keyboard-response","175","132085","0.0-6.0-1.24","561","","","","","clear_screen","null","null","","","catch","sw","l","sh","180","200","230","290","186","145","spektor","null","null","null","null","null","null","null","null","null","null","null","","180","200","260","200","36000","52000","[2,3]","501.2308927929357","103.23976666005248","547.9772484164981"
"","canvas-keyboard-response","176","132592","0.0-6.0-2.24","561","","","","","rectangles no change","null","null","","","catch","sw","l","sh","180","200","230","290","186","145","spektor","null","null","null","null","null","null","null","null","null","null","null","","180","200","260","200","36000","52000","[2,3]","501.2308927929357","103.23976666005248","547.9772484164981"
"","canvas-keyboard-response","177","133930","0.0-6.0-3.24","561","","","","","rectangles with change","null","null","","","catch","sw","l","sh","180","200","230","290","186","145","spektor","null","null","null","null","null","null","null","null","null","null","null","","180","200","260","200","36000","52000","[2,3]","501.2308927929357","103.23976666005248","547.9772484164981"
"","canvas-keyboard-response","178","133954","0.0-6.0-4.24","561","","","","","clear_screen","null","null","","","catch","sw","l","sh","180","200","230","290","186","145","spektor","null","null","null","null","null","null","null","null","null","null","null","","180","200","260","200","36000","52000","[2,3]","501.2308927929357","103.23976666005248","547.9772484164981"
"","canvas-keyboard-response","179","134328","0.0-6.0-5.24","561","","","","","make choice","366","2","","","catch","sw","l","sh","180","200","230","290","186","145","spektor","null","null","null","null","null","null","null","null","null","null","null","","180","200","260","200","36000","52000","[2,3]","","",""
"","canvas-keyboard-response","180","134347","0.0-6.0-6.24","561","","","","","clear_screen","null","null","","","catch","sw","l","sh","180","200","230","290","186","145","spektor","null","null","null","null","null","null","null","null","null","null","null","","180","200","260","200","36000","52000","[2,3]","","",""
"","canvas-keyboard-response","181","134548","0.0-6.0-0.25","561","","","","","pre trial waiting period","null","null","","","critical","t","d","c","240","164","240","164","164","240","spektor","0","w","240","164","164","240","240","164","39360","39360","39360","td","null","null","null","null","null","null","[1,2]","512.771269810248","180.8829748088629","504.1595105474778"
"","canvas-keyboard-response","182","134570","0.0-6.0-1.25","561","","","","","clear_screen","null","null","","","critical","t","d","c","240","164","240","164","164","240","spektor","0","w","240","164","164","240","240","164","39360","39360","39360","td","null","null","null","null","null","null","[1,2]","512.771269810248","180.8829748088629","504.1595105474778"
"","canvas-keyboard-response","183","135076","0.0-6.0-2.25","561","","","","","rectangles no change","null","null","","","critical","t","d","c","240","164","240","164","164","240","spektor","0","w","240","164","164","240","240","164","39360","39360","39360","td","null","null","null","null","null","null","[1,2]","512.771269810248","180.8829748088629","504.1595105474778"
"","canvas-keyboard-response","184","136414","0.0-6.0-3.25","561","","","","","rectangles with change","null","null","","","critical","t","d","c","240","164","240","164","164","240","spektor","0","w","240","164","164","240","240","164","39360","39360","39360","td","null","null","null","null","null","null","[1,2]","512.771269810248","180.8829748088629","504.1595105474778"
"","canvas-keyboard-response","185","136434","0.0-6.0-4.25","561","","","","","clear_screen","null","null","","","critical","t","d","c","240","164","240","164","164","240","spektor","0","w","240","164","164","240","240","164","39360","39360","39360","td","null","null","null","null","null","null","[1,2]","512.771269810248","180.8829748088629","504.1595105474778"
"","canvas-keyboard-response","186","136944","0.0-6.0-5.25","561","","","","","make choice","503","1","","","critical","t","d","c","240","164","240","164","164","240","spektor","0","w","240","164","164","240","240","164","39360","39360","39360","td","null","null","null","null","null","null","[1,2]","","",""
"","canvas-keyboard-response","187","136962","0.0-6.0-6.25","561","","","","","clear_screen","null","null","","","critical","t","d","c","240","164","240","164","164","240","spektor","0","w","240","164","164","240","240","164","39360","39360","39360","td","null","null","null","null","null","null","[1,2]","","",""
"","canvas-keyboard-response","188","137163","0.0-6.0-0.26","561","","","","","pre trial waiting period","null","null","","","critical","c","t","d","240","164","164","240","158.0083","227.1683","spektor","0.09","h","164","240","240","164","158.0083","227.1683","39360","39360","35894.4834","td","null","null","null","null","null","null","[2,3]","538.4389621241224","121.9745470136038","464.69157348311296"
"","canvas-keyboard-response","189","137188","0.0-6.0-1.26","561","","","","","clear_screen","null","null","","","critical","c","t","d","240","164","164","240","158.0083","227.1683","spektor","0.09","h","164","240","240","164","158.0083","227.1683","39360","39360","35894.4834","td","null","null","null","null","null","null","[2,3]","538.4389621241224","121.9745470136038","464.69157348311296"
"","canvas-keyboard-response","190","137698","0.0-6.0-2.26","561","","","","","rectangles no change","null","null","","","critical","c","t","d","240","164","164","240","158.0083","227.1683","spektor","0.09","h","164","240","240","164","158.0083","227.1683","39360","39360","35894.4834","td","null","null","null","null","null","null","[2,3]","538.4389621241224","121.9745470136038","464.69157348311296"
"","canvas-keyboard-response","191","139030","0.0-6.0-3.26","561","","","","","rectangles with change","null","null","","","critical","c","t","d","240","164","164","240","158.0083","227.1683","spektor","0.09","h","164","240","240","164","158.0083","227.1683","39360","39360","35894.4834","td","null","null","null","null","null","null","[2,3]","538.4389621241224","121.9745470136038","464.69157348311296"
"","canvas-keyboard-response","192","139054","0.0-6.0-4.26","561","","","","","clear_screen","null","null","","","critical","c","t","d","240","164","164","240","158.0083","227.1683","spektor","0.09","h","164","240","240","164","158.0083","227.1683","39360","39360","35894.4834","td","null","null","null","null","null","null","[2,3]","538.4389621241224","121.9745470136038","464.69157348311296"
"","canvas-keyboard-response","193","139392","0.0-6.0-5.26","561","","","","","make choice","330","3","","","critical","c","t","d","240","164","164","240","158.0083","227.1683","spektor","0.09","h","164","240","240","164","158.0083","227.1683","39360","39360","35894.4834","td","null","null","null","null","null","null","[2,3]","","",""
"","canvas-keyboard-response","194","139414","0.0-6.0-6.26","561","","","","","clear_screen","null","null","","","critical","c","t","d","240","164","164","240","158.0083","227.1683","spektor","0.09","h","164","240","240","164","158.0083","227.1683","39360","39360","35894.4834","td","null","null","null","null","null","null","[2,3]","","",""
"","canvas-keyboard-response","195","139615","0.0-6.0-0.27","561","","","","","pre trial waiting period","null","null","","","critical","t","d","c","164","240","154.6796","220.0396","240","164","trueblood","0.14","h","164","240","240","164","154.6796","220.0396","39360","39360","34035.6388","dc","null","null","null","null","null","null","[2,3]","468.2079044903822","455.8244679930594","478.02705215384645"
"","canvas-keyboard-response","196","139635","0.0-6.0-1.27","561","","","","","clear_screen","null","null","","","critical","t","d","c","164","240","154.6796","220.0396","240","164","trueblood","0.14","h","164","240","240","164","154.6796","220.0396","39360","39360","34035.6388","dc","null","null","null","null","null","null","[2,3]","468.2079044903822","455.8244679930594","478.02705215384645"
"","canvas-keyboard-response","197","140143","0.0-6.0-2.27","561","","","","","rectangles no change","null","null","","","critical","t","d","c","164","240","154.6796","220.0396","240","164","trueblood","0.14","h","164","240","240","164","154.6796","220.0396","39360","39360","34035.6388","dc","null","null","null","null","null","null","[2,3]","468.2079044903822","455.8244679930594","478.02705215384645"
"","canvas-keyboard-response","198","141479","0.0-6.0-3.27","561","","","","","rectangles with change","null","null","","","critical","t","d","c","164","240","154.6796","220.0396","240","164","trueblood","0.14","h","164","240","240","164","154.6796","220.0396","39360","39360","34035.6388","dc","null","null","null","null","null","null","[2,3]","468.2079044903822","455.8244679930594","478.02705215384645"
"","canvas-keyboard-response","199","141502","0.0-6.0-4.27","561","","","","","clear_screen","null","null","","","critical","t","d","c","164","240","154.6796","220.0396","240","164","trueblood","0.14","h","164","240","240","164","154.6796","220.0396","39360","39360","34035.6388","dc","null","null","null","null","null","null","[2,3]","468.2079044903822","455.8244679930594","478.02705215384645"
"","canvas-keyboard-response","200","141808","0.0-6.0-5.27","561","","","","","make choice","300","3","","","critical","t","d","c","164","240","154.6796","220.0396","240","164","trueblood","0.14","h","164","240","240","164","154.6796","220.0396","39360","39360","34035.6388","dc","null","null","null","null","null","null","[2,3]","","",""
"","canvas-keyboard-response","201","141827","0.0-6.0-6.27","561","","","","","clear_screen","null","null","","","critical","t","d","c","164","240","154.6796","220.0396","240","164","trueblood","0.14","h","164","240","240","164","154.6796","220.0396","39360","39360","34035.6388","dc","null","null","null","null","null","null","[2,3]","","",""
"","canvas-keyboard-response","202","142029","0.0-6.0-0.28","561","","","","","pre trial waiting period","null","null","","","critical","d","c","t","164","240","240","164","164","240","spektor","0","h","164","240","240","164","164","240","39360","39360","39360","td","null","null","null","null","null","null","[3,1]","471.17469775791335","168.87334519996367","465.3478593698641"
"","canvas-keyboard-response","203","142051","0.0-6.0-1.28","561","","","","","clear_screen","null","null","","","critical","d","c","t","164","240","240","164","164","240","spektor","0","h","164","240","240","164","164","240","39360","39360","39360","td","null","null","null","null","null","null","[3,1]","471.17469775791335","168.87334519996367","465.3478593698641"
"","canvas-keyboard-response","204","142564","0.0-6.0-2.28","561","","","","","rectangles no change","null","null","","","critical","d","c","t","164","240","240","164","164","240","spektor","0","h","164","240","240","164","164","240","39360","39360","39360","td","null","null","null","null","null","null","[3,1]","471.17469775791335","168.87334519996367","465.3478593698641"
"","canvas-keyboard-response","205","143902","0.0-6.0-3.28","561","","","","","rectangles with change","null","null","","","critical","d","c","t","164","240","240","164","164","240","spektor","0","h","164","240","240","164","164","240","39360","39360","39360","td","null","null","null","null","null","null","[3,1]","471.17469775791335","168.87334519996367","465.3478593698641"
"","canvas-keyboard-response","206","143925","0.0-6.0-4.28","561","","","","","clear_screen","null","null","","","critical","d","c","t","164","240","240","164","164","240","spektor","0","h","164","240","240","164","164","240","39360","39360","39360","td","null","null","null","null","null","null","[3,1]","471.17469775791335","168.87334519996367","465.3478593698641"
"","canvas-keyboard-response","207","144296","0.0-6.0-5.28","561","","","","","make choice","365","1","","","critical","d","c","t","164","240","240","164","164","240","spektor","0","h","164","240","240","164","164","240","39360","39360","39360","td","null","null","null","null","null","null","[3,1]","","",""
"","canvas-keyboard-response","208","144314","0.0-6.0-6.28","561","","","","","clear_screen","null","null","","","critical","d","c","t","164","240","240","164","164","240","spektor","0","h","164","240","240","164","164","240","39360","39360","39360","td","null","null","null","null","null","null","[3,1]","","",""
"","canvas-keyboard-response","209","144514","0.0-6.0-0.29","561","","","","","pre trial waiting period","null","null","","","critical","c","d","t","164","240","237.1485","162.6685","240","164","spektor","0.02","w","240","164","164","240","237.1485","162.6685","39360","39360","38576.5967","tc","null","null","null","null","null","null","[3,1]","473.7307396791752","172.60416157205253","523.6013543181245"
"","canvas-keyboard-response","210","144538","0.0-6.0-1.29","561","","","","","clear_screen","null","null","","","critical","c","d","t","164","240","237.1485","162.6685","240","164","spektor","0.02","w","240","164","164","240","237.1485","162.6685","39360","39360","38576.5967","tc","null","null","null","null","null","null","[3,1]","473.7307396791752","172.60416157205253","523.6013543181245"
"","canvas-keyboard-response","211","145046","0.0-6.0-2.29","561","","","","","rectangles no change","null","null","","","critical","c","d","t","164","240","237.1485","162.6685","240","164","spektor","0.02","w","240","164","164","240","237.1485","162.6685","39360","39360","38576.5967","tc","null","null","null","null","null","null","[3,1]","473.7307396791752","172.60416157205253","523.6013543181245"
"","canvas-keyboard-response","212","146383","0.0-6.0-3.29","561","","","","","rectangles with change","null","null","","","critical","c","d","t","164","240","237.1485","162.6685","240","164","spektor","0.02","w","240","164","164","240","237.1485","162.6685","39360","39360","38576.5967","tc","null","null","null","null","null","null","[3,1]","473.7307396791752","172.60416157205253","523.6013543181245"
"","canvas-keyboard-response","213","146403","0.0-6.0-4.29","561","","","","","clear_screen","null","null","","","critical","c","d","t","164","240","237.1485","162.6685","240","164","spektor","0.02","w","240","164","164","240","237.1485","162.6685","39360","39360","38576.5967","tc","null","null","null","null","null","null","[3,1]","473.7307396791752","172.60416157205253","523.6013543181245"
"","canvas-keyboard-response","214","147401","0.0-6.0-5.29","561","","","","","make choice","992","1","","","critical","c","d","t","164","240","237.1485","162.6685","240","164","spektor","0.02","w","240","164","164","240","237.1485","162.6685","39360","39360","38576.5967","tc","null","null","null","null","null","null","[3,1]","","",""
"","canvas-keyboard-response","215","147422","0.0-6.0-6.29","561","","","","","clear_screen","null","null","","","critical","c","d","t","164","240","237.1485","162.6685","240","164","spektor","0.02","w","240","164","164","240","237.1485","162.6685","39360","39360","38576.5967","tc","null","null","null","null","null","null","[3,1]","","",""
"","canvas-keyboard-response","216","147623","0.0-6.0-0.30","561","","","","","pre trial waiting period","null","null","","","critical","c","t","d","240","164","164","240","160.6713","232.8713","spektor","0.05","h","164","240","240","164","160.6713","232.8713","39360","39360","37415.7294","dc","null","null","null","null","null","null","[3,1]","533.1005462682356","128.41843845059793","468.5375235778072"
"","canvas-keyboard-response","217","147643","0.0-6.0-1.30","561","","","","","clear_screen","null","null","","","critical","c","t","d","240","164","164","240","160.6713","232.8713","spektor","0.05","h","164","240","240","164","160.6713","232.8713","39360","39360","37415.7294","dc","null","null","null","null","null","null","[3,1]","533.1005462682356","128.41843845059793","468.5375235778072"
"","canvas-keyboard-response","218","148149","0.0-6.0-2.30","561","","","","","rectangles no change","null","null","","","critical","c","t","d","240","164","164","240","160.6713","232.8713","spektor","0.05","h","164","240","240","164","160.6713","232.8713","39360","39360","37415.7294","dc","null","null","null","null","null","null","[3,1]","533.1005462682356","128.41843845059793","468.5375235778072"
"","canvas-keyboard-response","219","149486","0.0-6.0-3.30","561","","","","","rectangles with change","null","null","","","critical","c","t","d","240","164","164","240","160.6713","232.8713","spektor","0.05","h","164","240","240","164","160.6713","232.8713","39360","39360","37415.7294","dc","null","null","null","null","null","null","[3,1]","533.1005462682356","128.41843845059793","468.5375235778072"
"","canvas-keyboard-response","220","149504","0.0-6.0-4.30","561","","","","","clear_screen","null","null","","","critical","c","t","d","240","164","164","240","160.6713","232.8713","spektor","0.05","h","164","240","240","164","160.6713","232.8713","39360","39360","37415.7294","dc","null","null","null","null","null","null","[3,1]","533.1005462682356","128.41843845059793","468.5375235778072"
"","canvas-keyboard-response","221","150049","0.0-6.0-5.30","561","","","","","make choice","538","1","","","critical","c","t","d","240","164","164","240","160.6713","232.8713","spektor","0.05","h","164","240","240","164","160.6713","232.8713","39360","39360","37415.7294","dc","null","null","null","null","null","null","[3,1]","","",""
"","canvas-keyboard-response","222","150067","0.0-6.0-6.30","561","","","","","clear_screen","null","null","","","critical","c","t","d","240","164","164","240","160.6713","232.8713","spektor","0.05","h","164","240","240","164","160.6713","232.8713","39360","39360","37415.7294","dc","null","null","null","null","null","null","[3,1]","","",""
"","canvas-keyboard-response","223","150267","0.0-6.0-0.31","561","","","","","pre trial waiting period","null","null","","","critical","d","t","c","154.6796","220.0396","164","240","240","164","trueblood","0.14","h","164","240","240","164","154.6796","220.0396","39360","39360","34035.6388","tc","null","null","null","null","null","null","[2,3]","443.59960706677845","461.65903278902704","486.61103889176985"
"","canvas-keyboard-response","224","150290","0.0-6.0-1.31","561","","","","","clear_screen","null","null","","","critical","d","t","c","154.6796","220.0396","164","240","240","164","trueblood","0.14","h","164","240","240","164","154.6796","220.0396","39360","39360","34035.6388","tc","null","null","null","null","null","null","[2,3]","443.59960706677845","461.65903278902704","486.61103889176985"
"","canvas-keyboard-response","225","150797","0.0-6.0-2.31","561","","","","","rectangles no change","null","null","","","critical","d","t","c","154.6796","220.0396","164","240","240","164","trueblood","0.14","h","164","240","240","164","154.6796","220.0396","39360","39360","34035.6388","tc","null","null","null","null","null","null","[2,3]","443.59960706677845","461.65903278902704","486.61103889176985"
"","canvas-keyboard-response","226","152133","0.0-6.0-3.31","561","","","","","rectangles with change","null","null","","","critical","d","t","c","154.6796","220.0396","164","240","240","164","trueblood","0.14","h","164","240","240","164","154.6796","220.0396","39360","39360","34035.6388","tc","null","null","null","null","null","null","[2,3]","443.59960706677845","461.65903278902704","486.61103889176985"
"","canvas-keyboard-response","227","152154","0.0-6.0-4.31","561","","","","","clear_screen","null","null","","","critical","d","t","c","154.6796","220.0396","164","240","240","164","trueblood","0.14","h","164","240","240","164","154.6796","220.0396","39360","39360","34035.6388","tc","null","null","null","null","null","null","[2,3]","443.59960706677845","461.65903278902704","486.61103889176985"
"","canvas-keyboard-response","228","152528","0.0-6.0-5.31","561","","","","","make choice","365","3","","","critical","d","t","c","154.6796","220.0396","164","240","240","164","trueblood","0.14","h","164","240","240","164","154.6796","220.0396","39360","39360","34035.6388","tc","null","null","null","null","null","null","[2,3]","","",""
"","canvas-keyboard-response","229","152546","0.0-6.0-6.31","561","","","","","clear_screen","null","null","","","critical","d","t","c","154.6796","220.0396","164","240","240","164","trueblood","0.14","h","164","240","240","164","154.6796","220.0396","39360","39360","34035.6388","tc","null","null","null","null","null","null","[2,3]","","",""
"","canvas-keyboard-response","230","152747","0.0-6.0-0.32","561","","","","","pre trial waiting period","null","null","","","critical","t","c","d","240","164","164","240","227.1683","158.0083","trueblood","0.09","w","240","164","164","240","227.1683","158.0083","39360","39360","35894.4834","tc","null","null","null","null","null","null","[1,2]","482.7555128162697","456.13919502947925","511.0834615234927"
"","canvas-keyboard-response","231","152768","0.0-6.0-1.32","561","","","","","clear_screen","null","null","","","critical","t","c","d","240","164","164","240","227.1683","158.0083","trueblood","0.09","w","240","164","164","240","227.1683","158.0083","39360","39360","35894.4834","tc","null","null","null","null","null","null","[1,2]","482.7555128162697","456.13919502947925","511.0834615234927"
"","canvas-keyboard-response","232","153274","0.0-6.0-2.32","561","","","","","rectangles no change","null","null","","","critical","t","c","d","240","164","164","240","227.1683","158.0083","trueblood","0.09","w","240","164","164","240","227.1683","158.0083","39360","39360","35894.4834","tc","null","null","null","null","null","null","[1,2]","482.7555128162697","456.13919502947925","511.0834615234927"
"","canvas-keyboard-response","233","154612","0.0-6.0-3.32","561","","","","","rectangles with change","null","null","","","critical","t","c","d","240","164","164","240","227.1683","158.0083","trueblood","0.09","w","240","164","164","240","227.1683","158.0083","39360","39360","35894.4834","tc","null","null","null","null","null","null","[1,2]","482.7555128162697","456.13919502947925","511.0834615234927"
"","canvas-keyboard-response","234","154632","0.0-6.0-4.32","561","","","","","clear_screen","null","null","","","critical","t","c","d","240","164","164","240","227.1683","158.0083","trueblood","0.09","w","240","164","164","240","227.1683","158.0083","39360","39360","35894.4834","tc","null","null","null","null","null","null","[1,2]","482.7555128162697","456.13919502947925","511.0834615234927"
"","canvas-keyboard-response","235","155016","0.0-6.0-5.32","561","","","","","make choice","380","2","","","critical","t","c","d","240","164","164","240","227.1683","158.0083","trueblood","0.09","w","240","164","164","240","227.1683","158.0083","39360","39360","35894.4834","tc","null","null","null","null","null","null","[1,2]","","",""
"","canvas-keyboard-response","236","155034","0.0-6.0-6.32","561","","","","","clear_screen","null","null","","","critical","t","c","d","240","164","164","240","227.1683","158.0083","trueblood","0.09","w","240","164","164","240","227.1683","158.0083","39360","39360","35894.4834","tc","null","null","null","null","null","null","[1,2]","","",""
"","canvas-keyboard-response","237","155235","0.0-6.0-0.33","561","","","","","pre trial waiting period","null","null","","","critical","t","d","c","164","240","158.0083","227.1683","240","164","spektor","0.09","h","164","240","240","164","158.0083","227.1683","39360","39360","35894.4834","tc","null","null","null","null","null","null","[1,3]","472.2138679109382","107.30477965347141","541.6865903378324"
"","canvas-keyboard-response","238","155259","0.0-6.0-1.33","561","","","","","clear_screen","null","null","","","critical","t","d","c","164","240","158.0083","227.1683","240","164","spektor","0.09","h","164","240","240","164","158.0083","227.1683","39360","39360","35894.4834","tc","null","null","null","null","null","null","[1,3]","472.2138679109382","107.30477965347141","541.6865903378324"
"","canvas-keyboard-response","239","155765","0.0-6.0-2.33","561","","","","","rectangles no change","null","null","","","critical","t","d","c","164","240","158.0083","227.1683","240","164","spektor","0.09","h","164","240","240","164","158.0083","227.1683","39360","39360","35894.4834","tc","null","null","null","null","null","null","[1,3]","472.2138679109382","107.30477965347141","541.6865903378324"
"","canvas-keyboard-response","240","157102","0.0-6.0-3.33","561","","","","","rectangles with change","null","null","","","critical","t","d","c","164","240","158.0083","227.1683","240","164","spektor","0.09","h","164","240","240","164","158.0083","227.1683","39360","39360","35894.4834","tc","null","null","null","null","null","null","[1,3]","472.2138679109382","107.30477965347141","541.6865903378324"
"","canvas-keyboard-response","241","157122","0.0-6.0-4.33","561","","","","","clear_screen","null","null","","","critical","t","d","c","164","240","158.0083","227.1683","240","164","spektor","0.09","h","164","240","240","164","158.0083","227.1683","39360","39360","35894.4834","tc","null","null","null","null","null","null","[1,3]","472.2138679109382","107.30477965347141","541.6865903378324"
"","canvas-keyboard-response","242","158176","0.0-6.0-5.33","561","","","","","make choice","1046","1","","","critical","t","d","c","164","240","158.0083","227.1683","240","164","spektor","0.09","h","164","240","240","164","158.0083","227.1683","39360","39360","35894.4834","tc","null","null","null","null","null","null","[1,3]","","",""
"","canvas-keyboard-response","243","158198","0.0-6.0-6.33","561","","","","","clear_screen","null","null","","","critical","t","d","c","164","240","158.0083","227.1683","240","164","spektor","0.09","h","164","240","240","164","158.0083","227.1683","39360","39360","35894.4834","tc","null","null","null","null","null","null","[1,3]","","",""
"","canvas-keyboard-response","244","158399","0.0-6.0-0.34","561","","","","","pre trial waiting period","null","null","","","critical","c","t","d","164","240","240","164","240","164","trueblood","0","w","240","164","164","240","240","164","39360","39360","39360","dc","null","null","null","null","null","null","[3,1]","451.0039017151062","508.5689431394327","490.37749577141034"
"","canvas-keyboard-response","245","158422","0.0-6.0-1.34","561","","","","","clear_screen","null","null","","","critical","c","t","d","164","240","240","164","240","164","trueblood","0","w","240","164","164","240","240","164","39360","39360","39360","dc","null","null","null","null","null","null","[3,1]","451.0039017151062","508.5689431394327","490.37749577141034"
"","canvas-keyboard-response","246","158929","0.0-6.0-2.34","561","","","","","rectangles no change","null","null","","","critical","c","t","d","164","240","240","164","240","164","trueblood","0","w","240","164","164","240","240","164","39360","39360","39360","dc","null","null","null","null","null","null","[3,1]","451.0039017151062","508.5689431394327","490.37749577141034"
"","canvas-keyboard-response","247","160269","0.0-6.0-3.34","561","","","","","rectangles with change","null","null","","","critical","c","t","d","164","240","240","164","240","164","trueblood","0","w","240","164","164","240","240","164","39360","39360","39360","dc","null","null","null","null","null","null","[3,1]","451.0039017151062","508.5689431394327","490.37749577141034"
"","canvas-keyboard-response","248","160290","0.0-6.0-4.34","561","","","","","clear_screen","null","null","","","critical","c","t","d","164","240","240","164","240","164","trueblood","0","w","240","164","164","240","240","164","39360","39360","39360","dc","null","null","null","null","null","null","[3,1]","451.0039017151062","508.5689431394327","490.37749577141034"
"","canvas-keyboard-response","249","160311","0.0-6.0-5.34","561","","","","","make choice","15","3","","","critical","c","t","d","164","240","240","164","240","164","trueblood","0","w","240","164","164","240","240","164","39360","39360","39360","dc","null","null","null","null","null","null","[3,1]","","",""
"","canvas-keyboard-response","250","160326","0.0-6.0-6.34","561","","","","","clear_screen","null","null","","","critical","c","t","d","164","240","240","164","240","164","trueblood","0","w","240","164","164","240","240","164","39360","39360","39360","dc","null","null","null","null","null","null","[3,1]","","",""
"","canvas-keyboard-response","251","160527","0.0-6.0-0.35","561","","","","","pre trial waiting period","null","null","","","critical","c","t","d","164","240","240","164","227.1683","158.0083","spektor","0.09","w","240","164","164","240","227.1683","158.0083","39360","39360","35894.4834","tc","null","null","null","null","null","null","[2,1]","503.9057853065752","212.05268876580777","525.0418273288726"
"","canvas-keyboard-response","252","160547","0.0-6.0-1.35","561","","","","","clear_screen","null","null","","","critical","c","t","d","164","240","240","164","227.1683","158.0083","spektor","0.09","w","240","164","164","240","227.1683","158.0083","39360","39360","35894.4834","tc","null","null","null","null","null","null","[2,1]","503.9057853065752","212.05268876580777","525.0418273288726"
"","canvas-keyboard-response","253","161055","0.0-6.0-2.35","561","","","","","rectangles no change","null","null","","","critical","c","t","d","164","240","240","164","227.1683","158.0083","spektor","0.09","w","240","164","164","240","227.1683","158.0083","39360","39360","35894.4834","tc","null","null","null","null","null","null","[2,1]","503.9057853065752","212.05268876580777","525.0418273288726"
"","canvas-keyboard-response","254","162391","0.0-6.0-3.35","561","","","","","rectangles with change","null","null","","","critical","c","t","d","164","240","240","164","227.1683","158.0083","spektor","0.09","w","240","164","164","240","227.1683","158.0083","39360","39360","35894.4834","tc","null","null","null","null","null","null","[2,1]","503.9057853065752","212.05268876580777","525.0418273288726"
"","canvas-keyboard-response","255","162413","0.0-6.0-4.35","561","","","","","clear_screen","null","null","","","critical","c","t","d","164","240","240","164","227.1683","158.0083","spektor","0.09","w","240","164","164","240","227.1683","158.0083","39360","39360","35894.4834","tc","null","null","null","null","null","null","[2,1]","503.9057853065752","212.05268876580777","525.0418273288726"
"","canvas-keyboard-response","256","162736","0.0-6.0-5.35","561","","","","","make choice","317","1","","","critical","c","t","d","164","240","240","164","227.1683","158.0083","spektor","0.09","w","240","164","164","240","227.1683","158.0083","39360","39360","35894.4834","tc","null","null","null","null","null","null","[2,1]","","",""
"","canvas-keyboard-response","257","162753","0.0-6.0-6.35","561","","","","","clear_screen","null","null","","","critical","c","t","d","164","240","240","164","227.1683","158.0083","spektor","0.09","w","240","164","164","240","227.1683","158.0083","39360","39360","35894.4834","tc","null","null","null","null","null","null","[2,1]","","",""
"","canvas-keyboard-response","258","162954","0.0-6.0-0.36","561","","","","","pre trial waiting period","null","null","","","critical","d","c","t","160.6713","232.8713","240","164","164","240","trueblood","0.05","h","164","240","240","164","160.6713","232.8713","39360","39360","37415.7294","dc","null","null","null","null","null","null","[1,2]","454.99306297956014","499.28091639000155","462.17423545643686"
"","canvas-keyboard-response","259","162974","0.0-6.0-1.36","561","","","","","clear_screen","null","null","","","critical","d","c","t","160.6713","232.8713","240","164","164","240","trueblood","0.05","h","164","240","240","164","160.6713","232.8713","39360","39360","37415.7294","dc","null","null","null","null","null","null","[1,2]","454.99306297956014","499.28091639000155","462.17423545643686"
"","canvas-keyboard-response","260","163482","0.0-6.0-2.36","561","","","","","rectangles no change","null","null","","","critical","d","c","t","160.6713","232.8713","240","164","164","240","trueblood","0.05","h","164","240","240","164","160.6713","232.8713","39360","39360","37415.7294","dc","null","null","null","null","null","null","[1,2]","454.99306297956014","499.28091639000155","462.17423545643686"
"","canvas-keyboard-response","261","164821","0.0-6.0-3.36","561","","","","","rectangles with change","null","null","","","critical","d","c","t","160.6713","232.8713","240","164","164","240","trueblood","0.05","h","164","240","240","164","160.6713","232.8713","39360","39360","37415.7294","dc","null","null","null","null","null","null","[1,2]","454.99306297956014","499.28091639000155","462.17423545643686"
"","canvas-keyboard-response","262","164842","0.0-6.0-4.36","561","","","","","clear_screen","null","null","","","critical","d","c","t","160.6713","232.8713","240","164","164","240","trueblood","0.05","h","164","240","240","164","160.6713","232.8713","39360","39360","37415.7294","dc","null","null","null","null","null","null","[1,2]","454.99306297956014","499.28091639000155","462.17423545643686"
"","canvas-keyboard-response","263","165200","0.0-6.0-5.36","561","","","","","make choice","350","1","","","critical","d","c","t","160.6713","232.8713","240","164","164","240","trueblood","0.05","h","164","240","240","164","160.6713","232.8713","39360","39360","37415.7294","dc","null","null","null","null","null","null","[1,2]","","",""
"","canvas-keyboard-response","264","165221","0.0-6.0-6.36","561","","","","","clear_screen","null","null","","","critical","d","c","t","160.6713","232.8713","240","164","164","240","trueblood","0.05","h","164","240","240","164","160.6713","232.8713","39360","39360","37415.7294","dc","null","null","null","null","null","null","[1,2]","","",""
"","canvas-keyboard-response","265","165422","0.0-6.0-0.37","561","","","","","pre trial waiting period","null","null","","","critical","d","c","t","154.6796","220.0396","240","164","164","240","spektor","0.14","h","164","240","240","164","154.6796","220.0396","39360","39360","34035.6388","dc","null","null","null","null","null","null","[1,2]","486.95550976762036","177.79338875970504","480.57645238798153"
"","canvas-keyboard-response","266","165443","0.0-6.0-1.37","561","","","","","clear_screen","null","null","","","critical","d","c","t","154.6796","220.0396","240","164","164","240","spektor","0.14","h","164","240","240","164","154.6796","220.0396","39360","39360","34035.6388","dc","null","null","null","null","null","null","[1,2]","486.95550976762036","177.79338875970504","480.57645238798153"
