"success","trial_type","trial_index","time_elapsed","internal_node_id","sub_n","timeout","failed_images","failed_audio","failed_video","screen_id","rt","response","stimulus","view_history","trial","r1","r2","r3","w1","h1","w2","h2","w3","h3","display","tdd","tdo","tw","th","cw","ch","dw","dh","ta","ca","da","probe","csls","csss","clls","clss","sa","la","probe_rects","r1yloc","r2yloc","r3yloc"
"true","fullscreen","0","2294","0.0-0.0","578","","","","","","","","","","","","","","","","","","","","","","","","","","","","","","","","","","","","","","","","","",""
"true","preload","1","2310","0.0-1.0","578","false","[]","[]","[]","img preload","","","","","","","","","","","","","","","","","","","","","","","","","","","","","","","","","","","","",""
"","survey-html-form","2","3892","0.0-2.0","578","","","","","enter-sub-number","1576","{""response"":""578""}","","","","","","","","","","","","","","","","","","","","","","","","","","","","","","","","","","",""
"","image-button-response","3","20327","0.0-3.0","578","","","","","","16366","0","consent.png","","","","","","","","","","","","","","","","","","","","","","","","","","","","","","","","","",""
"","html-button-response","4","24038","0.0-4.0","578","","","","","intro mssg","3707","0","<div style= ""font-size:25px;"" <p> <strong> Welcome! </strong><br> <p style=""color:#8B0000; font-size:25px;""><strong> Please do NOT exit full screen until you are done with the experiment. </strong> </p><p style=""font-size:25px;color:#8B0000;""> <strong> Your data will be lost <br> if you try to go back or refresh the page after the experiment starts. Feel free to click ""previous"" during the instructions, however.</strong> </p><br><p> <strong> Thanks in advance for your contribution to our research! </strong></p>","","","","","","","","","","","","","","","","","","","","","","","","","","","","","","","","","",""
"","instructions","5","55486","0.0-5.0","578","","","","","instructions","31443","","","[{""page_index"":0,""viewing_time"":4314},{""page_index"":1,""viewing_time"":5064},{""page_index"":2,""viewing_time"":2112},{""page_index"":3,""viewing_time"":11072},{""page_index"":4,""viewing_time"":4080},{""page_index"":5,""viewing_time"":1592},{""page_index"":6,""viewing_time"":1871},{""page_index"":7,""viewing_time"":1337}]","","","","","","","","","","","","","","","","","","","","","","","","","","","","","","","","",""
"","canvas-keyboard-response","6","55693","0.0-6.0-0.0","578","","","","","pre trial waiting period","null","null","","","critical","t","c","d","164","240","240","164","154.6796","220.0396","trueblood","0.14","h","164","240","240","164","154.6796","220.0396","39360","39360","34035.6388","dc","null","null","null","null","null","null","[3,2]","455.55111150526784","503.8208261997267","462.5684666603256"
"","canvas-keyboard-response","7","55716","0.0-6.0-1.0","578","","","","","clear_screen","null","null","","","critical","t","c","d","164","240","240","164","154.6796","220.0396","trueblood","0.14","h","164","240","240","164","154.6796","220.0396","39360","39360","34035.6388","dc","null","null","null","null","null","null","[3,2]","455.55111150526784","503.8208261997267","462.5684666603256"
"","canvas-keyboard-response","8","56225","0.0-6.0-2.0","578","","","","","rectangles no change","null","null","","","critical","t","c","d","164","240","240","164","154.6796","220.0396","trueblood","0.14","h","164","240","240","164","154.6796","220.0396","39360","39360","34035.6388","dc","null","null","null","null","null","null","[3,2]","455.55111150526784","503.8208261997267","462.5684666603256"
"","canvas-keyboard-response","9","57566","0.0-6.0-3.0","578","","","","","rectangles with change","null","null","","","critical","t","c","d","164","240","240","164","154.6796","220.0396","trueblood","0.14","h","164","240","240","164","154.6796","220.0396","39360","39360","34035.6388","dc","null","null","null","null","null","null","[3,2]","455.55111150526784","503.8208261997267","462.5684666603256"
"","canvas-keyboard-response","10","57587","0.0-6.0-4.0","578","","","","","clear_screen","null","null","","","critical","t","c","d","164","240","240","164","154.6796","220.0396","trueblood","0.14","h","164","240","240","164","154.6796","220.0396","39360","39360","34035.6388","dc","null","null","null","null","null","null","[3,2]","455.55111150526784","503.8208261997267","462.5684666603256"
"","canvas-keyboard-response","11","60672","0.0-6.0-5.0","578","","","","","make choice","3076","3","","","critical","t","c","d","164","240","240","164","154.6796","220.0396","trueblood","0.14","h","164","240","240","164","154.6796","220.0396","39360","39360","34035.6388","dc","null","null","null","null","null","null","[3,2]","","",""
"","canvas-keyboard-response","12","60689","0.0-6.0-6.0","578","","","","","clear_screen","null","null","","","critical","t","c","d","164","240","240","164","154.6796","220.0396","trueblood","0.14","h","164","240","240","164","154.6796","220.0396","39360","39360","34035.6388","dc","null","null","null","null","null","null","[3,2]","","",""
"","canvas-keyboard-response","13","60890","0.0-6.0-0.1","578","","","","","pre trial waiting period","null","null","","","catch","sh","l","sw","230","184","190","256","172","233","spektor","null","null","null","null","null","null","null","null","null","null","null","","180","200","260","200","36000","52000","[1,2]","506.01422312583315","104.46787730821681","489.6899870409315"
"","canvas-keyboard-response","14","60910","0.0-6.0-1.1","578","","","","","clear_screen","null","null","","","catch","sh","l","sw","230","184","190","256","172","233","spektor","null","null","null","null","null","null","null","null","null","null","null","","180","200","260","200","36000","52000","[1,2]","506.01422312583315","104.46787730821681","489.6899870409315"
"","canvas-keyboard-response","15","61418","0.0-6.0-2.1","578","","","","","rectangles no change","null","null","","","catch","sh","l","sw","230","184","190","256","172","233","spektor","null","null","null","null","null","null","null","null","null","null","null","","180","200","260","200","36000","52000","[1,2]","506.01422312583315","104.46787730821681","489.6899870409315"
"","canvas-keyboard-response","16","62754","0.0-6.0-3.1","578","","","","","rectangles with change","null","null","","","catch","sh","l","sw","230","184","190","256","172","233","spektor","null","null","null","null","null","null","null","null","null","null","null","","180","200","260","200","36000","52000","[1,2]","506.01422312583315","104.46787730821681","489.6899870409315"
"","canvas-keyboard-response","17","62774","0.0-6.0-4.1","578","","","","","clear_screen","null","null","","","catch","sh","l","sw","230","184","190","256","172","233","spektor","null","null","null","null","null","null","null","null","null","null","null","","180","200","260","200","36000","52000","[1,2]","506.01422312583315","104.46787730821681","489.6899870409315"
"","canvas-keyboard-response","18","67841","0.0-6.0-5.1","578","","","","","make choice","5055","2","","","catch","sh","l","sw","230","184","190","256","172","233","spektor","null","null","null","null","null","null","null","null","null","null","null","","180","200","260","200","36000","52000","[1,2]","","",""
"","canvas-keyboard-response","19","67860","0.0-6.0-6.1","578","","","","","clear_screen","null","null","","","catch","sh","l","sw","230","184","190","256","172","233","spektor","null","null","null","null","null","null","null","null","null","null","null","","180","200","260","200","36000","52000","[1,2]","","",""
"","canvas-keyboard-response","20","68061","0.0-6.0-0.2","578","","","","","pre trial waiting period","null","null","","","catch","l","sh","sw","246","219","204","205","151","178","spektor","null","null","null","null","null","null","null","null","null","null","null","","180","200","260","200","36000","52000","[1,2]","468.4398843778665","136.81241540551883","517.7128401347803"
"","canvas-keyboard-response","21","68082","0.0-6.0-1.2","578","","","","","clear_screen","null","null","","","catch","l","sh","sw","246","219","204","205","151","178","spektor","null","null","null","null","null","null","null","null","null","null","null","","180","200","260","200","36000","52000","[1,2]","468.4398843778665","136.81241540551883","517.7128401347803"
"","canvas-keyboard-response","22","68592","0.0-6.0-2.2","578","","","","","rectangles no change","null","null","","","catch","l","sh","sw","246","219","204","205","151","178","spektor","null","null","null","null","null","null","null","null","null","null","null","","180","200","260","200","36000","52000","[1,2]","468.4398843778665","136.81241540551883","517.7128401347803"
"","canvas-keyboard-response","23","69933","0.0-6.0-3.2","578","","","","","rectangles with change","null","null","","","catch","l","sh","sw","246","219","204","205","151","178","spektor","null","null","null","null","null","null","null","null","null","null","null","","180","200","260","200","36000","52000","[1,2]","468.4398843778665","136.81241540551883","517.7128401347803"
"","canvas-keyboard-response","24","69954","0.0-6.0-4.2","578","","","","","clear_screen","null","null","","","catch","l","sh","sw","246","219","204","205","151","178","spektor","null","null","null","null","null","null","null","null","null","null","null","","180","200","260","200","36000","52000","[1,2]","468.4398843778665","136.81241540551883","517.7128401347803"
"","canvas-keyboard-response","25","71217","0.0-6.0-5.2","578","","","","","make choice","1257","1","","","catch","l","sh","sw","246","219","204","205","151","178","spektor","null","null","null","null","null","null","null","null","null","null","null","","180","200","260","200","36000","52000","[1,2]","","",""
"","canvas-keyboard-response","26","71236","0.0-6.0-6.2","578","","","","","clear_screen","null","null","","","catch","l","sh","sw","246","219","204","205","151","178","spektor","null","null","null","null","null","null","null","null","null","null","null","","180","200","260","200","36000","52000","[1,2]","","",""
"","canvas-keyboard-response","27","71437","0.0-6.0-0.3","578","","","","","pre trial waiting period","null","null","","","critical","d","c","t","158.0083","227.1683","240","164","164","240","trueblood","0.09","h","164","240","240","164","158.0083","227.1683","39360","39360","35894.4834","tc","null","null","null","null","null","null","[3,2]","470.7926436333349","470.4468828305324","435.09237199747815"
"","canvas-keyboard-response","28","71458","0.0-6.0-1.3","578","","","","","clear_screen","null","null","","","critical","d","c","t","158.0083","227.1683","240","164","164","240","trueblood","0.09","h","164","240","240","164","158.0083","227.1683","39360","39360","35894.4834","tc","null","null","null","null","null","null","[3,2]","470.7926436333349","470.4468828305324","435.09237199747815"
"","canvas-keyboard-response","29","71966","0.0-6.0-2.3","578","","","","","rectangles no change","null","null","","","critical","d","c","t","158.0083","227.1683","240","164","164","240","trueblood","0.09","h","164","240","240","164","158.0083","227.1683","39360","39360","35894.4834","tc","null","null","null","null","null","null","[3,2]","470.7926436333349","470.4468828305324","435.09237199747815"
"","canvas-keyboard-response","30","73302","0.0-6.0-3.3","578","","","","","rectangles with change","null","null","","","critical","d","c","t","158.0083","227.1683","240","164","164","240","trueblood","0.09","h","164","240","240","164","158.0083","227.1683","39360","39360","35894.4834","tc","null","null","null","null","null","null","[3,2]","470.7926436333349","470.4468828305324","435.09237199747815"
"","canvas-keyboard-response","31","73323","0.0-6.0-4.3","578","","","","","clear_screen","null","null","","","critical","d","c","t","158.0083","227.1683","240","164","164","240","trueblood","0.09","h","164","240","240","164","158.0083","227.1683","39360","39360","35894.4834","tc","null","null","null","null","null","null","[3,2]","470.7926436333349","470.4468828305324","435.09237199747815"
"","canvas-keyboard-response","32","74384","0.0-6.0-5.3","578","","","","","make choice","1053","2","","","critical","d","c","t","158.0083","227.1683","240","164","164","240","trueblood","0.09","h","164","240","240","164","158.0083","227.1683","39360","39360","35894.4834","tc","null","null","null","null","null","null","[3,2]","","",""
"","canvas-keyboard-response","33","74400","0.0-6.0-6.3","578","","","","","clear_screen","null","null","","","critical","d","c","t","158.0083","227.1683","240","164","164","240","trueblood","0.09","h","164","240","240","164","158.0083","227.1683","39360","39360","35894.4834","tc","null","null","null","null","null","null","[3,2]","","",""
"","canvas-keyboard-response","34","74600","0.0-6.0-0.4","578","","","","","pre trial waiting period","null","null","","","critical","t","d","c","164","240","154.6796","220.0396","240","164","spektor","0.14","h","164","240","240","164","154.6796","220.0396","39360","39360","34035.6388","dc","null","null","null","null","null","null","[2,3]","480.571045841264","151.26658137323267","510.3198616616456"
"","canvas-keyboard-response","35","74621","0.0-6.0-1.4","578","","","","","clear_screen","null","null","","","critical","t","d","c","164","240","154.6796","220.0396","240","164","spektor","0.14","h","164","240","240","164","154.6796","220.0396","39360","39360","34035.6388","dc","null","null","null","null","null","null","[2,3]","480.571045841264","151.26658137323267","510.3198616616456"
"","canvas-keyboard-response","36","75130","0.0-6.0-2.4","578","","","","","rectangles no change","null","null","","","critical","t","d","c","164","240","154.6796","220.0396","240","164","spektor","0.14","h","164","240","240","164","154.6796","220.0396","39360","39360","34035.6388","dc","null","null","null","null","null","null","[2,3]","480.571045841264","151.26658137323267","510.3198616616456"
"","canvas-keyboard-response","37","76469","0.0-6.0-3.4","578","","","","","rectangles with change","null","null","","","critical","t","d","c","164","240","154.6796","220.0396","240","164","spektor","0.14","h","164","240","240","164","154.6796","220.0396","39360","39360","34035.6388","dc","null","null","null","null","null","null","[2,3]","480.571045841264","151.26658137323267","510.3198616616456"
"","canvas-keyboard-response","38","76488","0.0-6.0-4.4","578","","","","","clear_screen","null","null","","","critical","t","d","c","164","240","154.6796","220.0396","240","164","spektor","0.14","h","164","240","240","164","154.6796","220.0396","39360","39360","34035.6388","dc","null","null","null","null","null","null","[2,3]","480.571045841264","151.26658137323267","510.3198616616456"
"","canvas-keyboard-response","39","77393","0.0-6.0-5.4","578","","","","","make choice","899","3","","","critical","t","d","c","164","240","154.6796","220.0396","240","164","spektor","0.14","h","164","240","240","164","154.6796","220.0396","39360","39360","34035.6388","dc","null","null","null","null","null","null","[2,3]","","",""
"","canvas-keyboard-response","40","77412","0.0-6.0-6.4","578","","","","","clear_screen","null","null","","","critical","t","d","c","164","240","154.6796","220.0396","240","164","spektor","0.14","h","164","240","240","164","154.6796","220.0396","39360","39360","34035.6388","dc","null","null","null","null","null","null","[2,3]","","",""
"","canvas-keyboard-response","41","77613","0.0-6.0-0.5","578","","","","","pre trial waiting period","null","null","","","catch","sw","sh","l","180","200","209","206","233","240","spektor","null","null","null","null","null","null","null","null","null","null","null","","180","200","260","200","36000","52000","[2,3]","491.74850106312545","163.32867038904988","495.6422048643511"
"","canvas-keyboard-response","42","77634","0.0-6.0-1.5","578","","","","","clear_screen","null","null","","","catch","sw","sh","l","180","200","209","206","233","240","spektor","null","null","null","null","null","null","null","null","null","null","null","","180","200","260","200","36000","52000","[2,3]","491.74850106312545","163.32867038904988","495.6422048643511"
"","canvas-keyboard-response","43","78142","0.0-6.0-2.5","578","","","","","rectangles no change","null","null","","","catch","sw","sh","l","180","200","209","206","233","240","spektor","null","null","null","null","null","null","null","null","null","null","null","","180","200","260","200","36000","52000","[2,3]","491.74850106312545","163.32867038904988","495.6422048643511"
"","canvas-keyboard-response","44","79483","0.0-6.0-3.5","578","","","","","rectangles with change","null","null","","","catch","sw","sh","l","180","200","209","206","233","240","spektor","null","null","null","null","null","null","null","null","null","null","null","","180","200","260","200","36000","52000","[2,3]","491.74850106312545","163.32867038904988","495.6422048643511"
"","canvas-keyboard-response","45","79505","0.0-6.0-4.5","578","","","","","clear_screen","null","null","","","catch","sw","sh","l","180","200","209","206","233","240","spektor","null","null","null","null","null","null","null","null","null","null","null","","180","200","260","200","36000","52000","[2,3]","491.74850106312545","163.32867038904988","495.6422048643511"
"","canvas-keyboard-response","46","80209","0.0-6.0-5.5","578","","","","","make choice","699","3","","","catch","sw","sh","l","180","200","209","206","233","240","spektor","null","null","null","null","null","null","null","null","null","null","null","","180","200","260","200","36000","52000","[2,3]","","",""
"","canvas-keyboard-response","47","80230","0.0-6.0-6.5","578","","","","","clear_screen","null","null","","","catch","sw","sh","l","180","200","209","206","233","240","spektor","null","null","null","null","null","null","null","null","null","null","null","","180","200","260","200","36000","52000","[2,3]","","",""
"","canvas-keyboard-response","48","80431","0.0-6.0-0.6","578","","","","","pre trial waiting period","null","null","","","critical","c","t","d","240","164","164","240","154.6796","220.0396","trueblood","0.14","h","164","240","240","164","154.6796","220.0396","39360","39360","34035.6388","td","null","null","null","null","null","null","[2,3]","475.7334009191837","447.012421808544","436.8794746502277"
"","canvas-keyboard-response","49","80452","0.0-6.0-1.6","578","","","","","clear_screen","null","null","","","critical","c","t","d","240","164","164","240","154.6796","220.0396","trueblood","0.14","h","164","240","240","164","154.6796","220.0396","39360","39360","34035.6388","td","null","null","null","null","null","null","[2,3]","475.7334009191837","447.012421808544","436.8794746502277"
"","canvas-keyboard-response","50","80958","0.0-6.0-2.6","578","","","","","rectangles no change","null","null","","","critical","c","t","d","240","164","164","240","154.6796","220.0396","trueblood","0.14","h","164","240","240","164","154.6796","220.0396","39360","39360","34035.6388","td","null","null","null","null","null","null","[2,3]","475.7334009191837","447.012421808544","436.8794746502277"
"","canvas-keyboard-response","51","82292","0.0-6.0-3.6","578","","","","","rectangles with change","null","null","","","critical","c","t","d","240","164","164","240","154.6796","220.0396","trueblood","0.14","h","164","240","240","164","154.6796","220.0396","39360","39360","34035.6388","td","null","null","null","null","null","null","[2,3]","475.7334009191837","447.012421808544","436.8794746502277"
"","canvas-keyboard-response","52","82313","0.0-6.0-4.6","578","","","","","clear_screen","null","null","","","critical","c","t","d","240","164","164","240","154.6796","220.0396","trueblood","0.14","h","164","240","240","164","154.6796","220.0396","39360","39360","34035.6388","td","null","null","null","null","null","null","[2,3]","475.7334009191837","447.012421808544","436.8794746502277"
"","canvas-keyboard-response","53","83424","0.0-6.0-5.6","578","","","","","make choice","1105","2","","","critical","c","t","d","240","164","164","240","154.6796","220.0396","trueblood","0.14","h","164","240","240","164","154.6796","220.0396","39360","39360","34035.6388","td","null","null","null","null","null","null","[2,3]","","",""
"","canvas-keyboard-response","54","83440","0.0-6.0-6.6","578","","","","","clear_screen","null","null","","","critical","c","t","d","240","164","164","240","154.6796","220.0396","trueblood","0.14","h","164","240","240","164","154.6796","220.0396","39360","39360","34035.6388","td","null","null","null","null","null","null","[2,3]","","",""
"","canvas-keyboard-response","55","83642","0.0-6.0-0.7","578","","","","","pre trial waiting period","null","null","","","critical","t","d","c","240","164","237.1485","162.6685","164","240","spektor","0.02","w","240","164","164","240","237.1485","162.6685","39360","39360","38576.5967","tc","null","null","null","null","null","null","[1,3]","506.1060135371471","172.86943454849307","484.24917079154466"
"","canvas-keyboard-response","56","83662","0.0-6.0-1.7","578","","","","","clear_screen","null","null","","","critical","t","d","c","240","164","237.1485","162.6685","164","240","spektor","0.02","w","240","164","164","240","237.1485","162.6685","39360","39360","38576.5967","tc","null","null","null","null","null","null","[1,3]","506.1060135371471","172.86943454849307","484.24917079154466"
"","canvas-keyboard-response","57","84170","0.0-6.0-2.7","578","","","","","rectangles no change","null","null","","","critical","t","d","c","240","164","237.1485","162.6685","164","240","spektor","0.02","w","240","164","164","240","237.1485","162.6685","39360","39360","38576.5967","tc","null","null","null","null","null","null","[1,3]","506.1060135371471","172.86943454849307","484.24917079154466"
"","canvas-keyboard-response","58","85509","0.0-6.0-3.7","578","","","","","rectangles with change","null","null","","","critical","t","d","c","240","164","237.1485","162.6685","164","240","spektor","0.02","w","240","164","164","240","237.1485","162.6685","39360","39360","38576.5967","tc","null","null","null","null","null","null","[1,3]","506.1060135371471","172.86943454849307","484.24917079154466"
"","canvas-keyboard-response","59","85530","0.0-6.0-4.7","578","","","","","clear_screen","null","null","","","critical","t","d","c","240","164","237.1485","162.6685","164","240","spektor","0.02","w","240","164","164","240","237.1485","162.6685","39360","39360","38576.5967","tc","null","null","null","null","null","null","[1,3]","506.1060135371471","172.86943454849307","484.24917079154466"
"","canvas-keyboard-response","60","86897","0.0-6.0-5.7","578","","","","","make choice","1361","1","","","critical","t","d","c","240","164","237.1485","162.6685","164","240","spektor","0.02","w","240","164","164","240","237.1485","162.6685","39360","39360","38576.5967","tc","null","null","null","null","null","null","[1,3]","","",""
"","canvas-keyboard-response","61","86920","0.0-6.0-6.7","578","","","","","clear_screen","null","null","","","critical","t","d","c","240","164","237.1485","162.6685","164","240","spektor","0.02","w","240","164","164","240","237.1485","162.6685","39360","39360","38576.5967","tc","null","null","null","null","null","null","[1,3]","","",""
"","canvas-keyboard-response","62","87121","0.0-6.0-0.8","578","","","","","pre trial waiting period","null","null","","","catch","sh","l","sw","217","158","204","260","216","214","spektor","null","null","null","null","null","null","null","null","null","null","null","","180","200","260","200","36000","52000","[1,2]","533.5260705183382","121.54487995700137","475.47728733365847"
"","canvas-keyboard-response","63","87147","0.0-6.0-1.8","578","","","","","clear_screen","null","null","","","catch","sh","l","sw","217","158","204","260","216","214","spektor","null","null","null","null","null","null","null","null","null","null","null","","180","200","260","200","36000","52000","[1,2]","533.5260705183382","121.54487995700137","475.47728733365847"
"","canvas-keyboard-response","64","87655","0.0-6.0-2.8","578","","","","","rectangles no change","null","null","","","catch","sh","l","sw","217","158","204","260","216","214","spektor","null","null","null","null","null","null","null","null","null","null","null","","180","200","260","200","36000","52000","[1,2]","533.5260705183382","121.54487995700137","475.47728733365847"
"","canvas-keyboard-response","65","88994","0.0-6.0-3.8","578","","","","","rectangles with change","null","null","","","catch","sh","l","sw","217","158","204","260","216","214","spektor","null","null","null","null","null","null","null","null","null","null","null","","180","200","260","200","36000","52000","[1,2]","533.5260705183382","121.54487995700137","475.47728733365847"
"","canvas-keyboard-response","66","89017","0.0-6.0-4.8","578","","","","","clear_screen","null","null","","","catch","sh","l","sw","217","158","204","260","216","214","spektor","null","null","null","null","null","null","null","null","null","null","null","","180","200","260","200","36000","52000","[1,2]","533.5260705183382","121.54487995700137","475.47728733365847"
"","canvas-keyboard-response","67","89585","0.0-6.0-5.8","578","","","","","make choice","561","2","","","catch","sh","l","sw","217","158","204","260","216","214","spektor","null","null","null","null","null","null","null","null","null","null","null","","180","200","260","200","36000","52000","[1,2]","","",""
"","canvas-keyboard-response","68","89606","0.0-6.0-6.8","578","","","","","clear_screen","null","null","","","catch","sh","l","sw","217","158","204","260","216","214","spektor","null","null","null","null","null","null","null","null","null","null","null","","180","200","260","200","36000","52000","[1,2]","","",""
"","canvas-keyboard-response","69","89806","0.0-6.0-0.9","578","","","","","pre trial waiting period","null","null","","","catch","sh","sw","l","174","148","153","203","223","171","spektor","null","null","null","null","null","null","null","null","null","null","null","","180","200","260","200","36000","52000","[2,3]","511.08937041968943","160.23824173399922","517.6708914318757"
"","canvas-keyboard-response","70","89830","0.0-6.0-1.9","578","","","","","clear_screen","null","null","","","catch","sh","sw","l","174","148","153","203","223","171","spektor","null","null","null","null","null","null","null","null","null","null","null","","180","200","260","200","36000","52000","[2,3]","511.08937041968943","160.23824173399922","517.6708914318757"
"","canvas-keyboard-response","71","90336","0.0-6.0-2.9","578","","","","","rectangles no change","null","null","","","catch","sh","sw","l","174","148","153","203","223","171","spektor","null","null","null","null","null","null","null","null","null","null","null","","180","200","260","200","36000","52000","[2,3]","511.08937041968943","160.23824173399922","517.6708914318757"
"","canvas-keyboard-response","72","91677","0.0-6.0-3.9","578","","","","","rectangles with change","null","null","","","catch","sh","sw","l","174","148","153","203","223","171","spektor","null","null","null","null","null","null","null","null","null","null","null","","180","200","260","200","36000","52000","[2,3]","511.08937041968943","160.23824173399922","517.6708914318757"
"","canvas-keyboard-response","73","91695","0.0-6.0-4.9","578","","","","","clear_screen","null","null","","","catch","sh","sw","l","174","148","153","203","223","171","spektor","null","null","null","null","null","null","null","null","null","null","null","","180","200","260","200","36000","52000","[2,3]","511.08937041968943","160.23824173399922","517.6708914318757"
"","canvas-keyboard-response","74","92409","0.0-6.0-5.9","578","","","","","make choice","707","3","","","catch","sh","sw","l","174","148","153","203","223","171","spektor","null","null","null","null","null","null","null","null","null","null","null","","180","200","260","200","36000","52000","[2,3]","","",""
"","canvas-keyboard-response","75","92432","0.0-6.0-6.9","578","","","","","clear_screen","null","null","","","catch","sh","sw","l","174","148","153","203","223","171","spektor","null","null","null","null","null","null","null","null","null","null","null","","180","200","260","200","36000","52000","[2,3]","","",""
"","canvas-keyboard-response","76","92633","0.0-6.0-0.10","578","","","","","pre trial waiting period","null","null","","","critical","c","t","d","240","164","164","240","154.6796","220.0396","trueblood","0.14","h","164","240","240","164","154.6796","220.0396","39360","39360","34035.6388","tc","null","null","null","null","null","null","[2,1]","513.4174266929554","455.77767832211225","468.70908709689417"
"","canvas-keyboard-response","77","92658","0.0-6.0-1.10","578","","","","","clear_screen","null","null","","","critical","c","t","d","240","164","164","240","154.6796","220.0396","trueblood","0.14","h","164","240","240","164","154.6796","220.0396","39360","39360","34035.6388","tc","null","null","null","null","null","null","[2,1]","513.4174266929554","455.77767832211225","468.70908709689417"
"","canvas-keyboard-response","78","93171","0.0-6.0-2.10","578","","","","","rectangles no change","null","null","","","critical","c","t","d","240","164","164","240","154.6796","220.0396","trueblood","0.14","h","164","240","240","164","154.6796","220.0396","39360","39360","34035.6388","tc","null","null","null","null","null","null","[2,1]","513.4174266929554","455.77767832211225","468.70908709689417"
"","canvas-keyboard-response","79","94507","0.0-6.0-3.10","578","","","","","rectangles with change","null","null","","","critical","c","t","d","240","164","164","240","154.6796","220.0396","trueblood","0.14","h","164","240","240","164","154.6796","220.0396","39360","39360","34035.6388","tc","null","null","null","null","null","null","[2,1]","513.4174266929554","455.77767832211225","468.70908709689417"
"","canvas-keyboard-response","80","94521","0.0-6.0-4.10","578","","","","","clear_screen","1","1","","","critical","c","t","d","240","164","164","240","154.6796","220.0396","trueblood","0.14","h","164","240","240","164","154.6796","220.0396","39360","39360","34035.6388","tc","null","null","null","null","null","null","[2,1]","513.4174266929554","455.77767832211225","468.70908709689417"
"","canvas-keyboard-response","81","96777","0.0-6.0-5.10","578","","","","","make choice","2251","1","","","critical","c","t","d","240","164","164","240","154.6796","220.0396","trueblood","0.14","h","164","240","240","164","154.6796","220.0396","39360","39360","34035.6388","tc","null","null","null","null","null","null","[2,1]","","",""
"","canvas-keyboard-response","82","96798","0.0-6.0-6.10","578","","","","","clear_screen","null","null","","","critical","c","t","d","240","164","164","240","154.6796","220.0396","trueblood","0.14","h","164","240","240","164","154.6796","220.0396","39360","39360","34035.6388","tc","null","null","null","null","null","null","[2,1]","","",""
"","canvas-keyboard-response","83","96998","0.0-6.0-0.11","578","","","","","pre trial waiting period","null","null","","","critical","d","t","c","232.8713","160.6713","240","164","164","240","trueblood","0.05","w","240","164","164","240","232.8713","160.6713","39360","39360","37415.7294","tc","null","null","null","null","null","null","[2,3]","508.4591095214013","491.8654077338575","424.9091959465196"
"","canvas-keyboard-response","84","97017","0.0-6.0-1.11","578","","","","","clear_screen","null","null","","","critical","d","t","c","232.8713","160.6713","240","164","164","240","trueblood","0.05","w","240","164","164","240","232.8713","160.6713","39360","39360","37415.7294","tc","null","null","null","null","null","null","[2,3]","508.4591095214013","491.8654077338575","424.9091959465196"
"","canvas-keyboard-response","85","97523","0.0-6.0-2.11","578","","","","","rectangles no change","null","null","","","critical","d","t","c","232.8713","160.6713","240","164","164","240","trueblood","0.05","w","240","164","164","240","232.8713","160.6713","39360","39360","37415.7294","tc","null","null","null","null","null","null","[2,3]","508.4591095214013","491.8654077338575","424.9091959465196"
"","canvas-keyboard-response","86","98861","0.0-6.0-3.11","578","","","","","rectangles with change","null","null","","","critical","d","t","c","232.8713","160.6713","240","164","164","240","trueblood","0.05","w","240","164","164","240","232.8713","160.6713","39360","39360","37415.7294","tc","null","null","null","null","null","null","[2,3]","508.4591095214013","491.8654077338575","424.9091959465196"
"","canvas-keyboard-response","87","98881","0.0-6.0-4.11","578","","","","","clear_screen","null","null","","","critical","d","t","c","232.8713","160.6713","240","164","164","240","trueblood","0.05","w","240","164","164","240","232.8713","160.6713","39360","39360","37415.7294","tc","null","null","null","null","null","null","[2,3]","508.4591095214013","491.8654077338575","424.9091959465196"
"","canvas-keyboard-response","88","99289","0.0-6.0-5.11","578","","","","","make choice","400","2","","","critical","d","t","c","232.8713","160.6713","240","164","164","240","trueblood","0.05","w","240","164","164","240","232.8713","160.6713","39360","39360","37415.7294","tc","null","null","null","null","null","null","[2,3]","","",""
"","canvas-keyboard-response","89","99310","0.0-6.0-6.11","578","","","","","clear_screen","null","null","","","critical","d","t","c","232.8713","160.6713","240","164","164","240","trueblood","0.05","w","240","164","164","240","232.8713","160.6713","39360","39360","37415.7294","tc","null","null","null","null","null","null","[2,3]","","",""
"","canvas-keyboard-response","90","99511","0.0-6.0-0.12","578","","","","","pre trial waiting period","null","null","","","critical","c","t","d","164","240","240","164","227.1683","158.0083","trueblood","0.09","w","240","164","164","240","227.1683","158.0083","39360","39360","35894.4834","td","null","null","null","null","null","null","[2,3]","467.84093551228096","515.930344199866","504.0883429189073"
"","canvas-keyboard-response","91","99540","0.0-6.0-1.12","578","","","","","clear_screen","null","null","","","critical","c","t","d","164","240","240","164","227.1683","158.0083","trueblood","0.09","w","240","164","164","240","227.1683","158.0083","39360","39360","35894.4834","td","null","null","null","null","null","null","[2,3]","467.84093551228096","515.930344199866","504.0883429189073"
"","canvas-keyboard-response","92","100046","0.0-6.0-2.12","578","","","","","rectangles no change","null","null","","","critical","c","t","d","164","240","240","164","227.1683","158.0083","trueblood","0.09","w","240","164","164","240","227.1683","158.0083","39360","39360","35894.4834","td","null","null","null","null","null","null","[2,3]","467.84093551228096","515.930344199866","504.0883429189073"
"","canvas-keyboard-response","93","101381","0.0-6.0-3.12","578","","","","","rectangles with change","null","null","","","critical","c","t","d","164","240","240","164","227.1683","158.0083","trueblood","0.09","w","240","164","164","240","227.1683","158.0083","39360","39360","35894.4834","td","null","null","null","null","null","null","[2,3]","467.84093551228096","515.930344199866","504.0883429189073"
"","canvas-keyboard-response","94","101401","0.0-6.0-4.12","578","","","","","clear_screen","null","null","","","critical","c","t","d","164","240","240","164","227.1683","158.0083","trueblood","0.09","w","240","164","164","240","227.1683","158.0083","39360","39360","35894.4834","td","null","null","null","null","null","null","[2,3]","467.84093551228096","515.930344199866","504.0883429189073"
"","canvas-keyboard-response","95","101961","0.0-6.0-5.12","578","","","","","make choice","553","2","","","critical","c","t","d","164","240","240","164","227.1683","158.0083","trueblood","0.09","w","240","164","164","240","227.1683","158.0083","39360","39360","35894.4834","td","null","null","null","null","null","null","[2,3]","","",""
"","canvas-keyboard-response","96","101979","0.0-6.0-6.12","578","","","","","clear_screen","null","null","","","critical","c","t","d","164","240","240","164","227.1683","158.0083","trueblood","0.09","w","240","164","164","240","227.1683","158.0083","39360","39360","35894.4834","td","null","null","null","null","null","null","[2,3]","","",""
"","canvas-keyboard-response","97","102181","0.0-6.0-0.13","578","","","","","pre trial waiting period","null","null","","","catch","sh","sw","l","190","160","170","226","178","243","spektor","null","null","null","null","null","null","null","null","null","null","null","","180","200","260","200","36000","52000","[1,3]","498.7687339687661","115.26921388223572","491.2122386414151"
"","canvas-keyboard-response","98","102200","0.0-6.0-1.13","578","","","","","clear_screen","null","null","","","catch","sh","sw","l","190","160","170","226","178","243","spektor","null","null","null","null","null","null","null","null","null","null","null","","180","200","260","200","36000","52000","[1,3]","498.7687339687661","115.26921388223572","491.2122386414151"
"","canvas-keyboard-response","99","102707","0.0-6.0-2.13","578","","","","","rectangles no change","null","null","","","catch","sh","sw","l","190","160","170","226","178","243","spektor","null","null","null","null","null","null","null","null","null","null","null","","180","200","260","200","36000","52000","[1,3]","498.7687339687661","115.26921388223572","491.2122386414151"
"","canvas-keyboard-response","100","104047","0.0-6.0-3.13","578","","","","","rectangles with change","null","null","","","catch","sh","sw","l","190","160","170","226","178","243","spektor","null","null","null","null","null","null","null","null","null","null","null","","180","200","260","200","36000","52000","[1,3]","498.7687339687661","115.26921388223572","491.2122386414151"
"","canvas-keyboard-response","101","104067","0.0-6.0-4.13","578","","","","","clear_screen","null","null","","","catch","sh","sw","l","190","160","170","226","178","243","spektor","null","null","null","null","null","null","null","null","null","null","null","","180","200","260","200","36000","52000","[1,3]","498.7687339687661","115.26921388223572","491.2122386414151"
"","canvas-keyboard-response","102","104832","0.0-6.0-5.13","578","","","","","make choice","761","3","","","catch","sh","sw","l","190","160","170","226","178","243","spektor","null","null","null","null","null","null","null","null","null","null","null","","180","200","260","200","36000","52000","[1,3]","","",""
"","canvas-keyboard-response","103","104852","0.0-6.0-6.13","578","","","","","clear_screen","null","null","","","catch","sh","sw","l","190","160","170","226","178","243","spektor","null","null","null","null","null","null","null","null","null","null","null","","180","200","260","200","36000","52000","[1,3]","","",""
"","canvas-keyboard-response","104","105053","0.0-6.0-0.14","578","","","","","pre trial waiting period","null","null","","","critical","t","d","c","164","240","164","240","240","164","trueblood","0","h","164","240","240","164","164","240","39360","39360","39360","tc","null","null","null","null","null","null","[1,3]","468.69917854285336","447.8782622442423","503.87507543120364"
"","canvas-keyboard-response","105","105071","0.0-6.0-1.14","578","","","","","clear_screen","null","null","","","critical","t","d","c","164","240","164","240","240","164","trueblood","0","h","164","240","240","164","164","240","39360","39360","39360","tc","null","null","null","null","null","null","[1,3]","468.69917854285336","447.8782622442423","503.87507543120364"
"","canvas-keyboard-response","106","105579","0.0-6.0-2.14","578","","","","","rectangles no change","null","null","","","critical","t","d","c","164","240","164","240","240","164","trueblood","0","h","164","240","240","164","164","240","39360","39360","39360","tc","null","null","null","null","null","null","[1,3]","468.69917854285336","447.8782622442423","503.87507543120364"
"","canvas-keyboard-response","107","106921","0.0-6.0-3.14","578","","","","","rectangles with change","null","null","","","critical","t","d","c","164","240","164","240","240","164","trueblood","0","h","164","240","240","164","164","240","39360","39360","39360","tc","null","null","null","null","null","null","[1,3]","468.69917854285336","447.8782622442423","503.87507543120364"
"","canvas-keyboard-response","108","106944","0.0-6.0-4.14","578","","","","","clear_screen","null","null","","","critical","t","d","c","164","240","164","240","240","164","trueblood","0","h","164","240","240","164","164","240","39360","39360","39360","tc","null","null","null","null","null","null","[1,3]","468.69917854285336","447.8782622442423","503.87507543120364"
"","canvas-keyboard-response","109","107465","0.0-6.0-5.14","578","","","","","make choice","514","3","","","critical","t","d","c","164","240","164","240","240","164","trueblood","0","h","164","240","240","164","164","240","39360","39360","39360","tc","null","null","null","null","null","null","[1,3]","","",""
"","canvas-keyboard-response","110","107482","0.0-6.0-6.14","578","","","","","clear_screen","null","null","","","critical","t","d","c","164","240","164","240","240","164","trueblood","0","h","164","240","240","164","164","240","39360","39360","39360","tc","null","null","null","null","null","null","[1,3]","","",""
"","canvas-keyboard-response","111","107683","0.0-6.0-0.15","578","","","","","pre trial waiting period","null","null","","","critical","d","t","c","220.0396","154.6796","240","164","164","240","trueblood","0.14","w","240","164","164","240","220.0396","154.6796","39360","39360","34035.6388","dc","null","null","null","null","null","null","[1,3]","489.87537770778533","515.7497789621834","445.21912944096607"
"","canvas-keyboard-response","112","107703","0.0-6.0-1.15","578","","","","","clear_screen","null","null","","","critical","d","t","c","220.0396","154.6796","240","164","164","240","trueblood","0.14","w","240","164","164","240","220.0396","154.6796","39360","39360","34035.6388","dc","null","null","null","null","null","null","[1,3]","489.87537770778533","515.7497789621834","445.21912944096607"
"","canvas-keyboard-response","113","108211","0.0-6.0-2.15","578","","","","","rectangles no change","null","null","","","critical","d","t","c","220.0396","154.6796","240","164","164","240","trueblood","0.14","w","240","164","164","240","220.0396","154.6796","39360","39360","34035.6388","dc","null","null","null","null","null","null","[1,3]","489.87537770778533","515.7497789621834","445.21912944096607"
"","canvas-keyboard-response","114","109549","0.0-6.0-3.15","578","","","","","rectangles with change","null","null","","","critical","d","t","c","220.0396","154.6796","240","164","164","240","trueblood","0.14","w","240","164","164","240","220.0396","154.6796","39360","39360","34035.6388","dc","null","null","null","null","null","null","[1,3]","489.87537770778533","515.7497789621834","445.21912944096607"
"","canvas-keyboard-response","115","109572","0.0-6.0-4.15","578","","","","","clear_screen","null","null","","","critical","d","t","c","220.0396","154.6796","240","164","164","240","trueblood","0.14","w","240","164","164","240","220.0396","154.6796","39360","39360","34035.6388","dc","null","null","null","null","null","null","[1,3]","489.87537770778533","515.7497789621834","445.21912944096607"
"","canvas-keyboard-response","116","109713","0.0-6.0-5.15","578","","","","","make choice","133","3","","","critical","d","t","c","220.0396","154.6796","240","164","164","240","trueblood","0.14","w","240","164","164","240","220.0396","154.6796","39360","39360","34035.6388","dc","null","null","null","null","null","null","[1,3]","","",""
"","canvas-keyboard-response","117","109733","0.0-6.0-6.15","578","","","","","clear_screen","null","null","","","critical","d","t","c","220.0396","154.6796","240","164","164","240","trueblood","0.14","w","240","164","164","240","220.0396","154.6796","39360","39360","34035.6388","dc","null","null","null","null","null","null","[1,3]","","",""
"","canvas-keyboard-response","118","109934","0.0-6.0-0.16","578","","","","","pre trial waiting period","null","null","","","critical","t","d","c","240","164","220.0396","154.6796","164","240","trueblood","0.14","w","240","164","164","240","220.0396","154.6796","39360","39360","34035.6388","td","null","null","null","null","null","null","[1,2]","509.85808243589406","484.67834663227035","452.89891242982094"
"","canvas-keyboard-response","119","109954","0.0-6.0-1.16","578","","","","","clear_screen","null","null","","","critical","t","d","c","240","164","220.0396","154.6796","164","240","trueblood","0.14","w","240","164","164","240","220.0396","154.6796","39360","39360","34035.6388","td","null","null","null","null","null","null","[1,2]","509.85808243589406","484.67834663227035","452.89891242982094"
"","canvas-keyboard-response","120","110461","0.0-6.0-2.16","578","","","","","rectangles no change","null","null","","","critical","t","d","c","240","164","220.0396","154.6796","164","240","trueblood","0.14","w","240","164","164","240","220.0396","154.6796","39360","39360","34035.6388","td","null","null","null","null","null","null","[1,2]","509.85808243589406","484.67834663227035","452.89891242982094"
"","canvas-keyboard-response","121","111801","0.0-6.0-3.16","578","","","","","rectangles with change","null","null","","","critical","t","d","c","240","164","220.0396","154.6796","164","240","trueblood","0.14","w","240","164","164","240","220.0396","154.6796","39360","39360","34035.6388","td","null","null","null","null","null","null","[1,2]","509.85808243589406","484.67834663227035","452.89891242982094"
"","canvas-keyboard-response","122","111820","0.0-6.0-4.16","578","","","","","clear_screen","null","null","","","critical","t","d","c","240","164","220.0396","154.6796","164","240","trueblood","0.14","w","240","164","164","240","220.0396","154.6796","39360","39360","34035.6388","td","null","null","null","null","null","null","[1,2]","509.85808243589406","484.67834663227035","452.89891242982094"
"","canvas-keyboard-response","123","112416","0.0-6.0-5.16","578","","","","","make choice","590","1","","","critical","t","d","c","240","164","220.0396","154.6796","164","240","trueblood","0.14","w","240","164","164","240","220.0396","154.6796","39360","39360","34035.6388","td","null","null","null","null","null","null","[1,2]","","",""
"","canvas-keyboard-response","124","112437","0.0-6.0-6.16","578","","","","","clear_screen","null","null","","","critical","t","d","c","240","164","220.0396","154.6796","164","240","trueblood","0.14","w","240","164","164","240","220.0396","154.6796","39360","39360","34035.6388","td","null","null","null","null","null","null","[1,2]","","",""
"","canvas-keyboard-response","125","112639","0.0-6.0-0.17","578","","","","","pre trial waiting period","null","null","","","catch","sw","l","sh","180","200","232","220","229","216","trueblood","null","null","null","null","null","null","null","null","null","null","null","","180","200","260","200","36000","52000","[2,3]","450.7844651880718","441.30972182539335","451.59572901976657"
"","canvas-keyboard-response","126","112659","0.0-6.0-1.17","578","","","","","clear_screen","null","null","","","catch","sw","l","sh","180","200","232","220","229","216","trueblood","null","null","null","null","null","null","null","null","null","null","null","","180","200","260","200","36000","52000","[2,3]","450.7844651880718","441.30972182539335","451.59572901976657"
"","canvas-keyboard-response","127","113166","0.0-6.0-2.17","578","","","","","rectangles no change","null","null","","","catch","sw","l","sh","180","200","232","220","229","216","trueblood","null","null","null","null","null","null","null","null","null","null","null","","180","200","260","200","36000","52000","[2,3]","450.7844651880718","441.30972182539335","451.59572901976657"
"","canvas-keyboard-response","128","114504","0.0-6.0-3.17","578","","","","","rectangles with change","null","null","","","catch","sw","l","sh","180","200","232","220","229","216","trueblood","null","null","null","null","null","null","null","null","null","null","null","","180","200","260","200","36000","52000","[2,3]","450.7844651880718","441.30972182539335","451.59572901976657"
"","canvas-keyboard-response","129","114529","0.0-6.0-4.17","578","","","","","clear_screen","null","null","","","catch","sw","l","sh","180","200","232","220","229","216","trueblood","null","null","null","null","null","null","null","null","null","null","null","","180","200","260","200","36000","52000","[2,3]","450.7844651880718","441.30972182539335","451.59572901976657"
"","canvas-keyboard-response","130","115128","0.0-6.0-5.17","578","","","","","make choice","593","2","","","catch","sw","l","sh","180","200","232","220","229","216","trueblood","null","null","null","null","null","null","null","null","null","null","null","","180","200","260","200","36000","52000","[2,3]","","",""
"","canvas-keyboard-response","131","115149","0.0-6.0-6.17","578","","","","","clear_screen","null","null","","","catch","sw","l","sh","180","200","232","220","229","216","trueblood","null","null","null","null","null","null","null","null","null","null","null","","180","200","260","200","36000","52000","[2,3]","","",""
"","canvas-keyboard-response","132","115350","0.0-6.0-0.18","578","","","","","pre trial waiting period","null","null","","","critical","d","t","c","154.6796","220.0396","164","240","240","164","spektor","0.14","h","164","240","240","164","154.6796","220.0396","39360","39360","34035.6388","tc","null","null","null","null","null","null","[2,3]","493.20001918959844","104.32157661327328","537.7518798906774"
"","canvas-keyboard-response","133","115368","0.0-6.0-1.18","578","","","","","clear_screen","null","null","","","critical","d","t","c","154.6796","220.0396","164","240","240","164","spektor","0.14","h","164","240","240","164","154.6796","220.0396","39360","39360","34035.6388","tc","null","null","null","null","null","null","[2,3]","493.20001918959844","104.32157661327328","537.7518798906774"
"","canvas-keyboard-response","134","115876","0.0-6.0-2.18","578","","","","","rectangles no change","null","null","","","critical","d","t","c","154.6796","220.0396","164","240","240","164","spektor","0.14","h","164","240","240","164","154.6796","220.0396","39360","39360","34035.6388","tc","null","null","null","null","null","null","[2,3]","493.20001918959844","104.32157661327328","537.7518798906774"
"","canvas-keyboard-response","135","117217","0.0-6.0-3.18","578","","","","","rectangles with change","null","null","","","critical","d","t","c","154.6796","220.0396","164","240","240","164","spektor","0.14","h","164","240","240","164","154.6796","220.0396","39360","39360","34035.6388","tc","null","null","null","null","null","null","[2,3]","493.20001918959844","104.32157661327328","537.7518798906774"
"","canvas-keyboard-response","136","117238","0.0-6.0-4.18","578","","","","","clear_screen","null","null","","","critical","d","t","c","154.6796","220.0396","164","240","240","164","spektor","0.14","h","164","240","240","164","154.6796","220.0396","39360","39360","34035.6388","tc","null","null","null","null","null","null","[2,3]","493.20001918959844","104.32157661327328","537.7518798906774"
"","canvas-keyboard-response","137","117768","0.0-6.0-5.18","578","","","","","make choice","525","3","","","critical","d","t","c","154.6796","220.0396","164","240","240","164","spektor","0.14","h","164","240","240","164","154.6796","220.0396","39360","39360","34035.6388","tc","null","null","null","null","null","null","[2,3]","","",""
"","canvas-keyboard-response","138","117791","0.0-6.0-6.18","578","","","","","clear_screen","null","null","","","critical","d","t","c","154.6796","220.0396","164","240","240","164","spektor","0.14","h","164","240","240","164","154.6796","220.0396","39360","39360","34035.6388","tc","null","null","null","null","null","null","[2,3]","","",""
"","canvas-keyboard-response","139","117992","0.0-6.0-0.19","578","","","","","pre trial waiting period","null","null","","","critical","c","t","d","164","240","240","164","232.8713","160.6713","spektor","0.05","w","240","164","164","240","232.8713","160.6713","39360","39360","37415.7294","tc","null","null","null","null","null","null","[2,1]","489.73388919872383","177.33142249157018","510.6416565785597"
"","canvas-keyboard-response","140","118017","0.0-6.0-1.19","578","","","","","clear_screen","null","null","","","critical","c","t","d","164","240","240","164","232.8713","160.6713","spektor","0.05","w","240","164","164","240","232.8713","160.6713","39360","39360","37415.7294","tc","null","null","null","null","null","null","[2,1]","489.73388919872383","177.33142249157018","510.6416565785597"
"","canvas-keyboard-response","141","118525","0.0-6.0-2.19","578","","","","","rectangles no change","null","null","","","critical","c","t","d","164","240","240","164","232.8713","160.6713","spektor","0.05","w","240","164","164","240","232.8713","160.6713","39360","39360","37415.7294","tc","null","null","null","null","null","null","[2,1]","489.73388919872383","177.33142249157018","510.6416565785597"
"","canvas-keyboard-response","142","119860","0.0-6.0-3.19","578","","","","","rectangles with change","null","null","","","critical","c","t","d","164","240","240","164","232.8713","160.6713","spektor","0.05","w","240","164","164","240","232.8713","160.6713","39360","39360","37415.7294","tc","null","null","null","null","null","null","[2,1]","489.73388919872383","177.33142249157018","510.6416565785597"
"","canvas-keyboard-response","143","119881","0.0-6.0-4.19","578","","","","","clear_screen","null","null","","","critical","c","t","d","164","240","240","164","232.8713","160.6713","spektor","0.05","w","240","164","164","240","232.8713","160.6713","39360","39360","37415.7294","tc","null","null","null","null","null","null","[2,1]","489.73388919872383","177.33142249157018","510.6416565785597"
"","canvas-keyboard-response","144","120832","0.0-6.0-5.19","578","","","","","make choice","943","2","","","critical","c","t","d","164","240","240","164","232.8713","160.6713","spektor","0.05","w","240","164","164","240","232.8713","160.6713","39360","39360","37415.7294","tc","null","null","null","null","null","null","[2,1]","","",""
"","canvas-keyboard-response","145","120852","0.0-6.0-6.19","578","","","","","clear_screen","null","null","","","critical","c","t","d","164","240","240","164","232.8713","160.6713","spektor","0.05","w","240","164","164","240","232.8713","160.6713","39360","39360","37415.7294","tc","null","null","null","null","null","null","[2,1]","","",""
"","canvas-keyboard-response","146","121053","0.0-6.0-0.20","578","","","","","pre trial waiting period","null","null","","","critical","t","c","d","240","164","164","240","227.1683","158.0083","trueblood","0.09","w","240","164","164","240","227.1683","158.0083","39360","39360","35894.4834","tc","null","null","null","null","null","null","[1,2]","513.8466252364226","463.06328694649596","491.95179986766834"
"","canvas-keyboard-response","147","121077","0.0-6.0-1.20","578","","","","","clear_screen","null","null","","","critical","t","c","d","240","164","164","240","227.1683","158.0083","trueblood","0.09","w","240","164","164","240","227.1683","158.0083","39360","39360","35894.4834","tc","null","null","null","null","null","null","[1,2]","513.8466252364226","463.06328694649596","491.95179986766834"
"","canvas-keyboard-response","148","121585","0.0-6.0-2.20","578","","","","","rectangles no change","null","null","","","critical","t","c","d","240","164","164","240","227.1683","158.0083","trueblood","0.09","w","240","164","164","240","227.1683","158.0083","39360","39360","35894.4834","tc","null","null","null","null","null","null","[1,2]","513.8466252364226","463.06328694649596","491.95179986766834"
"","canvas-keyboard-response","149","122921","0.0-6.0-3.20","578","","","","","rectangles with change","null","null","","","critical","t","c","d","240","164","164","240","227.1683","158.0083","trueblood","0.09","w","240","164","164","240","227.1683","158.0083","39360","39360","35894.4834","tc","null","null","null","null","null","null","[1,2]","513.8466252364226","463.06328694649596","491.95179986766834"
"","canvas-keyboard-response","150","122943","0.0-6.0-4.20","578","","","","","clear_screen","null","null","","","critical","t","c","d","240","164","164","240","227.1683","158.0083","trueblood","0.09","w","240","164","164","240","227.1683","158.0083","39360","39360","35894.4834","tc","null","null","null","null","null","null","[1,2]","513.8466252364226","463.06328694649596","491.95179986766834"
"","canvas-keyboard-response","151","123265","0.0-6.0-5.20","578","","","","","make choice","317","1","","","critical","t","c","d","240","164","164","240","227.1683","158.0083","trueblood","0.09","w","240","164","164","240","227.1683","158.0083","39360","39360","35894.4834","tc","null","null","null","null","null","null","[1,2]","","",""
"","canvas-keyboard-response","152","123287","0.0-6.0-6.20","578","","","","","clear_screen","null","null","","","critical","t","c","d","240","164","164","240","227.1683","158.0083","trueblood","0.09","w","240","164","164","240","227.1683","158.0083","39360","39360","35894.4834","tc","null","null","null","null","null","null","[1,2]","","",""
"","canvas-keyboard-response","153","123488","0.0-6.0-0.21","578","","","","","pre trial waiting period","null","null","","","catch","l","sh","sw","225","245","187","140","192","214","spektor","null","null","null","null","null","null","null","null","null","null","null","","180","200","260","200","36000","52000","[1,3]","479.6598332029416","190.16535591714003","494.3061669348208"
"","canvas-keyboard-response","154","123507","0.0-6.0-1.21","578","","","","","clear_screen","null","null","","","catch","l","sh","sw","225","245","187","140","192","214","spektor","null","null","null","null","null","null","null","null","null","null","null","","180","200","260","200","36000","52000","[1,3]","479.6598332029416","190.16535591714003","494.3061669348208"
"","canvas-keyboard-response","155","124017","0.0-6.0-2.21","578","","","","","rectangles no change","null","null","","","catch","l","sh","sw","225","245","187","140","192","214","spektor","null","null","null","null","null","null","null","null","null","null","null","","180","200","260","200","36000","52000","[1,3]","479.6598332029416","190.16535591714003","494.3061669348208"
"","canvas-keyboard-response","156","125357","0.0-6.0-3.21","578","","","","","rectangles with change","null","null","","","catch","l","sh","sw","225","245","187","140","192","214","spektor","null","null","null","null","null","null","null","null","null","null","null","","180","200","260","200","36000","52000","[1,3]","479.6598332029416","190.16535591714003","494.3061669348208"
"","canvas-keyboard-response","157","125375","0.0-6.0-4.21","578","","","","","clear_screen","4","1","","","catch","l","sh","sw","225","245","187","140","192","214","spektor","null","null","null","null","null","null","null","null","null","null","null","","180","200","260","200","36000","52000","[1,3]","479.6598332029416","190.16535591714003","494.3061669348208"
"","canvas-keyboard-response","158","127225","0.0-6.0-5.21","578","","","","","make choice","1844","1","","","catch","l","sh","sw","225","245","187","140","192","214","spektor","null","null","null","null","null","null","null","null","null","null","null","","180","200","260","200","36000","52000","[1,3]","","",""
"","canvas-keyboard-response","159","127245","0.0-6.0-6.21","578","","","","","clear_screen","null","null","","","catch","l","sh","sw","225","245","187","140","192","214","spektor","null","null","null","null","null","null","null","null","null","null","null","","180","200","260","200","36000","52000","[1,3]","","",""
"","canvas-keyboard-response","160","127446","0.0-6.0-0.22","578","","","","","pre trial waiting period","null","null","","","critical","t","d","c","240","164","237.1485","162.6685","164","240","spektor","0.02","w","240","164","164","240","237.1485","162.6685","39360","39360","38576.5967","dc","null","null","null","null","null","null","[2,3]","532.86080245355","199.9732267033992","459.64501983048206"
"","canvas-keyboard-response","161","127466","0.0-6.0-1.22","578","","","","","clear_screen","null","null","","","critical","t","d","c","240","164","237.1485","162.6685","164","240","spektor","0.02","w","240","164","164","240","237.1485","162.6685","39360","39360","38576.5967","dc","null","null","null","null","null","null","[2,3]","532.86080245355","199.9732267033992","459.64501983048206"
"","canvas-keyboard-response","162","127976","0.0-6.0-2.22","578","","","","","rectangles no change","null","null","","","critical","t","d","c","240","164","237.1485","162.6685","164","240","spektor","0.02","w","240","164","164","240","237.1485","162.6685","39360","39360","38576.5967","dc","null","null","null","null","null","null","[2,3]","532.86080245355","199.9732267033992","459.64501983048206"
"","canvas-keyboard-response","163","129317","0.0-6.0-3.22","578","","","","","rectangles with change","null","null","","","critical","t","d","c","240","164","237.1485","162.6685","164","240","spektor","0.02","w","240","164","164","240","237.1485","162.6685","39360","39360","38576.5967","dc","null","null","null","null","null","null","[2,3]","532.86080245355","199.9732267033992","459.64501983048206"
"","canvas-keyboard-response","164","129336","0.0-6.0-4.22","578","","","","","clear_screen","null","null","","","critical","t","d","c","240","164","237.1485","162.6685","164","240","spektor","0.02","w","240","164","164","240","237.1485","162.6685","39360","39360","38576.5967","dc","null","null","null","null","null","null","[2,3]","532.86080245355","199.9732267033992","459.64501983048206"
"","canvas-keyboard-response","165","129712","0.0-6.0-5.22","578","","","","","make choice","371","2","","","critical","t","d","c","240","164","237.1485","162.6685","164","240","spektor","0.02","w","240","164","164","240","237.1485","162.6685","39360","39360","38576.5967","dc","null","null","null","null","null","null","[2,3]","","",""
"","canvas-keyboard-response","166","129733","0.0-6.0-6.22","578","","","","","clear_screen","null","null","","","critical","t","d","c","240","164","237.1485","162.6685","164","240","spektor","0.02","w","240","164","164","240","237.1485","162.6685","39360","39360","38576.5967","dc","null","null","null","null","null","null","[2,3]","","",""
"","canvas-keyboard-response","167","129934","0.0-6.0-0.23","578","","","","","pre trial waiting period","null","null","","","critical","d","t","c","158.0083","227.1683","164","240","240","164","trueblood","0.09","h","164","240","240","164","158.0083","227.1683","39360","39360","35894.4834","td","null","null","null","null","null","null","[2,1]","466.62778904081966","442.063738809216","482.83057390590005"
"","canvas-keyboard-response","168","129957","0.0-6.0-1.23","578","","","","","clear_screen","null","null","","","critical","d","t","c","158.0083","227.1683","164","240","240","164","trueblood","0.09","h","164","240","240","164","158.0083","227.1683","39360","39360","35894.4834","td","null","null","null","null","null","null","[2,1]","466.62778904081966","442.063738809216","482.83057390590005"
"","canvas-keyboard-response","169","130462","0.0-6.0-2.23","578","","","","","rectangles no change","null","null","","","critical","d","t","c","158.0083","227.1683","164","240","240","164","trueblood","0.09","h","164","240","240","164","158.0083","227.1683","39360","39360","35894.4834","td","null","null","null","null","null","null","[2,1]","466.62778904081966","442.063738809216","482.83057390590005"
"","canvas-keyboard-response","170","131800","0.0-6.0-3.23","578","","","","","rectangles with change","null","null","","","critical","d","t","c","158.0083","227.1683","164","240","240","164","trueblood","0.09","h","164","240","240","164","158.0083","227.1683","39360","39360","35894.4834","td","null","null","null","null","null","null","[2,1]","466.62778904081966","442.063738809216","482.83057390590005"
"","canvas-keyboard-response","171","131821","0.0-6.0-4.23","578","","","","","clear_screen","null","null","","","critical","d","t","c","158.0083","227.1683","164","240","240","164","trueblood","0.09","h","164","240","240","164","158.0083","227.1683","39360","39360","35894.4834","td","null","null","null","null","null","null","[2,1]","466.62778904081966","442.063738809216","482.83057390590005"
"","canvas-keyboard-response","172","132159","0.0-6.0-5.23","578","","","","","make choice","331","2","","","critical","d","t","c","158.0083","227.1683","164","240","240","164","trueblood","0.09","h","164","240","240","164","158.0083","227.1683","39360","39360","35894.4834","td","null","null","null","null","null","null","[2,1]","","",""
"","canvas-keyboard-response","173","132177","0.0-6.0-6.23","578","","","","","clear_screen","null","null","","","critical","d","t","c","158.0083","227.1683","164","240","240","164","trueblood","0.09","h","164","240","240","164","158.0083","227.1683","39360","39360","35894.4834","td","null","null","null","null","null","null","[2,1]","","",""
"","canvas-keyboard-response","174","132378","0.0-6.0-0.24","578","","","","","pre trial waiting period","null","null","","","catch","l","sw","sh","194","299","162","223","167","163","spektor","null","null","null","null","null","null","null","null","null","null","null","","180","200","260","200","36000","52000","[1,3]","432.1792900092585","124.5799600099038","513.8914446361791"
"","canvas-keyboard-response","175","132402","0.0-6.0-1.24","578","","","","","clear_screen","null","null","","","catch","l","sw","sh","194","299","162","223","167","163","spektor","null","null","null","null","null","null","null","null","null","null","null","","180","200","260","200","36000","52000","[1,3]","432.1792900092585","124.5799600099038","513.8914446361791"
"","canvas-keyboard-response","176","132909","0.0-6.0-2.24","578","","","","","rectangles no change","null","null","","","catch","l","sw","sh","194","299","162","223","167","163","spektor","null","null","null","null","null","null","null","null","null","null","null","","180","200","260","200","36000","52000","[1,3]","432.1792900092585","124.5799600099038","513.8914446361791"
"","canvas-keyboard-response","177","134249","0.0-6.0-3.24","578","","","","","rectangles with change","null","null","","","catch","l","sw","sh","194","299","162","223","167","163","spektor","null","null","null","null","null","null","null","null","null","null","null","","180","200","260","200","36000","52000","[1,3]","432.1792900092585","124.5799600099038","513.8914446361791"
"","canvas-keyboard-response","178","134273","0.0-6.0-4.24","578","","","","","clear_screen","null","null","","","catch","l","sw","sh","194","299","162","223","167","163","spektor","null","null","null","null","null","null","null","null","null","null","null","","180","200","260","200","36000","52000","[1,3]","432.1792900092585","124.5799600099038","513.8914446361791"
"","canvas-keyboard-response","179","134625","0.0-6.0-5.24","578","","","","","make choice","344","1","","","catch","l","sw","sh","194","299","162","223","167","163","spektor","null","null","null","null","null","null","null","null","null","null","null","","180","200","260","200","36000","52000","[1,3]","","",""
"","canvas-keyboard-response","180","134644","0.0-6.0-6.24","578","","","","","clear_screen","null","null","","","catch","l","sw","sh","194","299","162","223","167","163","spektor","null","null","null","null","null","null","null","null","null","null","null","","180","200","260","200","36000","52000","[1,3]","","",""
"","canvas-keyboard-response","181","134845","0.0-6.0-0.25","578","","","","","pre trial waiting period","null","null","","","critical","c","d","t","164","240","227.1683","158.0083","240","164","trueblood","0.09","w","240","164","164","240","227.1683","158.0083","39360","39360","35894.4834","dc","null","null","null","null","null","null","[2,1]","425.8503844405208","516.6165194210727","495.9057437136148"
"","canvas-keyboard-response","182","134866","0.0-6.0-1.25","578","","","","","clear_screen","null","null","","","critical","c","d","t","164","240","227.1683","158.0083","240","164","trueblood","0.09","w","240","164","164","240","227.1683","158.0083","39360","39360","35894.4834","dc","null","null","null","null","null","null","[2,1]","425.8503844405208","516.6165194210727","495.9057437136148"
"","canvas-keyboard-response","183","135375","0.0-6.0-2.25","578","","","","","rectangles no change","null","null","","","critical","c","d","t","164","240","227.1683","158.0083","240","164","trueblood","0.09","w","240","164","164","240","227.1683","158.0083","39360","39360","35894.4834","dc","null","null","null","null","null","null","[2,1]","425.8503844405208","516.6165194210727","495.9057437136148"
"","canvas-keyboard-response","184","136715","0.0-6.0-3.25","578","","","","","rectangles with change","null","null","","","critical","c","d","t","164","240","227.1683","158.0083","240","164","trueblood","0.09","w","240","164","164","240","227.1683","158.0083","39360","39360","35894.4834","dc","null","null","null","null","null","null","[2,1]","425.8503844405208","516.6165194210727","495.9057437136148"
"","canvas-keyboard-response","185","136736","0.0-6.0-4.25","578","","","","","clear_screen","null","null","","","critical","c","d","t","164","240","227.1683","158.0083","240","164","trueblood","0.09","w","240","164","164","240","227.1683","158.0083","39360","39360","35894.4834","dc","null","null","null","null","null","null","[2,1]","425.8503844405208","516.6165194210727","495.9057437136148"
"","canvas-keyboard-response","186","137097","0.0-6.0-5.25","578","","","","","make choice","354","2","","","critical","c","d","t","164","240","227.1683","158.0083","240","164","trueblood","0.09","w","240","164","164","240","227.1683","158.0083","39360","39360","35894.4834","dc","null","null","null","null","null","null","[2,1]","","",""
"","canvas-keyboard-response","187","137119","0.0-6.0-6.25","578","","","","","clear_screen","null","null","","","critical","c","d","t","164","240","227.1683","158.0083","240","164","trueblood","0.09","w","240","164","164","240","227.1683","158.0083","39360","39360","35894.4834","dc","null","null","null","null","null","null","[2,1]","","",""
"","canvas-keyboard-response","188","137320","0.0-6.0-0.26","578","","","","","pre trial waiting period","null","null","","","critical","d","c","t","232.8713","160.6713","164","240","240","164","trueblood","0.05","w","240","164","164","240","232.8713","160.6713","39360","39360","37415.7294","dc","null","null","null","null","null","null","[1,2]","487.5701562273831","455.122878045492","498.72033195799906"
"","canvas-keyboard-response","189","137340","0.0-6.0-1.26","578","","","","","clear_screen","null","null","","","critical","d","c","t","232.8713","160.6713","164","240","240","164","trueblood","0.05","w","240","164","164","240","232.8713","160.6713","39360","39360","37415.7294","dc","null","null","null","null","null","null","[1,2]","487.5701562273831","455.122878045492","498.72033195799906"
"","canvas-keyboard-response","190","137849","0.0-6.0-2.26","578","","","","","rectangles no change","null","null","","","critical","d","c","t","232.8713","160.6713","164","240","240","164","trueblood","0.05","w","240","164","164","240","232.8713","160.6713","39360","39360","37415.7294","dc","null","null","null","null","null","null","[1,2]","487.5701562273831","455.122878045492","498.72033195799906"
"","canvas-keyboard-response","191","139188","0.0-6.0-3.26","578","","","","","rectangles with change","null","null","","","critical","d","c","t","232.8713","160.6713","164","240","240","164","trueblood","0.05","w","240","164","164","240","232.8713","160.6713","39360","39360","37415.7294","dc","null","null","null","null","null","null","[1,2]","487.5701562273831","455.122878045492","498.72033195799906"
"","canvas-keyboard-response","192","139206","0.0-6.0-4.26","578","","","","","clear_screen","null","null","","","critical","d","c","t","232.8713","160.6713","164","240","240","164","trueblood","0.05","w","240","164","164","240","232.8713","160.6713","39360","39360","37415.7294","dc","null","null","null","null","null","null","[1,2]","487.5701562273831","455.122878045492","498.72033195799906"
"","canvas-keyboard-response","193","139761","0.0-6.0-5.26","578","","","","","make choice","547","2","","","critical","d","c","t","232.8713","160.6713","164","240","240","164","trueblood","0.05","w","240","164","164","240","232.8713","160.6713","39360","39360","37415.7294","dc","null","null","null","null","null","null","[1,2]","","",""
"","canvas-keyboard-response","194","139782","0.0-6.0-6.26","578","","","","","clear_screen","null","null","","","critical","d","c","t","232.8713","160.6713","164","240","240","164","trueblood","0.05","w","240","164","164","240","232.8713","160.6713","39360","39360","37415.7294","dc","null","null","null","null","null","null","[1,2]","","",""
"","canvas-keyboard-response","195","139983","0.0-6.0-0.27","578","","","","","pre trial waiting period","null","null","","","critical","t","d","c","240","164","220.0396","154.6796","164","240","spektor","0.14","w","240","164","164","240","220.0396","154.6796","39360","39360","34035.6388","dc","null","null","null","null","null","null","[2,3]","533.7538982283592","187.4908944265672","491.865822556828"
"","canvas-keyboard-response","196","140004","0.0-6.0-1.27","578","","","","","clear_screen","null","null","","","critical","t","d","c","240","164","220.0396","154.6796","164","240","spektor","0.14","w","240","164","164","240","220.0396","154.6796","39360","39360","34035.6388","dc","null","null","null","null","null","null","[2,3]","533.7538982283592","187.4908944265672","491.865822556828"
"","canvas-keyboard-response","197","140510","0.0-6.0-2.27","578","","","","","rectangles no change","null","null","","","critical","t","d","c","240","164","220.0396","154.6796","164","240","spektor","0.14","w","240","164","164","240","220.0396","154.6796","39360","39360","34035.6388","dc","null","null","null","null","null","null","[2,3]","533.7538982283592","187.4908944265672","491.865822556828"
"","canvas-keyboard-response","198","141846","0.0-6.0-3.27","578","","","","","rectangles with change","null","null","","","critical","t","d","c","240","164","220.0396","154.6796","164","240","spektor","0.14","w","240","164","164","240","220.0396","154.6796","39360","39360","34035.6388","dc","null","null","null","null","null","null","[2,3]","533.7538982283592","187.4908944265672","491.865822556828"
"","canvas-keyboard-response","199","141866","0.0-6.0-4.27","578","","","","","clear_screen","null","null","","","critical","t","d","c","240","164","220.0396","154.6796","164","240","spektor","0.14","w","240","164","164","240","220.0396","154.6796","39360","39360","34035.6388","dc","null","null","null","null","null","null","[2,3]","533.7538982283592","187.4908944265672","491.865822556828"
"","canvas-keyboard-response","200","142049","0.0-6.0-5.27","578","","","","","make choice","176","3","","","critical","t","d","c","240","164","220.0396","154.6796","164","240","spektor","0.14","w","240","164","164","240","220.0396","154.6796","39360","39360","34035.6388","dc","null","null","null","null","null","null","[2,3]","","",""
"","canvas-keyboard-response","201","142069","0.0-6.0-6.27","578","","","","","clear_screen","null","null","","","critical","t","d","c","240","164","220.0396","154.6796","164","240","spektor","0.14","w","240","164","164","240","220.0396","154.6796","39360","39360","34035.6388","dc","null","null","null","null","null","null","[2,3]","","",""
"","canvas-keyboard-response","202","142270","0.0-6.0-0.28","578","","","","","pre trial waiting period","null","null","","","critical","t","d","c","240","164","220.0396","154.6796","164","240","trueblood","0.14","w","240","164","164","240","220.0396","154.6796","39360","39360","34035.6388","tc","null","null","null","null","null","null","[1,3]","478.5341212899789","484.8925103771861","421.9513803355083"
"","canvas-keyboard-response","203","142293","0.0-6.0-1.28","578","","","","","clear_screen","null","null","","","critical","t","d","c","240","164","220.0396","154.6796","164","240","trueblood","0.14","w","240","164","164","240","220.0396","154.6796","39360","39360","34035.6388","tc","null","null","null","null","null","null","[1,3]","478.5341212899789","484.8925103771861","421.9513803355083"
"","canvas-keyboard-response","204","142805","0.0-6.0-2.28","578","","","","","rectangles no change","null","null","","","critical","t","d","c","240","164","220.0396","154.6796","164","240","trueblood","0.14","w","240","164","164","240","220.0396","154.6796","39360","39360","34035.6388","tc","null","null","null","null","null","null","[1,3]","478.5341212899789","484.8925103771861","421.9513803355083"
"","canvas-keyboard-response","205","144141","0.0-6.0-3.28","578","","","","","rectangles with change","null","null","","","critical","t","d","c","240","164","220.0396","154.6796","164","240","trueblood","0.14","w","240","164","164","240","220.0396","154.6796","39360","39360","34035.6388","tc","null","null","null","null","null","null","[1,3]","478.5341212899789","484.8925103771861","421.9513803355083"
"","canvas-keyboard-response","206","144160","0.0-6.0-4.28","578","","","","","clear_screen","null","null","","","critical","t","d","c","240","164","220.0396","154.6796","164","240","trueblood","0.14","w","240","164","164","240","220.0396","154.6796","39360","39360","34035.6388","tc","null","null","null","null","null","null","[1,3]","478.5341212899789","484.8925103771861","421.9513803355083"
"","canvas-keyboard-response","207","144561","0.0-6.0-5.28","578","","","","","make choice","395","1","","","critical","t","d","c","240","164","220.0396","154.6796","164","240","trueblood","0.14","w","240","164","164","240","220.0396","154.6796","39360","39360","34035.6388","tc","null","null","null","null","null","null","[1,3]","","",""
"","canvas-keyboard-response","208","144581","0.0-6.0-6.28","578","","","","","clear_screen","null","null","","","critical","t","d","c","240","164","220.0396","154.6796","164","240","trueblood","0.14","w","240","164","164","240","220.0396","154.6796","39360","39360","34035.6388","tc","null","null","null","null","null","null","[1,3]","","",""
"","canvas-keyboard-response","209","144782","0.0-6.0-0.29","578","","","","","pre trial waiting period","null","null","","","catch","l","sw","sh","198","272","194","163","161","179","trueblood","null","null","null","null","null","null","null","null","null","null","null","","180","200","260","200","36000","52000","[1,3]","407.05681774272915","470.21389815582785","468.1464567309699"
"","canvas-keyboard-response","210","144802","0.0-6.0-1.29","578","","","","","clear_screen","null","null","","","catch","l","sw","sh","198","272","194","163","161","179","trueblood","null","null","null","null","null","null","null","null","null","null","null","","180","200","260","200","36000","52000","[1,3]","407.05681774272915","470.21389815582785","468.1464567309699"
"","canvas-keyboard-response","211","145310","0.0-6.0-2.29","578","","","","","rectangles no change","null","null","","","catch","l","sw","sh","198","272","194","163","161","179","trueblood","null","null","null","null","null","null","null","null","null","null","null","","180","200","260","200","36000","52000","[1,3]","407.05681774272915","470.21389815582785","468.1464567309699"
"","canvas-keyboard-response","212","146649","0.0-6.0-3.29","578","","","","","rectangles with change","null","null","","","catch","l","sw","sh","198","272","194","163","161","179","trueblood","null","null","null","null","null","null","null","null","null","null","null","","180","200","260","200","36000","52000","[1,3]","407.05681774272915","470.21389815582785","468.1464567309699"
"","canvas-keyboard-response","213","146673","0.0-6.0-4.29","578","","","","","clear_screen","null","null","","","catch","l","sw","sh","198","272","194","163","161","179","trueblood","null","null","null","null","null","null","null","null","null","null","null","","180","200","260","200","36000","52000","[1,3]","407.05681774272915","470.21389815582785","468.1464567309699"
"","canvas-keyboard-response","214","147128","0.0-6.0-5.29","578","","","","","make choice","447","1","","","catch","l","sw","sh","198","272","194","163","161","179","trueblood","null","null","null","null","null","null","null","null","null","null","null","","180","200","260","200","36000","52000","[1,3]","","",""
"","canvas-keyboard-response","215","147147","0.0-6.0-6.29","578","","","","","clear_screen","null","null","","","catch","l","sw","sh","198","272","194","163","161","179","trueblood","null","null","null","null","null","null","null","null","null","null","null","","180","200","260","200","36000","52000","[1,3]","","",""
"","canvas-keyboard-response","216","147348","0.0-6.0-0.30","578","","","","","pre trial waiting period","null","null","","","critical","d","c","t","232.8713","160.6713","164","240","240","164","spektor","0.05","w","240","164","164","240","232.8713","160.6713","39360","39360","37415.7294","td","null","null","null","null","null","null","[3,1]","501.0627062658774","156.59763567951526","494.36528168320353"
"","canvas-keyboard-response","217","147371","0.0-6.0-1.30","578","","","","","clear_screen","null","null","","","critical","d","c","t","232.8713","160.6713","164","240","240","164","spektor","0.05","w","240","164","164","240","232.8713","160.6713","39360","39360","37415.7294","td","null","null","null","null","null","null","[3,1]","501.0627062658774","156.59763567951526","494.36528168320353"
"","canvas-keyboard-response","218","147877","0.0-6.0-2.30","578","","","","","rectangles no change","null","null","","","critical","d","c","t","232.8713","160.6713","164","240","240","164","spektor","0.05","w","240","164","164","240","232.8713","160.6713","39360","39360","37415.7294","td","null","null","null","null","null","null","[3,1]","501.0627062658774","156.59763567951526","494.36528168320353"
"","canvas-keyboard-response","219","149217","0.0-6.0-3.30","578","","","","","rectangles with change","null","null","","","critical","d","c","t","232.8713","160.6713","164","240","240","164","spektor","0.05","w","240","164","164","240","232.8713","160.6713","39360","39360","37415.7294","td","null","null","null","null","null","null","[3,1]","501.0627062658774","156.59763567951526","494.36528168320353"
"","canvas-keyboard-response","220","149232","0.0-6.0-4.30","578","","","","","clear_screen","null","null","","","critical","d","c","t","232.8713","160.6713","164","240","240","164","spektor","0.05","w","240","164","164","240","232.8713","160.6713","39360","39360","37415.7294","td","null","null","null","null","null","null","[3,1]","501.0627062658774","156.59763567951526","494.36528168320353"
"","canvas-keyboard-response","221","149409","0.0-6.0-5.30","578","","","","","make choice","169","3","","","critical","d","c","t","232.8713","160.6713","164","240","240","164","spektor","0.05","w","240","164","164","240","232.8713","160.6713","39360","39360","37415.7294","td","null","null","null","null","null","null","[3,1]","","",""
"","canvas-keyboard-response","222","149429","0.0-6.0-6.30","578","","","","","clear_screen","null","null","","","critical","d","c","t","232.8713","160.6713","164","240","240","164","spektor","0.05","w","240","164","164","240","232.8713","160.6713","39360","39360","37415.7294","td","null","null","null","null","null","null","[3,1]","","",""
"","canvas-keyboard-response","223","149630","0.0-6.0-0.31","578","","","","","pre trial waiting period","null","null","","","catch","sw","sh","l","180","200","188","198","231","254","spektor","null","null","null","null","null","null","null","null","null","null","null","","180","200","260","200","36000","52000","[2,3]","476.72386147146483","133.25255021594853","487.69487266382885"
"","canvas-keyboard-response","224","149651","0.0-6.0-1.31","578","","","","","clear_screen","null","null","","","catch","sw","sh","l","180","200","188","198","231","254","spektor","null","null","null","null","null","null","null","null","null","null","null","","180","200","260","200","36000","52000","[2,3]","476.72386147146483","133.25255021594853","487.69487266382885"
"","canvas-keyboard-response","225","150156","0.0-6.0-2.31","578","","","","","rectangles no change","null","null","","","catch","sw","sh","l","180","200","188","198","231","254","spektor","null","null","null","null","null","null","null","null","null","null","null","","180","200","260","200","36000","52000","[2,3]","476.72386147146483","133.25255021594853","487.69487266382885"
"","canvas-keyboard-response","226","151494","0.0-6.0-3.31","578","","","","","rectangles with change","null","null","","","catch","sw","sh","l","180","200","188","198","231","254","spektor","null","null","null","null","null","null","null","null","null","null","null","","180","200","260","200","36000","52000","[2,3]","476.72386147146483","133.25255021594853","487.69487266382885"
"","canvas-keyboard-response","227","151514","0.0-6.0-4.31","578","","","","","clear_screen","null","null","","","catch","sw","sh","l","180","200","188","198","231","254","spektor","null","null","null","null","null","null","null","null","null","null","null","","180","200","260","200","36000","52000","[2,3]","476.72386147146483","133.25255021594853","487.69487266382885"
"","canvas-keyboard-response","228","151841","0.0-6.0-5.31","578","","","","","make choice","320","3","","","catch","sw","sh","l","180","200","188","198","231","254","spektor","null","null","null","null","null","null","null","null","null","null","null","","180","200","260","200","36000","52000","[2,3]","","",""
"","canvas-keyboard-response","229","151860","0.0-6.0-6.31","578","","","","","clear_screen","null","null","","","catch","sw","sh","l","180","200","188","198","231","254","spektor","null","null","null","null","null","null","null","null","null","null","null","","180","200","260","200","36000","52000","[2,3]","","",""
"","canvas-keyboard-response","230","152061","0.0-6.0-0.32","578","","","","","pre trial waiting period","null","null","","","critical","c","d","t","240","164","162.6685","237.1485","164","240","trueblood","0.02","h","164","240","240","164","162.6685","237.1485","39360","39360","38576.5967","tc","null","null","null","null","null","null","[3,1]","497.65826659631716","462.2616763090449","462.6396282361437"
"","canvas-keyboard-response","231","152082","0.0-6.0-1.32","578","","","","","clear_screen","null","null","","","critical","c","d","t","240","164","162.6685","237.1485","164","240","trueblood","0.02","h","164","240","240","164","162.6685","237.1485","39360","39360","38576.5967","tc","null","null","null","null","null","null","[3,1]","497.65826659631716","462.2616763090449","462.6396282361437"
"","canvas-keyboard-response","232","152588","0.0-6.0-2.32","578","","","","","rectangles no change","null","null","","","critical","c","d","t","240","164","162.6685","237.1485","164","240","trueblood","0.02","h","164","240","240","164","162.6685","237.1485","39360","39360","38576.5967","tc","null","null","null","null","null","null","[3,1]","497.65826659631716","462.2616763090449","462.6396282361437"
"","canvas-keyboard-response","233","153928","0.0-6.0-3.32","578","","","","","rectangles with change","null","null","","","critical","c","d","t","240","164","162.6685","237.1485","164","240","trueblood","0.02","h","164","240","240","164","162.6685","237.1485","39360","39360","38576.5967","tc","null","null","null","null","null","null","[3,1]","497.65826659631716","462.2616763090449","462.6396282361437"
"","canvas-keyboard-response","234","153952","0.0-6.0-4.32","578","","","","","clear_screen","null","null","","","critical","c","d","t","240","164","162.6685","237.1485","164","240","trueblood","0.02","h","164","240","240","164","162.6685","237.1485","39360","39360","38576.5967","tc","null","null","null","null","null","null","[3,1]","497.65826659631716","462.2616763090449","462.6396282361437"
"","canvas-keyboard-response","235","154480","0.0-6.0-5.32","578","","","","","make choice","523","1","","","critical","c","d","t","240","164","162.6685","237.1485","164","240","trueblood","0.02","h","164","240","240","164","162.6685","237.1485","39360","39360","38576.5967","tc","null","null","null","null","null","null","[3,1]","","",""
"","canvas-keyboard-response","236","154501","0.0-6.0-6.32","578","","","","","clear_screen","null","null","","","critical","c","d","t","240","164","162.6685","237.1485","164","240","trueblood","0.02","h","164","240","240","164","162.6685","237.1485","39360","39360","38576.5967","tc","null","null","null","null","null","null","[3,1]","","",""
"","canvas-keyboard-response","237","154702","0.0-6.0-0.33","578","","","","","pre trial waiting period","null","null","","","catch","sh","l","sw","218","140","271","205","163","187","trueblood","null","null","null","null","null","null","null","null","null","null","null","","180","200","260","200","36000","52000","[2,3]","493.2123424847802","449.3378737101104","453.8882694182821"
"","canvas-keyboard-response","238","154722","0.0-6.0-1.33","578","","","","","clear_screen","null","null","","","catch","sh","l","sw","218","140","271","205","163","187","trueblood","null","null","null","null","null","null","null","null","null","null","null","","180","200","260","200","36000","52000","[2,3]","493.2123424847802","449.3378737101104","453.8882694182821"
"","canvas-keyboard-response","239","155231","0.0-6.0-2.33","578","","","","","rectangles no change","null","null","","","catch","sh","l","sw","218","140","271","205","163","187","trueblood","null","null","null","null","null","null","null","null","null","null","null","","180","200","260","200","36000","52000","[2,3]","493.2123424847802","449.3378737101104","453.8882694182821"
"","canvas-keyboard-response","240","156567","0.0-6.0-3.33","578","","","","","rectangles with change","null","null","","","catch","sh","l","sw","218","140","271","205","163","187","trueblood","null","null","null","null","null","null","null","null","null","null","null","","180","200","260","200","36000","52000","[2,3]","493.2123424847802","449.3378737101104","453.8882694182821"
"","canvas-keyboard-response","241","156587","0.0-6.0-4.33","578","","","","","clear_screen","null","null","","","catch","sh","l","sw","218","140","271","205","163","187","trueblood","null","null","null","null","null","null","null","null","null","null","null","","180","200","260","200","36000","52000","[2,3]","493.2123424847802","449.3378737101104","453.8882694182821"
"","canvas-keyboard-response","242","156945","0.0-6.0-5.33","578","","","","","make choice","349","2","","","catch","sh","l","sw","218","140","271","205","163","187","trueblood","null","null","null","null","null","null","null","null","null","null","null","","180","200","260","200","36000","52000","[2,3]","","",""
"","canvas-keyboard-response","243","156963","0.0-6.0-6.33","578","","","","","clear_screen","null","null","","","catch","sh","l","sw","218","140","271","205","163","187","trueblood","null","null","null","null","null","null","null","null","null","null","null","","180","200","260","200","36000","52000","[2,3]","","",""
"","canvas-keyboard-response","244","157164","0.0-6.0-0.34","578","","","","","pre trial waiting period","null","null","","","catch","l","sh","sw","285","190","216","142","157","212","trueblood","null","null","null","null","null","null","null","null","null","null","null","","180","200","260","200","36000","52000","[1,2]","499.05359238978156","503.8126505708274","438.8024873006463"
"","canvas-keyboard-response","245","157186","0.0-6.0-1.34","578","","","","","clear_screen","null","null","","","catch","l","sh","sw","285","190","216","142","157","212","trueblood","null","null","null","null","null","null","null","null","null","null","null","","180","200","260","200","36000","52000","[1,2]","499.05359238978156","503.8126505708274","438.8024873006463"
"","canvas-keyboard-response","246","157693","0.0-6.0-2.34","578","","","","","rectangles no change","null","null","","","catch","l","sh","sw","285","190","216","142","157","212","trueblood","null","null","null","null","null","null","null","null","null","null","null","","180","200","260","200","36000","52000","[1,2]","499.05359238978156","503.8126505708274","438.8024873006463"
"","canvas-keyboard-response","247","159033","0.0-6.0-3.34","578","","","","","rectangles with change","null","null","","","catch","l","sh","sw","285","190","216","142","157","212","trueblood","null","null","null","null","null","null","null","null","null","null","null","","180","200","260","200","36000","52000","[1,2]","499.05359238978156","503.8126505708274","438.8024873006463"
"","canvas-keyboard-response","248","159055","0.0-6.0-4.34","578","","","","","clear_screen","null","null","","","catch","l","sh","sw","285","190","216","142","157","212","trueblood","null","null","null","null","null","null","null","null","null","null","null","","180","200","260","200","36000","52000","[1,2]","499.05359238978156","503.8126505708274","438.8024873006463"
"","canvas-keyboard-response","249","159609","0.0-6.0-5.34","578","","","","","make choice","548","1","","","catch","l","sh","sw","285","190","216","142","157","212","trueblood","null","null","null","null","null","null","null","null","null","null","null","","180","200","260","200","36000","52000","[1,2]","","",""
"","canvas-keyboard-response","250","159627","0.0-6.0-6.34","578","","","","","clear_screen","null","null","","","catch","l","sh","sw","285","190","216","142","157","212","trueblood","null","null","null","null","null","null","null","null","null","null","null","","180","200","260","200","36000","52000","[1,2]","","",""
"","canvas-keyboard-response","251","159828","0.0-6.0-0.35","578","","","","","pre trial waiting period","null","null","","","catch","l","sw","sh","296","168","147","201","162","186","spektor","null","null","null","null","null","null","null","null","null","null","null","","180","200","260","200","36000","52000","[1,3]","517.8242425258012","188.03105963068168","522.5517507293712"
"","canvas-keyboard-response","252","159848","0.0-6.0-1.35","578","","","","","clear_screen","null","null","","","catch","l","sw","sh","296","168","147","201","162","186","spektor","null","null","null","null","null","null","null","null","null","null","null","","180","200","260","200","36000","52000","[1,3]","517.8242425258012","188.03105963068168","522.5517507293712"
"","canvas-keyboard-response","253","160357","0.0-6.0-2.35","578","","","","","rectangles no change","null","null","","","catch","l","sw","sh","296","168","147","201","162","186","spektor","null","null","null","null","null","null","null","null","null","null","null","","180","200","260","200","36000","52000","[1,3]","517.8242425258012","188.03105963068168","522.5517507293712"
"","canvas-keyboard-response","254","161697","0.0-6.0-3.35","578","","","","","rectangles with change","null","null","","","catch","l","sw","sh","296","168","147","201","162","186","spektor","null","null","null","null","null","null","null","null","null","null","null","","180","200","260","200","36000","52000","[1,3]","517.8242425258012","188.03105963068168","522.5517507293712"
"","canvas-keyboard-response","255","161715","0.0-6.0-4.35","578","","","","","clear_screen","null","null","","","catch","l","sw","sh","296","168","147","201","162","186","spektor","null","null","null","null","null","null","null","null","null","null","null","","180","200","260","200","36000","52000","[1,3]","517.8242425258012","188.03105963068168","522.5517507293712"
"","canvas-keyboard-response","256","162033","0.0-6.0-5.35","578","","","","","make choice","309","1","","","catch","l","sw","sh","296","168","147","201","162","186","spektor","null","null","null","null","null","null","null","null","null","null","null","","180","200","260","200","36000","52000","[1,3]","","",""
"","canvas-keyboard-response","257","162052","0.0-6.0-6.35","578","","","","","clear_screen","null","null","","","catch","l","sw","sh","296","168","147","201","162","186","spektor","null","null","null","null","null","null","null","null","null","null","null","","180","200","260","200","36000","52000","[1,3]","","",""
"","canvas-keyboard-response","258","162252","0.0-6.0-0.36","578","","","","","pre trial waiting period","null","null","","","catch","l","sw","sh","190","280","183","207","207","209","trueblood","null","null","null","null","null","null","null","null","null","null","null","","180","200","260","200","36000","52000","[1,2]","424.763952633495","446.0499837165937","445.317434647242"
"","canvas-keyboard-response","259","162273","0.0-6.0-1.36","578","","","","","clear_screen","null","null","","","catch","l","sw","sh","190","280","183","207","207","209","trueblood","null","null","null","null","null","null","null","null","null","null","null","","180","200","260","200","36000","52000","[1,2]","424.763952633495","446.0499837165937","445.317434647242"
"","canvas-keyboard-response","260","162780","0.0-6.0-2.36","578","","","","","rectangles no change","null","null","","","catch","l","sw","sh","190","280","183","207","207","209","trueblood","null","null","null","null","null","null","null","null","null","null","null","","180","200","260","200","36000","52000","[1,2]","424.763952633495","446.0499837165937","445.317434647242"
"","canvas-keyboard-response","261","164118","0.0-6.0-3.36","578","","","","","rectangles with change","null","null","","","catch","l","sw","sh","190","280","183","207","207","209","trueblood","null","null","null","null","null","null","null","null","null","null","null","","180","200","260","200","36000","52000","[1,2]","424.763952633495","446.0499837165937","445.317434647242"
"","canvas-keyboard-response","262","164141","0.0-6.0-4.36","578","","","","","clear_screen","null","null","","","catch","l","sw","sh","190","280","183","207","207","209","trueblood","null","null","null","null","null","null","null","null","null","null","null","","180","200","260","200","36000","52000","[1,2]","424.763952633495","446.0499837165937","445.317434647242"
"","canvas-keyboard-response","263","164457","0.0-6.0-5.36","578","","","","","make choice","309","1","","","catch","l","sw","sh","190","280","183","207","207","209","trueblood","null","null","null","null","null","null","null","null","null","null","null","","180","200","260","200","36000","52000","[1,2]","","",""
"","canvas-keyboard-response","264","164476","0.0-6.0-6.36","578","","","","","clear_screen","null","null","","","catch","l","sw","sh","190","280","183","207","207","209","trueblood","null","null","null","null","null","null","null","null","null","null","null","","180","200","260","200","36000","52000","[1,2]","","",""
"","canvas-keyboard-response","265","164677","0.0-6.0-0.37","578","","","","","pre trial waiting period","null","null","","","catch","sh","l","sw","234","159","178","248","171","196","trueblood","null","null","null","null","null","null","null","null","null","null","null","","180","200","260","200","36000","52000","[1,2]","498.8234564282083","463.11110526505206","454.83295410498886"
"","canvas-keyboard-response","266","164698","0.0-6.0-1.37","578","","","","","clear_screen","null","null","","","catch","sh","l","sw","234","159","178","248","171","196","trueblood","null","null","null","null","null","null","null","null","null","null","null","","180","200","260","200","36000","52000","[1,2]","498.8234564282083","463.11110526505206","454.83295410498886"
