success,trial_type,trial_index,time_elapsed,internal_node_id,sub_n,timeout,failed_images,failed_audio,failed_video,screen_id,rt,response,stimulus,view_history,trial,r1,r2,r3,w1,h1,w2,h2,w3,h3,display,tdd,tdo,tw,th,cw,ch,dw,dh,ta,ca,da,probe,csls,csss,clls,clss,sa,la,probe_rects,r1yloc,r2yloc,r3yloc
TRUE,fullscreen,0,2060,0.0-0.0,584,,,,,,,,,,,,,,,,,,,,,,,,,,,,,,,,,,,,,,,,,,
TRUE,preload,1,2076,0.0-1.0,584,FALSE,[],[],[],img preload,,,,,,,,,,,,,,,,,,,,,,,,,,,,,,,,,,,,,
,survey-html-form,2,4743,0.0-2.0,584,,,,,enter-sub-number,2661,"{""response"":""572""}",,,,,,,,,,,,,,,,,,,,,,,,,,,,,,,,,,,
,image-button-response,3,17129,0.0-3.0,584,,,,,,12322,0,consent.png,,,,,,,,,,,,,,,,,,,,,,,,,,,,,,,,,,
,html-button-response,4,19560,0.0-4.0,584,,,,,intro mssg,2428,0,"<div style= ""font-size:25px;"" <p> <strong> Welcome! </strong><br> <p style=""color:#8B0000; font-size:25px;""><strong> Please do NOT exit full screen until you are done with the experiment. </strong> </p><p style=""font-size:25px;color:#8B0000;""> <strong> Your data will be lost <br> if you try to go back or refresh the page after the experiment starts. Feel free to click ""previous"" during the instructions, however.</strong> </p><br><p> <strong> Thanks in advance for your contribution to our research! </strong></p>",,,,,,,,,,,,,,,,,,,,,,,,,,,,,,,,,,
,instructions,5,81858,0.0-5.0,584,,,,,instructions,62293,,,"[{""page_index"":0,""viewing_time"":19227},{""page_index"":1,""viewing_time"":9424},{""page_index"":2,""viewing_time"":4513},{""page_index"":3,""viewing_time"":12848},{""page_index"":4,""viewing_time"":7216},{""page_index"":5,""viewing_time"":4016},{""page_index"":6,""viewing_time"":3416},{""page_index"":7,""viewing_time"":1633}]",,,,,,,,,,,,,,,,,,,,,,,,,,,,,,,,,
,canvas-keyboard-response,6,82063,0.0-6.0-0.0,584,,,,,pre trial waiting period,null,null,,,critical,t,c,d,240,164,164,240,237.1485,162.6685,trueblood,0.02,w,240,164,164,240,237.1485,162.6685,39360,39360,38576.5967,dc,null,null,null,null,null,null,"[3,2]",515.4026486,444.1216154,506.3625151
,canvas-keyboard-response,7,82089,0.0-6.0-1.0,584,,,,,clear_screen,null,null,,,critical,t,c,d,240,164,164,240,237.1485,162.6685,trueblood,0.02,w,240,164,164,240,237.1485,162.6685,39360,39360,38576.5967,dc,null,null,null,null,null,null,"[3,2]",515.4026486,444.1216154,506.3625151
,canvas-keyboard-response,8,82598,0.0-6.0-2.0,584,,,,,rectangles no change,null,null,,,critical,t,c,d,240,164,164,240,237.1485,162.6685,trueblood,0.02,w,240,164,164,240,237.1485,162.6685,39360,39360,38576.5967,dc,null,null,null,null,null,null,"[3,2]",515.4026486,444.1216154,506.3625151
,canvas-keyboard-response,9,83937,0.0-6.0-3.0,584,,,,,rectangles with change,null,null,,,critical,t,c,d,240,164,164,240,237.1485,162.6685,trueblood,0.02,w,240,164,164,240,237.1485,162.6685,39360,39360,38576.5967,dc,null,null,null,null,null,null,"[3,2]",515.4026486,444.1216154,506.3625151
,canvas-keyboard-response,10,83959,0.0-6.0-4.0,584,,,,,clear_screen,null,null,,,critical,t,c,d,240,164,164,240,237.1485,162.6685,trueblood,0.02,w,240,164,164,240,237.1485,162.6685,39360,39360,38576.5967,dc,null,null,null,null,null,null,"[3,2]",515.4026486,444.1216154,506.3625151
,canvas-keyboard-response,11,86401,0.0-6.0-5.0,584,,,,,make choice,2434,2,,,critical,t,c,d,240,164,164,240,237.1485,162.6685,trueblood,0.02,w,240,164,164,240,237.1485,162.6685,39360,39360,38576.5967,dc,null,null,null,null,null,null,"[3,2]",,,
,canvas-keyboard-response,12,86420,0.0-6.0-6.0,584,,,,,clear_screen,null,null,,,critical,t,c,d,240,164,164,240,237.1485,162.6685,trueblood,0.02,w,240,164,164,240,237.1485,162.6685,39360,39360,38576.5967,dc,null,null,null,null,null,null,"[3,2]",,,
,canvas-keyboard-response,13,86622,0.0-6.0-0.1,584,,,,,pre trial waiting period,null,null,,,critical,t,c,d,164,240,240,164,160.6713,232.8713,trueblood,0.05,h,164,240,240,164,160.6713,232.8713,39360,39360,37415.7294,dc,null,null,null,null,null,null,"[3,2]",432.8071317,477.848909,433.1787349
,canvas-keyboard-response,14,86640,0.0-6.0-1.1,584,,,,,clear_screen,null,null,,,critical,t,c,d,164,240,240,164,160.6713,232.8713,trueblood,0.05,h,164,240,240,164,160.6713,232.8713,39360,39360,37415.7294,dc,null,null,null,null,null,null,"[3,2]",432.8071317,477.848909,433.1787349
,canvas-keyboard-response,15,87148,0.0-6.0-2.1,584,,,,,rectangles no change,null,null,,,critical,t,c,d,164,240,240,164,160.6713,232.8713,trueblood,0.05,h,164,240,240,164,160.6713,232.8713,39360,39360,37415.7294,dc,null,null,null,null,null,null,"[3,2]",432.8071317,477.848909,433.1787349
,canvas-keyboard-response,16,88486,0.0-6.0-3.1,584,,,,,rectangles with change,null,null,,,critical,t,c,d,164,240,240,164,160.6713,232.8713,trueblood,0.05,h,164,240,240,164,160.6713,232.8713,39360,39360,37415.7294,dc,null,null,null,null,null,null,"[3,2]",432.8071317,477.848909,433.1787349
,canvas-keyboard-response,17,88509,0.0-6.0-4.1,584,,,,,clear_screen,null,null,,,critical,t,c,d,164,240,240,164,160.6713,232.8713,trueblood,0.05,h,164,240,240,164,160.6713,232.8713,39360,39360,37415.7294,dc,null,null,null,null,null,null,"[3,2]",432.8071317,477.848909,433.1787349
,canvas-keyboard-response,18,89097,0.0-6.0-5.1,584,,,,,make choice,575,2,,,critical,t,c,d,164,240,240,164,160.6713,232.8713,trueblood,0.05,h,164,240,240,164,160.6713,232.8713,39360,39360,37415.7294,dc,null,null,null,null,null,null,"[3,2]",,,
,canvas-keyboard-response,19,89118,0.0-6.0-6.1,584,,,,,clear_screen,null,null,,,critical,t,c,d,164,240,240,164,160.6713,232.8713,trueblood,0.05,h,164,240,240,164,160.6713,232.8713,39360,39360,37415.7294,dc,null,null,null,null,null,null,"[3,2]",,,
,canvas-keyboard-response,20,89319,0.0-6.0-0.2,584,,,,,pre trial waiting period,null,null,,,critical,t,c,d,240,164,164,240,220.0396,154.6796,spektor,0.14,w,240,164,164,240,220.0396,154.6796,39360,39360,34035.6388,td,null,null,null,null,null,null,"[1,3]",511.910645,145.5755668,505.7177744
,canvas-keyboard-response,21,89341,0.0-6.0-1.2,584,,,,,clear_screen,null,null,,,critical,t,c,d,240,164,164,240,220.0396,154.6796,spektor,0.14,w,240,164,164,240,220.0396,154.6796,39360,39360,34035.6388,td,null,null,null,null,null,null,"[1,3]",511.910645,145.5755668,505.7177744
,canvas-keyboard-response,22,89851,0.0-6.0-2.2,584,,,,,rectangles no change,null,null,,,critical,t,c,d,240,164,164,240,220.0396,154.6796,spektor,0.14,w,240,164,164,240,220.0396,154.6796,39360,39360,34035.6388,td,null,null,null,null,null,null,"[1,3]",511.910645,145.5755668,505.7177744
,canvas-keyboard-response,23,91190,0.0-6.0-3.2,584,,,,,rectangles with change,null,null,,,critical,t,c,d,240,164,164,240,220.0396,154.6796,spektor,0.14,w,240,164,164,240,220.0396,154.6796,39360,39360,34035.6388,td,null,null,null,null,null,null,"[1,3]",511.910645,145.5755668,505.7177744
,canvas-keyboard-response,24,91212,0.0-6.0-4.2,584,,,,,clear_screen,null,null,,,critical,t,c,d,240,164,164,240,220.0396,154.6796,spektor,0.14,w,240,164,164,240,220.0396,154.6796,39360,39360,34035.6388,td,null,null,null,null,null,null,"[1,3]",511.910645,145.5755668,505.7177744
,canvas-keyboard-response,25,91832,0.0-6.0-5.2,584,,,,,make choice,615,1,,,critical,t,c,d,240,164,164,240,220.0396,154.6796,spektor,0.14,w,240,164,164,240,220.0396,154.6796,39360,39360,34035.6388,td,null,null,null,null,null,null,"[1,3]",,,
,canvas-keyboard-response,26,91850,0.0-6.0-6.2,584,,,,,clear_screen,null,null,,,critical,t,c,d,240,164,164,240,220.0396,154.6796,spektor,0.14,w,240,164,164,240,220.0396,154.6796,39360,39360,34035.6388,td,null,null,null,null,null,null,"[1,3]",,,
,canvas-keyboard-response,27,92051,0.0-6.0-0.3,584,,,,,pre trial waiting period,null,null,,,catch,l,sh,sw,167,256,224,169,211,167,trueblood,null,null,null,null,null,null,null,null,null,null,null,,180,200,260,200,36000,52000,"[1,3]",429.3003622,492.2154728,483.6574411
,canvas-keyboard-response,28,92072,0.0-6.0-1.3,584,,,,,clear_screen,null,null,,,catch,l,sh,sw,167,256,224,169,211,167,trueblood,null,null,null,null,null,null,null,null,null,null,null,,180,200,260,200,36000,52000,"[1,3]",429.3003622,492.2154728,483.6574411
,canvas-keyboard-response,29,92577,0.0-6.0-2.3,584,,,,,rectangles no change,null,null,,,catch,l,sh,sw,167,256,224,169,211,167,trueblood,null,null,null,null,null,null,null,null,null,null,null,,180,200,260,200,36000,52000,"[1,3]",429.3003622,492.2154728,483.6574411
,canvas-keyboard-response,30,93916,0.0-6.0-3.3,584,,,,,rectangles with change,null,null,,,catch,l,sh,sw,167,256,224,169,211,167,trueblood,null,null,null,null,null,null,null,null,null,null,null,,180,200,260,200,36000,52000,"[1,3]",429.3003622,492.2154728,483.6574411
,canvas-keyboard-response,31,93938,0.0-6.0-4.3,584,,,,,clear_screen,null,null,,,catch,l,sh,sw,167,256,224,169,211,167,trueblood,null,null,null,null,null,null,null,null,null,null,null,,180,200,260,200,36000,52000,"[1,3]",429.3003622,492.2154728,483.6574411
,canvas-keyboard-response,32,95177,0.0-6.0-5.3,584,,,,,make choice,1233,1,,,catch,l,sh,sw,167,256,224,169,211,167,trueblood,null,null,null,null,null,null,null,null,null,null,null,,180,200,260,200,36000,52000,"[1,3]",,,
,canvas-keyboard-response,33,95194,0.0-6.0-6.3,584,,,,,clear_screen,null,null,,,catch,l,sh,sw,167,256,224,169,211,167,trueblood,null,null,null,null,null,null,null,null,null,null,null,,180,200,260,200,36000,52000,"[1,3]",,,
,canvas-keyboard-response,34,95396,0.0-6.0-0.4,584,,,,,pre trial waiting period,null,null,,,critical,c,d,t,164,240,240,164,240,164,spektor,0,w,240,164,164,240,240,164,39360,39360,39360,tc,null,null,null,null,null,null,"[3,1]",495.1515525,197.8875536,534.8284649
,canvas-keyboard-response,35,95418,0.0-6.0-1.4,584,,,,,clear_screen,null,null,,,critical,c,d,t,164,240,240,164,240,164,spektor,0,w,240,164,164,240,240,164,39360,39360,39360,tc,null,null,null,null,null,null,"[3,1]",495.1515525,197.8875536,534.8284649
,canvas-keyboard-response,36,95923,0.0-6.0-2.4,584,,,,,rectangles no change,null,null,,,critical,c,d,t,164,240,240,164,240,164,spektor,0,w,240,164,164,240,240,164,39360,39360,39360,tc,null,null,null,null,null,null,"[3,1]",495.1515525,197.8875536,534.8284649
,canvas-keyboard-response,37,97262,0.0-6.0-3.4,584,,,,,rectangles with change,null,null,,,critical,c,d,t,164,240,240,164,240,164,spektor,0,w,240,164,164,240,240,164,39360,39360,39360,tc,null,null,null,null,null,null,"[3,1]",495.1515525,197.8875536,534.8284649
,canvas-keyboard-response,38,97281,0.0-6.0-4.4,584,,,,,clear_screen,null,null,,,critical,c,d,t,164,240,240,164,240,164,spektor,0,w,240,164,164,240,240,164,39360,39360,39360,tc,null,null,null,null,null,null,"[3,1]",495.1515525,197.8875536,534.8284649
,canvas-keyboard-response,39,97889,0.0-6.0-5.4,584,,,,,make choice,602,1,,,critical,c,d,t,164,240,240,164,240,164,spektor,0,w,240,164,164,240,240,164,39360,39360,39360,tc,null,null,null,null,null,null,"[3,1]",,,
,canvas-keyboard-response,40,97908,0.0-6.0-6.4,584,,,,,clear_screen,null,null,,,critical,c,d,t,164,240,240,164,240,164,spektor,0,w,240,164,164,240,240,164,39360,39360,39360,tc,null,null,null,null,null,null,"[3,1]",,,
,canvas-keyboard-response,41,98109,0.0-6.0-0.5,584,,,,,pre trial waiting period,null,null,,,critical,d,c,t,154.6796,220.0396,240,164,164,240,trueblood,0.14,h,164,240,240,164,154.6796,220.0396,39360,39360,34035.6388,td,null,null,null,null,null,null,"[3,1]",433.9159662,490.8978235,450.2089592
,canvas-keyboard-response,42,98129,0.0-6.0-1.5,584,,,,,clear_screen,null,null,,,critical,d,c,t,154.6796,220.0396,240,164,164,240,trueblood,0.14,h,164,240,240,164,154.6796,220.0396,39360,39360,34035.6388,td,null,null,null,null,null,null,"[3,1]",433.9159662,490.8978235,450.2089592
,canvas-keyboard-response,43,98640,0.0-6.0-2.5,584,,,,,rectangles no change,null,null,,,critical,d,c,t,154.6796,220.0396,240,164,164,240,trueblood,0.14,h,164,240,240,164,154.6796,220.0396,39360,39360,34035.6388,td,null,null,null,null,null,null,"[3,1]",433.9159662,490.8978235,450.2089592
,canvas-keyboard-response,44,99976,0.0-6.0-3.5,584,,,,,rectangles with change,null,null,,,critical,d,c,t,154.6796,220.0396,240,164,164,240,trueblood,0.14,h,164,240,240,164,154.6796,220.0396,39360,39360,34035.6388,td,null,null,null,null,null,null,"[3,1]",433.9159662,490.8978235,450.2089592
,canvas-keyboard-response,45,99998,0.0-6.0-4.5,584,,,,,clear_screen,null,null,,,critical,d,c,t,154.6796,220.0396,240,164,164,240,trueblood,0.14,h,164,240,240,164,154.6796,220.0396,39360,39360,34035.6388,td,null,null,null,null,null,null,"[3,1]",433.9159662,490.8978235,450.2089592
,canvas-keyboard-response,46,101209,0.0-6.0-5.5,584,,,,,make choice,1205,3,,,critical,d,c,t,154.6796,220.0396,240,164,164,240,trueblood,0.14,h,164,240,240,164,154.6796,220.0396,39360,39360,34035.6388,td,null,null,null,null,null,null,"[3,1]",,,
,canvas-keyboard-response,47,101226,0.0-6.0-6.5,584,,,,,clear_screen,null,null,,,critical,d,c,t,154.6796,220.0396,240,164,164,240,trueblood,0.14,h,164,240,240,164,154.6796,220.0396,39360,39360,34035.6388,td,null,null,null,null,null,null,"[3,1]",,,
,canvas-keyboard-response,48,101427,0.0-6.0-0.6,584,,,,,pre trial waiting period,null,null,,,critical,d,c,t,227.1683,158.0083,164,240,240,164,spektor,0.09,w,240,164,164,240,227.1683,158.0083,39360,39360,35894.4834,tc,null,null,null,null,null,null,"[3,2]",537.7945641,152.7552269,514.1603707
,canvas-keyboard-response,49,101446,0.0-6.0-1.6,584,,,,,clear_screen,null,null,,,critical,d,c,t,227.1683,158.0083,164,240,240,164,spektor,0.09,w,240,164,164,240,227.1683,158.0083,39360,39360,35894.4834,tc,null,null,null,null,null,null,"[3,2]",537.7945641,152.7552269,514.1603707
,canvas-keyboard-response,50,101955,0.0-6.0-2.6,584,,,,,rectangles no change,null,null,,,critical,d,c,t,227.1683,158.0083,164,240,240,164,spektor,0.09,w,240,164,164,240,227.1683,158.0083,39360,39360,35894.4834,tc,null,null,null,null,null,null,"[3,2]",537.7945641,152.7552269,514.1603707
,canvas-keyboard-response,51,103291,0.0-6.0-3.6,584,,,,,rectangles with change,null,null,,,critical,d,c,t,227.1683,158.0083,164,240,240,164,spektor,0.09,w,240,164,164,240,227.1683,158.0083,39360,39360,35894.4834,tc,null,null,null,null,null,null,"[3,2]",537.7945641,152.7552269,514.1603707
,canvas-keyboard-response,52,103310,0.0-6.0-4.6,584,,,,,clear_screen,null,null,,,critical,d,c,t,227.1683,158.0083,164,240,240,164,spektor,0.09,w,240,164,164,240,227.1683,158.0083,39360,39360,35894.4834,tc,null,null,null,null,null,null,"[3,2]",537.7945641,152.7552269,514.1603707
,canvas-keyboard-response,53,104048,0.0-6.0-5.6,584,,,,,make choice,732,3,,,critical,d,c,t,227.1683,158.0083,164,240,240,164,spektor,0.09,w,240,164,164,240,227.1683,158.0083,39360,39360,35894.4834,tc,null,null,null,null,null,null,"[3,2]",,,
,canvas-keyboard-response,54,104069,0.0-6.0-6.6,584,,,,,clear_screen,null,null,,,critical,d,c,t,227.1683,158.0083,164,240,240,164,spektor,0.09,w,240,164,164,240,227.1683,158.0083,39360,39360,35894.4834,tc,null,null,null,null,null,null,"[3,2]",,,
,canvas-keyboard-response,55,104270,0.0-6.0-0.7,584,,,,,pre trial waiting period,null,null,,,catch,l,sw,sh,238,271,147,238,227,204,trueblood,null,null,null,null,null,null,null,null,null,null,null,,180,200,260,200,36000,52000,"[1,3]",426.182173,468.7225644,449.951461
,canvas-keyboard-response,56,104289,0.0-6.0-1.7,584,,,,,clear_screen,null,null,,,catch,l,sw,sh,238,271,147,238,227,204,trueblood,null,null,null,null,null,null,null,null,null,null,null,,180,200,260,200,36000,52000,"[1,3]",426.182173,468.7225644,449.951461
,canvas-keyboard-response,57,104796,0.0-6.0-2.7,584,,,,,rectangles no change,null,null,,,catch,l,sw,sh,238,271,147,238,227,204,trueblood,null,null,null,null,null,null,null,null,null,null,null,,180,200,260,200,36000,52000,"[1,3]",426.182173,468.7225644,449.951461
,canvas-keyboard-response,58,106131,0.0-6.0-3.7,584,,,,,rectangles with change,null,null,,,catch,l,sw,sh,238,271,147,238,227,204,trueblood,null,null,null,null,null,null,null,null,null,null,null,,180,200,260,200,36000,52000,"[1,3]",426.182173,468.7225644,449.951461
,canvas-keyboard-response,59,106150,0.0-6.0-4.7,584,,,,,clear_screen,null,null,,,catch,l,sw,sh,238,271,147,238,227,204,trueblood,null,null,null,null,null,null,null,null,null,null,null,,180,200,260,200,36000,52000,"[1,3]",426.182173,468.7225644,449.951461
,canvas-keyboard-response,60,107384,0.0-6.0-5.7,584,,,,,make choice,1229,1,,,catch,l,sw,sh,238,271,147,238,227,204,trueblood,null,null,null,null,null,null,null,null,null,null,null,,180,200,260,200,36000,52000,"[1,3]",,,
,canvas-keyboard-response,61,107403,0.0-6.0-6.7,584,,,,,clear_screen,null,null,,,catch,l,sw,sh,238,271,147,238,227,204,trueblood,null,null,null,null,null,null,null,null,null,null,null,,180,200,260,200,36000,52000,"[1,3]",,,
,canvas-keyboard-response,62,107604,0.0-6.0-0.8,584,,,,,pre trial waiting period,null,null,,,critical,c,d,t,164,240,232.8713,160.6713,240,164,trueblood,0.05,w,240,164,164,240,232.8713,160.6713,39360,39360,37415.7294,tc,null,null,null,null,null,null,"[3,1]",450.0355476,475.516711,481.2857929
,canvas-keyboard-response,63,107625,0.0-6.0-1.8,584,,,,,clear_screen,null,null,,,critical,c,d,t,164,240,232.8713,160.6713,240,164,trueblood,0.05,w,240,164,164,240,232.8713,160.6713,39360,39360,37415.7294,tc,null,null,null,null,null,null,"[3,1]",450.0355476,475.516711,481.2857929
,canvas-keyboard-response,64,108131,0.0-6.0-2.8,584,,,,,rectangles no change,null,null,,,critical,c,d,t,164,240,232.8713,160.6713,240,164,trueblood,0.05,w,240,164,164,240,232.8713,160.6713,39360,39360,37415.7294,tc,null,null,null,null,null,null,"[3,1]",450.0355476,475.516711,481.2857929
,canvas-keyboard-response,65,109469,0.0-6.0-3.8,584,,,,,rectangles with change,null,null,,,critical,c,d,t,164,240,232.8713,160.6713,240,164,trueblood,0.05,w,240,164,164,240,232.8713,160.6713,39360,39360,37415.7294,tc,null,null,null,null,null,null,"[3,1]",450.0355476,475.516711,481.2857929
,canvas-keyboard-response,66,109488,0.0-6.0-4.8,584,,,,,clear_screen,null,null,,,critical,c,d,t,164,240,232.8713,160.6713,240,164,trueblood,0.05,w,240,164,164,240,232.8713,160.6713,39360,39360,37415.7294,tc,null,null,null,null,null,null,"[3,1]",450.0355476,475.516711,481.2857929
,canvas-keyboard-response,67,111057,0.0-6.0-5.8,584,,,,,make choice,1563,3,,,critical,c,d,t,164,240,232.8713,160.6713,240,164,trueblood,0.05,w,240,164,164,240,232.8713,160.6713,39360,39360,37415.7294,tc,null,null,null,null,null,null,"[3,1]",,,
,canvas-keyboard-response,68,111077,0.0-6.0-6.8,584,,,,,clear_screen,null,null,,,critical,c,d,t,164,240,232.8713,160.6713,240,164,trueblood,0.05,w,240,164,164,240,232.8713,160.6713,39360,39360,37415.7294,tc,null,null,null,null,null,null,"[3,1]",,,
,canvas-keyboard-response,69,111278,0.0-6.0-0.9,584,,,,,pre trial waiting period,null,null,,,critical,d,t,c,164,240,164,240,240,164,spektor,0,h,164,240,240,164,164,240,39360,39360,39360,tc,null,null,null,null,null,null,"[2,3]",473.444233,103.3433503,530.8875739
,canvas-keyboard-response,70,111299,0.0-6.0-1.9,584,,,,,clear_screen,null,null,,,critical,d,t,c,164,240,164,240,240,164,spektor,0,h,164,240,240,164,164,240,39360,39360,39360,tc,null,null,null,null,null,null,"[2,3]",473.444233,103.3433503,530.8875739
,canvas-keyboard-response,71,111808,0.0-6.0-2.9,584,,,,,rectangles no change,null,null,,,critical,d,t,c,164,240,164,240,240,164,spektor,0,h,164,240,240,164,164,240,39360,39360,39360,tc,null,null,null,null,null,null,"[2,3]",473.444233,103.3433503,530.8875739
,canvas-keyboard-response,72,113144,0.0-6.0-3.9,584,,,,,rectangles with change,null,null,,,critical,d,t,c,164,240,164,240,240,164,spektor,0,h,164,240,240,164,164,240,39360,39360,39360,tc,null,null,null,null,null,null,"[2,3]",473.444233,103.3433503,530.8875739
,canvas-keyboard-response,73,113165,0.0-6.0-4.9,584,,,,,clear_screen,null,null,,,critical,d,t,c,164,240,164,240,240,164,spektor,0,h,164,240,240,164,164,240,39360,39360,39360,tc,null,null,null,null,null,null,"[2,3]",473.444233,103.3433503,530.8875739
,canvas-keyboard-response,74,114665,0.0-6.0-5.9,584,,,,,make choice,1493,3,,,critical,d,t,c,164,240,164,240,240,164,spektor,0,h,164,240,240,164,164,240,39360,39360,39360,tc,null,null,null,null,null,null,"[2,3]",,,
,canvas-keyboard-response,75,114682,0.0-6.0-6.9,584,,,,,clear_screen,null,null,,,critical,d,t,c,164,240,164,240,240,164,spektor,0,h,164,240,240,164,164,240,39360,39360,39360,tc,null,null,null,null,null,null,"[2,3]",,,
,canvas-keyboard-response,76,114882,0.0-6.0-0.10,584,,,,,pre trial waiting period,null,null,,,catch,sh,sw,l,187,213,218,191,236,252,spektor,null,null,null,null,null,null,null,null,null,null,null,,180,200,260,200,36000,52000,"[2,3]",469.9181527,125.6842008,455.6093194
,canvas-keyboard-response,77,114903,0.0-6.0-1.10,584,,,,,clear_screen,null,null,,,catch,sh,sw,l,187,213,218,191,236,252,spektor,null,null,null,null,null,null,null,null,null,null,null,,180,200,260,200,36000,52000,"[2,3]",469.9181527,125.6842008,455.6093194
,canvas-keyboard-response,78,115411,0.0-6.0-2.10,584,,,,,rectangles no change,null,null,,,catch,sh,sw,l,187,213,218,191,236,252,spektor,null,null,null,null,null,null,null,null,null,null,null,,180,200,260,200,36000,52000,"[2,3]",469.9181527,125.6842008,455.6093194
,canvas-keyboard-response,79,116747,0.0-6.0-3.10,584,,,,,rectangles with change,null,null,,,catch,sh,sw,l,187,213,218,191,236,252,spektor,null,null,null,null,null,null,null,null,null,null,null,,180,200,260,200,36000,52000,"[2,3]",469.9181527,125.6842008,455.6093194
,canvas-keyboard-response,80,116767,0.0-6.0-4.10,584,,,,,clear_screen,null,null,,,catch,sh,sw,l,187,213,218,191,236,252,spektor,null,null,null,null,null,null,null,null,null,null,null,,180,200,260,200,36000,52000,"[2,3]",469.9181527,125.6842008,455.6093194
,canvas-keyboard-response,81,118865,0.0-6.0-5.10,584,,,,,make choice,2091,3,,,catch,sh,sw,l,187,213,218,191,236,252,spektor,null,null,null,null,null,null,null,null,null,null,null,,180,200,260,200,36000,52000,"[2,3]",,,
,canvas-keyboard-response,82,118882,0.0-6.0-6.10,584,,,,,clear_screen,null,null,,,catch,sh,sw,l,187,213,218,191,236,252,spektor,null,null,null,null,null,null,null,null,null,null,null,,180,200,260,200,36000,52000,"[2,3]",,,
,canvas-keyboard-response,83,119082,0.0-6.0-0.11,584,,,,,pre trial waiting period,null,null,,,critical,c,d,t,240,164,162.6685,237.1485,164,240,spektor,0.02,h,164,240,240,164,162.6685,237.1485,39360,39360,38576.5967,td,null,null,null,null,null,null,"[3,2]",541.4511235,119.510419,474.7844494
,canvas-keyboard-response,84,119106,0.0-6.0-1.11,584,,,,,clear_screen,null,null,,,critical,c,d,t,240,164,162.6685,237.1485,164,240,spektor,0.02,h,164,240,240,164,162.6685,237.1485,39360,39360,38576.5967,td,null,null,null,null,null,null,"[3,2]",541.4511235,119.510419,474.7844494
,canvas-keyboard-response,85,119614,0.0-6.0-2.11,584,,,,,rectangles no change,null,null,,,critical,c,d,t,240,164,162.6685,237.1485,164,240,spektor,0.02,h,164,240,240,164,162.6685,237.1485,39360,39360,38576.5967,td,null,null,null,null,null,null,"[3,2]",541.4511235,119.510419,474.7844494
,canvas-keyboard-response,86,120948,0.0-6.0-3.11,584,,,,,rectangles with change,null,null,,,critical,c,d,t,240,164,162.6685,237.1485,164,240,spektor,0.02,h,164,240,240,164,162.6685,237.1485,39360,39360,38576.5967,td,null,null,null,null,null,null,"[3,2]",541.4511235,119.510419,474.7844494
,canvas-keyboard-response,87,120966,0.0-6.0-4.11,584,,,,,clear_screen,null,null,,,critical,c,d,t,240,164,162.6685,237.1485,164,240,spektor,0.02,h,164,240,240,164,162.6685,237.1485,39360,39360,38576.5967,td,null,null,null,null,null,null,"[3,2]",541.4511235,119.510419,474.7844494
,canvas-keyboard-response,88,122616,0.0-6.0-5.11,584,,,,,make choice,1644,2,,,critical,c,d,t,240,164,162.6685,237.1485,164,240,spektor,0.02,h,164,240,240,164,162.6685,237.1485,39360,39360,38576.5967,td,null,null,null,null,null,null,"[3,2]",,,
,canvas-keyboard-response,89,122633,0.0-6.0-6.11,584,,,,,clear_screen,null,null,,,critical,c,d,t,240,164,162.6685,237.1485,164,240,spektor,0.02,h,164,240,240,164,162.6685,237.1485,39360,39360,38576.5967,td,null,null,null,null,null,null,"[3,2]",,,
,canvas-keyboard-response,90,122834,0.0-6.0-0.12,584,,,,,pre trial waiting period,null,null,,,critical,c,t,d,164,240,240,164,232.8713,160.6713,trueblood,0.05,w,240,164,164,240,232.8713,160.6713,39360,39360,37415.7294,td,null,null,null,null,null,null,"[2,3]",444.4515763,511.1228806,474.9326851
,canvas-keyboard-response,91,122858,0.0-6.0-1.12,584,,,,,clear_screen,null,null,,,critical,c,t,d,164,240,240,164,232.8713,160.6713,trueblood,0.05,w,240,164,164,240,232.8713,160.6713,39360,39360,37415.7294,td,null,null,null,null,null,null,"[2,3]",444.4515763,511.1228806,474.9326851
,canvas-keyboard-response,92,123368,0.0-6.0-2.12,584,,,,,rectangles no change,null,null,,,critical,c,t,d,164,240,240,164,232.8713,160.6713,trueblood,0.05,w,240,164,164,240,232.8713,160.6713,39360,39360,37415.7294,td,null,null,null,null,null,null,"[2,3]",444.4515763,511.1228806,474.9326851
,canvas-keyboard-response,93,124702,0.0-6.0-3.12,584,,,,,rectangles with change,null,null,,,critical,c,t,d,164,240,240,164,232.8713,160.6713,trueblood,0.05,w,240,164,164,240,232.8713,160.6713,39360,39360,37415.7294,td,null,null,null,null,null,null,"[2,3]",444.4515763,511.1228806,474.9326851
,canvas-keyboard-response,94,124720,0.0-6.0-4.12,584,,,,,clear_screen,null,null,,,critical,c,t,d,164,240,240,164,232.8713,160.6713,trueblood,0.05,w,240,164,164,240,232.8713,160.6713,39360,39360,37415.7294,td,null,null,null,null,null,null,"[2,3]",444.4515763,511.1228806,474.9326851
,canvas-keyboard-response,95,125168,0.0-6.0-5.12,584,,,,,make choice,442,2,,,critical,c,t,d,164,240,240,164,232.8713,160.6713,trueblood,0.05,w,240,164,164,240,232.8713,160.6713,39360,39360,37415.7294,td,null,null,null,null,null,null,"[2,3]",,,
,canvas-keyboard-response,96,125186,0.0-6.0-6.12,584,,,,,clear_screen,null,null,,,critical,c,t,d,164,240,240,164,232.8713,160.6713,trueblood,0.05,w,240,164,164,240,232.8713,160.6713,39360,39360,37415.7294,td,null,null,null,null,null,null,"[2,3]",,,
,canvas-keyboard-response,97,125387,0.0-6.0-0.13,584,,,,,pre trial waiting period,null,null,,,critical,t,c,d,240,164,164,240,237.1485,162.6685,spektor,0.02,w,240,164,164,240,237.1485,162.6685,39360,39360,38576.5967,tc,null,null,null,null,null,null,"[1,2]",538.1114053,124.835587,532.8053352
,canvas-keyboard-response,98,125407,0.0-6.0-1.13,584,,,,,clear_screen,null,null,,,critical,t,c,d,240,164,164,240,237.1485,162.6685,spektor,0.02,w,240,164,164,240,237.1485,162.6685,39360,39360,38576.5967,tc,null,null,null,null,null,null,"[1,2]",538.1114053,124.835587,532.8053352
,canvas-keyboard-response,99,125915,0.0-6.0-2.13,584,,,,,rectangles no change,null,null,,,critical,t,c,d,240,164,164,240,237.1485,162.6685,spektor,0.02,w,240,164,164,240,237.1485,162.6685,39360,39360,38576.5967,tc,null,null,null,null,null,null,"[1,2]",538.1114053,124.835587,532.8053352
,canvas-keyboard-response,100,127251,0.0-6.0-3.13,584,,,,,rectangles with change,null,null,,,critical,t,c,d,240,164,164,240,237.1485,162.6685,spektor,0.02,w,240,164,164,240,237.1485,162.6685,39360,39360,38576.5967,tc,null,null,null,null,null,null,"[1,2]",538.1114053,124.835587,532.8053352
,canvas-keyboard-response,101,127269,0.0-6.0-4.13,584,,,,,clear_screen,null,null,,,critical,t,c,d,240,164,164,240,237.1485,162.6685,spektor,0.02,w,240,164,164,240,237.1485,162.6685,39360,39360,38576.5967,tc,null,null,null,null,null,null,"[1,2]",538.1114053,124.835587,532.8053352
,canvas-keyboard-response,102,127384,0.0-6.0-5.13,584,,,,,make choice,109,1,,,critical,t,c,d,240,164,164,240,237.1485,162.6685,spektor,0.02,w,240,164,164,240,237.1485,162.6685,39360,39360,38576.5967,tc,null,null,null,null,null,null,"[1,2]",,,
,canvas-keyboard-response,103,127402,0.0-6.0-6.13,584,,,,,clear_screen,null,null,,,critical,t,c,d,240,164,164,240,237.1485,162.6685,spektor,0.02,w,240,164,164,240,237.1485,162.6685,39360,39360,38576.5967,tc,null,null,null,null,null,null,"[1,2]",,,
,canvas-keyboard-response,104,127604,0.0-6.0-0.14,584,,,,,pre trial waiting period,null,null,,,catch,l,sw,sh,290,168,191,160,163,195,trueblood,null,null,null,null,null,null,null,null,null,null,null,,180,200,260,200,36000,52000,"[1,3]",466.5077602,515.3816019,467.0618844
,canvas-keyboard-response,105,127623,0.0-6.0-1.14,584,,,,,clear_screen,null,null,,,catch,l,sw,sh,290,168,191,160,163,195,trueblood,null,null,null,null,null,null,null,null,null,null,null,,180,200,260,200,36000,52000,"[1,3]",466.5077602,515.3816019,467.0618844
,canvas-keyboard-response,106,128131,0.0-6.0-2.14,584,,,,,rectangles no change,null,null,,,catch,l,sw,sh,290,168,191,160,163,195,trueblood,null,null,null,null,null,null,null,null,null,null,null,,180,200,260,200,36000,52000,"[1,3]",466.5077602,515.3816019,467.0618844
,canvas-keyboard-response,107,129470,0.0-6.0-3.14,584,,,,,rectangles with change,null,null,,,catch,l,sw,sh,290,168,191,160,163,195,trueblood,null,null,null,null,null,null,null,null,null,null,null,,180,200,260,200,36000,52000,"[1,3]",466.5077602,515.3816019,467.0618844
,canvas-keyboard-response,108,129489,0.0-6.0-4.14,584,,,,,clear_screen,null,null,,,catch,l,sw,sh,290,168,191,160,163,195,trueblood,null,null,null,null,null,null,null,null,null,null,null,,180,200,260,200,36000,52000,"[1,3]",466.5077602,515.3816019,467.0618844
,canvas-keyboard-response,109,130016,0.0-6.0-5.14,584,,,,,make choice,522,1,,,catch,l,sw,sh,290,168,191,160,163,195,trueblood,null,null,null,null,null,null,null,null,null,null,null,,180,200,260,200,36000,52000,"[1,3]",,,
,canvas-keyboard-response,110,130033,0.0-6.0-6.14,584,,,,,clear_screen,null,null,,,catch,l,sw,sh,290,168,191,160,163,195,trueblood,null,null,null,null,null,null,null,null,null,null,null,,180,200,260,200,36000,52000,"[1,3]",,,
,canvas-keyboard-response,111,130235,0.0-6.0-0.15,584,,,,,pre trial waiting period,null,null,,,critical,d,t,c,162.6685,237.1485,164,240,240,164,spektor,0.02,h,164,240,240,164,162.6685,237.1485,39360,39360,38576.5967,tc,null,null,null,null,null,null,"[2,3]",461.7924675,114.8365641,508.665792
,canvas-keyboard-response,112,130254,0.0-6.0-1.15,584,,,,,clear_screen,null,null,,,critical,d,t,c,162.6685,237.1485,164,240,240,164,spektor,0.02,h,164,240,240,164,162.6685,237.1485,39360,39360,38576.5967,tc,null,null,null,null,null,null,"[2,3]",461.7924675,114.8365641,508.665792
,canvas-keyboard-response,113,130763,0.0-6.0-2.15,584,,,,,rectangles no change,null,null,,,critical,d,t,c,162.6685,237.1485,164,240,240,164,spektor,0.02,h,164,240,240,164,162.6685,237.1485,39360,39360,38576.5967,tc,null,null,null,null,null,null,"[2,3]",461.7924675,114.8365641,508.665792
,canvas-keyboard-response,114,132100,0.0-6.0-3.15,584,,,,,rectangles with change,null,null,,,critical,d,t,c,162.6685,237.1485,164,240,240,164,spektor,0.02,h,164,240,240,164,162.6685,237.1485,39360,39360,38576.5967,tc,null,null,null,null,null,null,"[2,3]",461.7924675,114.8365641,508.665792
,canvas-keyboard-response,115,132117,0.0-6.0-4.15,584,,,,,clear_screen,null,null,,,critical,d,t,c,162.6685,237.1485,164,240,240,164,spektor,0.02,h,164,240,240,164,162.6685,237.1485,39360,39360,38576.5967,tc,null,null,null,null,null,null,"[2,3]",461.7924675,114.8365641,508.665792
,canvas-keyboard-response,116,132720,0.0-6.0-5.15,584,,,,,make choice,593,2,,,critical,d,t,c,162.6685,237.1485,164,240,240,164,spektor,0.02,h,164,240,240,164,162.6685,237.1485,39360,39360,38576.5967,tc,null,null,null,null,null,null,"[2,3]",,,
,canvas-keyboard-response,117,132742,0.0-6.0-6.15,584,,,,,clear_screen,null,null,,,critical,d,t,c,162.6685,237.1485,164,240,240,164,spektor,0.02,h,164,240,240,164,162.6685,237.1485,39360,39360,38576.5967,tc,null,null,null,null,null,null,"[2,3]",,,
,canvas-keyboard-response,118,132943,0.0-6.0-0.16,584,,,,,pre trial waiting period,null,null,,,critical,t,c,d,240,164,164,240,237.1485,162.6685,spektor,0.02,w,240,164,164,240,237.1485,162.6685,39360,39360,38576.5967,dc,null,null,null,null,null,null,"[3,2]",527.0397636,158.6422299,509.9185304
,canvas-keyboard-response,119,132962,0.0-6.0-1.16,584,,,,,clear_screen,null,null,,,critical,t,c,d,240,164,164,240,237.1485,162.6685,spektor,0.02,w,240,164,164,240,237.1485,162.6685,39360,39360,38576.5967,dc,null,null,null,null,null,null,"[3,2]",527.0397636,158.6422299,509.9185304
,canvas-keyboard-response,120,133469,0.0-6.0-2.16,584,,,,,rectangles no change,null,null,,,critical,t,c,d,240,164,164,240,237.1485,162.6685,spektor,0.02,w,240,164,164,240,237.1485,162.6685,39360,39360,38576.5967,dc,null,null,null,null,null,null,"[3,2]",527.0397636,158.6422299,509.9185304
,canvas-keyboard-response,121,134807,0.0-6.0-3.16,584,,,,,rectangles with change,null,null,,,critical,t,c,d,240,164,164,240,237.1485,162.6685,spektor,0.02,w,240,164,164,240,237.1485,162.6685,39360,39360,38576.5967,dc,null,null,null,null,null,null,"[3,2]",527.0397636,158.6422299,509.9185304
,canvas-keyboard-response,122,134824,0.0-6.0-4.16,584,,,,,clear_screen,null,null,,,critical,t,c,d,240,164,164,240,237.1485,162.6685,spektor,0.02,w,240,164,164,240,237.1485,162.6685,39360,39360,38576.5967,dc,null,null,null,null,null,null,"[3,2]",527.0397636,158.6422299,509.9185304
,canvas-keyboard-response,123,136520,0.0-6.0-5.16,584,,,,,make choice,1690,2,,,critical,t,c,d,240,164,164,240,237.1485,162.6685,spektor,0.02,w,240,164,164,240,237.1485,162.6685,39360,39360,38576.5967,dc,null,null,null,null,null,null,"[3,2]",,,
,canvas-keyboard-response,124,136541,0.0-6.0-6.16,584,,,,,clear_screen,null,null,,,critical,t,c,d,240,164,164,240,237.1485,162.6685,spektor,0.02,w,240,164,164,240,237.1485,162.6685,39360,39360,38576.5967,dc,null,null,null,null,null,null,"[3,2]",,,
,canvas-keyboard-response,125,136743,0.0-6.0-0.17,584,,,,,pre trial waiting period,null,null,,,critical,t,c,d,164,240,240,164,158.0083,227.1683,trueblood,0.09,h,164,240,240,164,158.0083,227.1683,39360,39360,35894.4834,td,null,null,null,null,null,null,"[1,3]",444.0957655,475.8861282,434.6639181
,canvas-keyboard-response,126,136761,0.0-6.0-1.17,584,,,,,clear_screen,null,null,,,critical,t,c,d,164,240,240,164,158.0083,227.1683,trueblood,0.09,h,164,240,240,164,158.0083,227.1683,39360,39360,35894.4834,td,null,null,null,null,null,null,"[1,3]",444.0957655,475.8861282,434.6639181
,canvas-keyboard-response,127,137269,0.0-6.0-2.17,584,,,,,rectangles no change,null,null,,,critical,t,c,d,164,240,240,164,158.0083,227.1683,trueblood,0.09,h,164,240,240,164,158.0083,227.1683,39360,39360,35894.4834,td,null,null,null,null,null,null,"[1,3]",444.0957655,475.8861282,434.6639181
,canvas-keyboard-response,128,138606,0.0-6.0-3.17,584,,,,,rectangles with change,null,null,,,critical,t,c,d,164,240,240,164,158.0083,227.1683,trueblood,0.09,h,164,240,240,164,158.0083,227.1683,39360,39360,35894.4834,td,null,null,null,null,null,null,"[1,3]",444.0957655,475.8861282,434.6639181
,canvas-keyboard-response,129,138628,0.0-6.0-4.17,584,,,,,clear_screen,null,null,,,critical,t,c,d,164,240,240,164,158.0083,227.1683,trueblood,0.09,h,164,240,240,164,158.0083,227.1683,39360,39360,35894.4834,td,null,null,null,null,null,null,"[1,3]",444.0957655,475.8861282,434.6639181
,canvas-keyboard-response,130,139336,0.0-6.0-5.17,584,,,,,make choice,703,1,,,critical,t,c,d,164,240,240,164,158.0083,227.1683,trueblood,0.09,h,164,240,240,164,158.0083,227.1683,39360,39360,35894.4834,td,null,null,null,null,null,null,"[1,3]",,,
,canvas-keyboard-response,131,139354,0.0-6.0-6.17,584,,,,,clear_screen,null,null,,,critical,t,c,d,164,240,240,164,158.0083,227.1683,trueblood,0.09,h,164,240,240,164,158.0083,227.1683,39360,39360,35894.4834,td,null,null,null,null,null,null,"[1,3]",,,
,canvas-keyboard-response,132,139554,0.0-6.0-0.18,584,,,,,pre trial waiting period,null,null,,,catch,sh,l,sw,201,212,161,294,217,210,trueblood,null,null,null,null,null,null,null,null,null,null,null,,180,200,260,200,36000,52000,"[2,3]",447.9550523,409.9227795,485.991172
,canvas-keyboard-response,133,139574,0.0-6.0-1.18,584,,,,,clear_screen,null,null,,,catch,sh,l,sw,201,212,161,294,217,210,trueblood,null,null,null,null,null,null,null,null,null,null,null,,180,200,260,200,36000,52000,"[2,3]",447.9550523,409.9227795,485.991172
,canvas-keyboard-response,134,140082,0.0-6.0-2.18,584,,,,,rectangles no change,null,null,,,catch,sh,l,sw,201,212,161,294,217,210,trueblood,null,null,null,null,null,null,null,null,null,null,null,,180,200,260,200,36000,52000,"[2,3]",447.9550523,409.9227795,485.991172
,canvas-keyboard-response,135,141417,0.0-6.0-3.18,584,,,,,rectangles with change,null,null,,,catch,sh,l,sw,201,212,161,294,217,210,trueblood,null,null,null,null,null,null,null,null,null,null,null,,180,200,260,200,36000,52000,"[2,3]",447.9550523,409.9227795,485.991172
,canvas-keyboard-response,136,141440,0.0-6.0-4.18,584,,,,,clear_screen,null,null,,,catch,sh,l,sw,201,212,161,294,217,210,trueblood,null,null,null,null,null,null,null,null,null,null,null,,180,200,260,200,36000,52000,"[2,3]",447.9550523,409.9227795,485.991172
,canvas-keyboard-response,137,142368,0.0-6.0-5.18,584,,,,,make choice,922,3,,,catch,sh,l,sw,201,212,161,294,217,210,trueblood,null,null,null,null,null,null,null,null,null,null,null,,180,200,260,200,36000,52000,"[2,3]",,,
,canvas-keyboard-response,138,142387,0.0-6.0-6.18,584,,,,,clear_screen,null,null,,,catch,sh,l,sw,201,212,161,294,217,210,trueblood,null,null,null,null,null,null,null,null,null,null,null,,180,200,260,200,36000,52000,"[2,3]",,,
,canvas-keyboard-response,139,142588,0.0-6.0-0.19,584,,,,,pre trial waiting period,null,null,,,critical,d,t,c,162.6685,237.1485,164,240,240,164,spektor,0.02,h,164,240,240,164,162.6685,237.1485,39360,39360,38576.5967,dc,null,null,null,null,null,null,"[1,3]",465.3644077,139.15223,505.7961888
,canvas-keyboard-response,140,142609,0.0-6.0-1.19,584,,,,,clear_screen,null,null,,,critical,d,t,c,162.6685,237.1485,164,240,240,164,spektor,0.02,h,164,240,240,164,162.6685,237.1485,39360,39360,38576.5967,dc,null,null,null,null,null,null,"[1,3]",465.3644077,139.15223,505.7961888
,canvas-keyboard-response,141,143120,0.0-6.0-2.19,584,,,,,rectangles no change,null,null,,,critical,d,t,c,162.6685,237.1485,164,240,240,164,spektor,0.02,h,164,240,240,164,162.6685,237.1485,39360,39360,38576.5967,dc,null,null,null,null,null,null,"[1,3]",465.3644077,139.15223,505.7961888
,canvas-keyboard-response,142,144458,0.0-6.0-3.19,584,,,,,rectangles with change,null,null,,,critical,d,t,c,162.6685,237.1485,164,240,240,164,spektor,0.02,h,164,240,240,164,162.6685,237.1485,39360,39360,38576.5967,dc,null,null,null,null,null,null,"[1,3]",465.3644077,139.15223,505.7961888
,canvas-keyboard-response,143,144481,0.0-6.0-4.19,584,,,,,clear_screen,null,null,,,critical,d,t,c,162.6685,237.1485,164,240,240,164,spektor,0.02,h,164,240,240,164,162.6685,237.1485,39360,39360,38576.5967,dc,null,null,null,null,null,null,"[1,3]",465.3644077,139.15223,505.7961888
,canvas-keyboard-response,144,145712,0.0-6.0-5.19,584,,,,,make choice,1226,3,,,critical,d,t,c,162.6685,237.1485,164,240,240,164,spektor,0.02,h,164,240,240,164,162.6685,237.1485,39360,39360,38576.5967,dc,null,null,null,null,null,null,"[1,3]",,,
,canvas-keyboard-response,145,145731,0.0-6.0-6.19,584,,,,,clear_screen,null,null,,,critical,d,t,c,162.6685,237.1485,164,240,240,164,spektor,0.02,h,164,240,240,164,162.6685,237.1485,39360,39360,38576.5967,dc,null,null,null,null,null,null,"[1,3]",,,
,canvas-keyboard-response,146,145932,0.0-6.0-0.20,584,,,,,pre trial waiting period,null,null,,,critical,d,c,t,158.0083,227.1683,240,164,164,240,trueblood,0.09,h,164,240,240,164,158.0083,227.1683,39360,39360,35894.4834,dc,null,null,null,null,null,null,"[1,2]",446.5456645,468.5951823,438.135839
,canvas-keyboard-response,147,145951,0.0-6.0-1.20,584,,,,,clear_screen,null,null,,,critical,d,c,t,158.0083,227.1683,240,164,164,240,trueblood,0.09,h,164,240,240,164,158.0083,227.1683,39360,39360,35894.4834,dc,null,null,null,null,null,null,"[1,2]",446.5456645,468.5951823,438.135839
,canvas-keyboard-response,148,146456,0.0-6.0-2.20,584,,,,,rectangles no change,null,null,,,critical,d,c,t,158.0083,227.1683,240,164,164,240,trueblood,0.09,h,164,240,240,164,158.0083,227.1683,39360,39360,35894.4834,dc,null,null,null,null,null,null,"[1,2]",446.5456645,468.5951823,438.135839
,canvas-keyboard-response,149,147792,0.0-6.0-3.20,584,,,,,rectangles with change,null,null,,,critical,d,c,t,158.0083,227.1683,240,164,164,240,trueblood,0.09,h,164,240,240,164,158.0083,227.1683,39360,39360,35894.4834,dc,null,null,null,null,null,null,"[1,2]",446.5456645,468.5951823,438.135839
,canvas-keyboard-response,150,147810,0.0-6.0-4.20,584,,,,,clear_screen,null,null,,,critical,d,c,t,158.0083,227.1683,240,164,164,240,trueblood,0.09,h,164,240,240,164,158.0083,227.1683,39360,39360,35894.4834,dc,null,null,null,null,null,null,"[1,2]",446.5456645,468.5951823,438.135839
,canvas-keyboard-response,151,148424,0.0-6.0-5.20,584,,,,,make choice,609,2,,,critical,d,c,t,158.0083,227.1683,240,164,164,240,trueblood,0.09,h,164,240,240,164,158.0083,227.1683,39360,39360,35894.4834,dc,null,null,null,null,null,null,"[1,2]",,,
,canvas-keyboard-response,152,148446,0.0-6.0-6.20,584,,,,,clear_screen,null,null,,,critical,d,c,t,158.0083,227.1683,240,164,164,240,trueblood,0.09,h,164,240,240,164,158.0083,227.1683,39360,39360,35894.4834,dc,null,null,null,null,null,null,"[1,2]",,,
,canvas-keyboard-response,153,148646,0.0-6.0-0.21,584,,,,,pre trial waiting period,null,null,,,catch,sw,sh,l,180,200,186,214,275,236,spektor,null,null,null,null,null,null,null,null,null,null,null,,180,200,260,200,36000,52000,"[2,3]",479.2268723,113.1381988,461.6407906
,canvas-keyboard-response,154,148669,0.0-6.0-1.21,584,,,,,clear_screen,null,null,,,catch,sw,sh,l,180,200,186,214,275,236,spektor,null,null,null,null,null,null,null,null,null,null,null,,180,200,260,200,36000,52000,"[2,3]",479.2268723,113.1381988,461.6407906
,canvas-keyboard-response,155,149175,0.0-6.0-2.21,584,,,,,rectangles no change,null,null,,,catch,sw,sh,l,180,200,186,214,275,236,spektor,null,null,null,null,null,null,null,null,null,null,null,,180,200,260,200,36000,52000,"[2,3]",479.2268723,113.1381988,461.6407906
,canvas-keyboard-response,156,150513,0.0-6.0-3.21,584,,,,,rectangles with change,null,null,,,catch,sw,sh,l,180,200,186,214,275,236,spektor,null,null,null,null,null,null,null,null,null,null,null,,180,200,260,200,36000,52000,"[2,3]",479.2268723,113.1381988,461.6407906
,canvas-keyboard-response,157,150538,0.0-6.0-4.21,584,,,,,clear_screen,null,null,,,catch,sw,sh,l,180,200,186,214,275,236,spektor,null,null,null,null,null,null,null,null,null,null,null,,180,200,260,200,36000,52000,"[2,3]",479.2268723,113.1381988,461.6407906
,canvas-keyboard-response,158,153665,0.0-6.0-5.21,584,,,,,make choice,3123,2,,,catch,sw,sh,l,180,200,186,214,275,236,spektor,null,null,null,null,null,null,null,null,null,null,null,,180,200,260,200,36000,52000,"[2,3]",,,
,canvas-keyboard-response,159,153683,0.0-6.0-6.21,584,,,,,clear_screen,null,null,,,catch,sw,sh,l,180,200,186,214,275,236,spektor,null,null,null,null,null,null,null,null,null,null,null,,180,200,260,200,36000,52000,"[2,3]",,,
,canvas-keyboard-response,160,153886,0.0-6.0-0.22,584,,,,,pre trial waiting period,null,null,,,catch,l,sw,sh,199,247,203,220,235,175,spektor,null,null,null,null,null,null,null,null,null,null,null,,180,200,260,200,36000,52000,"[1,3]",460.5729712,123.8373889,492.6252541
,canvas-keyboard-response,161,153910,0.0-6.0-1.22,584,,,,,clear_screen,null,null,,,catch,l,sw,sh,199,247,203,220,235,175,spektor,null,null,null,null,null,null,null,null,null,null,null,,180,200,260,200,36000,52000,"[1,3]",460.5729712,123.8373889,492.6252541
,canvas-keyboard-response,162,154418,0.0-6.0-2.22,584,,,,,rectangles no change,null,null,,,catch,l,sw,sh,199,247,203,220,235,175,spektor,null,null,null,null,null,null,null,null,null,null,null,,180,200,260,200,36000,52000,"[1,3]",460.5729712,123.8373889,492.6252541
,canvas-keyboard-response,163,155756,0.0-6.0-3.22,584,,,,,rectangles with change,null,null,,,catch,l,sw,sh,199,247,203,220,235,175,spektor,null,null,null,null,null,null,null,null,null,null,null,,180,200,260,200,36000,52000,"[1,3]",460.5729712,123.8373889,492.6252541
,canvas-keyboard-response,164,155776,0.0-6.0-4.22,584,,,,,clear_screen,null,null,,,catch,l,sw,sh,199,247,203,220,235,175,spektor,null,null,null,null,null,null,null,null,null,null,null,,180,200,260,200,36000,52000,"[1,3]",460.5729712,123.8373889,492.6252541
,canvas-keyboard-response,165,156336,0.0-6.0-5.22,584,,,,,make choice,556,1,,,catch,l,sw,sh,199,247,203,220,235,175,spektor,null,null,null,null,null,null,null,null,null,null,null,,180,200,260,200,36000,52000,"[1,3]",,,
,canvas-keyboard-response,166,156354,0.0-6.0-6.22,584,,,,,clear_screen,null,null,,,catch,l,sw,sh,199,247,203,220,235,175,spektor,null,null,null,null,null,null,null,null,null,null,null,,180,200,260,200,36000,52000,"[1,3]",,,
,canvas-keyboard-response,167,156555,0.0-6.0-0.23,584,,,,,pre trial waiting period,null,null,,,critical,d,c,t,158.0083,227.1683,240,164,164,240,spektor,0.09,h,164,240,240,164,158.0083,227.1683,39360,39360,35894.4834,tc,null,null,null,null,null,null,"[3,2]",497.504867,198.3844378,503.4616917
,canvas-keyboard-response,168,156575,0.0-6.0-1.23,584,,,,,clear_screen,null,null,,,critical,d,c,t,158.0083,227.1683,240,164,164,240,spektor,0.09,h,164,240,240,164,158.0083,227.1683,39360,39360,35894.4834,tc,null,null,null,null,null,null,"[3,2]",497.504867,198.3844378,503.4616917
,canvas-keyboard-response,169,157081,0.0-6.0-2.23,584,,,,,rectangles no change,null,null,,,critical,d,c,t,158.0083,227.1683,240,164,164,240,spektor,0.09,h,164,240,240,164,158.0083,227.1683,39360,39360,35894.4834,tc,null,null,null,null,null,null,"[3,2]",497.504867,198.3844378,503.4616917
,canvas-keyboard-response,170,158418,0.0-6.0-3.23,584,,,,,rectangles with change,null,null,,,critical,d,c,t,158.0083,227.1683,240,164,164,240,spektor,0.09,h,164,240,240,164,158.0083,227.1683,39360,39360,35894.4834,tc,null,null,null,null,null,null,"[3,2]",497.504867,198.3844378,503.4616917
,canvas-keyboard-response,171,158438,0.0-6.0-4.23,584,,,,,clear_screen,null,null,,,critical,d,c,t,158.0083,227.1683,240,164,164,240,spektor,0.09,h,164,240,240,164,158.0083,227.1683,39360,39360,35894.4834,tc,null,null,null,null,null,null,"[3,2]",497.504867,198.3844378,503.4616917
,canvas-keyboard-response,172,159329,0.0-6.0-5.23,584,,,,,make choice,886,2,,,critical,d,c,t,158.0083,227.1683,240,164,164,240,spektor,0.09,h,164,240,240,164,158.0083,227.1683,39360,39360,35894.4834,tc,null,null,null,null,null,null,"[3,2]",,,
,canvas-keyboard-response,173,159348,0.0-6.0-6.23,584,,,,,clear_screen,null,null,,,critical,d,c,t,158.0083,227.1683,240,164,164,240,spektor,0.09,h,164,240,240,164,158.0083,227.1683,39360,39360,35894.4834,tc,null,null,null,null,null,null,"[3,2]",,,
,canvas-keyboard-response,174,159549,0.0-6.0-0.24,584,,,,,pre trial waiting period,null,null,,,catch,sw,l,sh,180,200,287,233,200,203,spektor,null,null,null,null,null,null,null,null,null,null,null,,180,200,260,200,36000,52000,"[2,3]",504.0238683,141.1558614,497.9449053
,canvas-keyboard-response,175,159571,0.0-6.0-1.24,584,,,,,clear_screen,null,null,,,catch,sw,l,sh,180,200,287,233,200,203,spektor,null,null,null,null,null,null,null,null,null,null,null,,180,200,260,200,36000,52000,"[2,3]",504.0238683,141.1558614,497.9449053
,canvas-keyboard-response,176,160076,0.0-6.0-2.24,584,,,,,rectangles no change,null,null,,,catch,sw,l,sh,180,200,287,233,200,203,spektor,null,null,null,null,null,null,null,null,null,null,null,,180,200,260,200,36000,52000,"[2,3]",504.0238683,141.1558614,497.9449053
,canvas-keyboard-response,177,161412,0.0-6.0-3.24,584,,,,,rectangles with change,null,null,,,catch,sw,l,sh,180,200,287,233,200,203,spektor,null,null,null,null,null,null,null,null,null,null,null,,180,200,260,200,36000,52000,"[2,3]",504.0238683,141.1558614,497.9449053
,canvas-keyboard-response,178,161434,0.0-6.0-4.24,584,,,,,clear_screen,null,null,,,catch,sw,l,sh,180,200,287,233,200,203,spektor,null,null,null,null,null,null,null,null,null,null,null,,180,200,260,200,36000,52000,"[2,3]",504.0238683,141.1558614,497.9449053
,canvas-keyboard-response,179,161880,0.0-6.0-5.24,584,,,,,make choice,441,2,,,catch,sw,l,sh,180,200,287,233,200,203,spektor,null,null,null,null,null,null,null,null,null,null,null,,180,200,260,200,36000,52000,"[2,3]",,,
,canvas-keyboard-response,180,161899,0.0-6.0-6.24,584,,,,,clear_screen,null,null,,,catch,sw,l,sh,180,200,287,233,200,203,spektor,null,null,null,null,null,null,null,null,null,null,null,,180,200,260,200,36000,52000,"[2,3]",,,
,canvas-keyboard-response,181,162101,0.0-6.0-0.25,584,,,,,pre trial waiting period,null,null,,,critical,d,c,t,220.0396,154.6796,164,240,240,164,trueblood,0.14,w,240,164,164,240,220.0396,154.6796,39360,39360,34035.6388,td,null,null,null,null,null,null,"[3,1]",488.0367212,453.9132037,513.5699488
,canvas-keyboard-response,182,162123,0.0-6.0-1.25,584,,,,,clear_screen,null,null,,,critical,d,c,t,220.0396,154.6796,164,240,240,164,trueblood,0.14,w,240,164,164,240,220.0396,154.6796,39360,39360,34035.6388,td,null,null,null,null,null,null,"[3,1]",488.0367212,453.9132037,513.5699488
,canvas-keyboard-response,183,162627,0.0-6.0-2.25,584,,,,,rectangles no change,null,null,,,critical,d,c,t,220.0396,154.6796,164,240,240,164,trueblood,0.14,w,240,164,164,240,220.0396,154.6796,39360,39360,34035.6388,td,null,null,null,null,null,null,"[3,1]",488.0367212,453.9132037,513.5699488
,canvas-keyboard-response,184,163961,0.0-6.0-3.25,584,,,,,rectangles with change,null,null,,,critical,d,c,t,220.0396,154.6796,164,240,240,164,trueblood,0.14,w,240,164,164,240,220.0396,154.6796,39360,39360,34035.6388,td,null,null,null,null,null,null,"[3,1]",488.0367212,453.9132037,513.5699488
,canvas-keyboard-response,185,163980,0.0-6.0-4.25,584,,,,,clear_screen,null,null,,,critical,d,c,t,220.0396,154.6796,164,240,240,164,trueblood,0.14,w,240,164,164,240,220.0396,154.6796,39360,39360,34035.6388,td,null,null,null,null,null,null,"[3,1]",488.0367212,453.9132037,513.5699488
,canvas-keyboard-response,186,164609,0.0-6.0-5.25,584,,,,,make choice,623,3,,,critical,d,c,t,220.0396,154.6796,164,240,240,164,trueblood,0.14,w,240,164,164,240,220.0396,154.6796,39360,39360,34035.6388,td,null,null,null,null,null,null,"[3,1]",,,
,canvas-keyboard-response,187,164626,0.0-6.0-6.25,584,,,,,clear_screen,null,null,,,critical,d,c,t,220.0396,154.6796,164,240,240,164,trueblood,0.14,w,240,164,164,240,220.0396,154.6796,39360,39360,34035.6388,td,null,null,null,null,null,null,"[3,1]",,,
,canvas-keyboard-response,188,164828,0.0-6.0-0.26,584,,,,,pre trial waiting period,null,null,,,catch,l,sh,sw,272,188,239,210,199,218,trueblood,null,null,null,null,null,null,null,null,null,null,null,,180,200,260,200,36000,52000,"[1,3]",458.252899,465.5190284,481.4472347
,canvas-keyboard-response,189,164847,0.0-6.0-1.26,584,,,,,clear_screen,null,null,,,catch,l,sh,sw,272,188,239,210,199,218,trueblood,null,null,null,null,null,null,null,null,null,null,null,,180,200,260,200,36000,52000,"[1,3]",458.252899,465.5190284,481.4472347
,canvas-keyboard-response,190,165354,0.0-6.0-2.26,584,,,,,rectangles no change,null,null,,,catch,l,sh,sw,272,188,239,210,199,218,trueblood,null,null,null,null,null,null,null,null,null,null,null,,180,200,260,200,36000,52000,"[1,3]",458.252899,465.5190284,481.4472347
,canvas-keyboard-response,191,166694,0.0-6.0-3.26,584,,,,,rectangles with change,null,null,,,catch,l,sh,sw,272,188,239,210,199,218,trueblood,null,null,null,null,null,null,null,null,null,null,null,,180,200,260,200,36000,52000,"[1,3]",458.252899,465.5190284,481.4472347
,canvas-keyboard-response,192,166717,0.0-6.0-4.26,584,,,,,clear_screen,null,null,,,catch,l,sh,sw,272,188,239,210,199,218,trueblood,null,null,null,null,null,null,null,null,null,null,null,,180,200,260,200,36000,52000,"[1,3]",458.252899,465.5190284,481.4472347
,canvas-keyboard-response,193,167665,0.0-6.0-5.26,584,,,,,make choice,938,3,,,catch,l,sh,sw,272,188,239,210,199,218,trueblood,null,null,null,null,null,null,null,null,null,null,null,,180,200,260,200,36000,52000,"[1,3]",,,
,canvas-keyboard-response,194,167682,0.0-6.0-6.26,584,,,,,clear_screen,null,null,,,catch,l,sh,sw,272,188,239,210,199,218,trueblood,null,null,null,null,null,null,null,null,null,null,null,,180,200,260,200,36000,52000,"[1,3]",,,
,canvas-keyboard-response,195,167883,0.0-6.0-0.27,584,,,,,pre trial waiting period,null,null,,,critical,t,d,c,164,240,154.6796,220.0396,240,164,spektor,0.14,h,164,240,240,164,154.6796,220.0396,39360,39360,34035.6388,dc,null,null,null,null,null,null,"[2,3]",457.2342914,114.953788,534.9284783
,canvas-keyboard-response,196,167906,0.0-6.0-1.27,584,,,,,clear_screen,null,null,,,critical,t,d,c,164,240,154.6796,220.0396,240,164,spektor,0.14,h,164,240,240,164,154.6796,220.0396,39360,39360,34035.6388,dc,null,null,null,null,null,null,"[2,3]",457.2342914,114.953788,534.9284783
,canvas-keyboard-response,197,168414,0.0-6.0-2.27,584,,,,,rectangles no change,null,null,,,critical,t,d,c,164,240,154.6796,220.0396,240,164,spektor,0.14,h,164,240,240,164,154.6796,220.0396,39360,39360,34035.6388,dc,null,null,null,null,null,null,"[2,3]",457.2342914,114.953788,534.9284783
,canvas-keyboard-response,198,169750,0.0-6.0-3.27,584,,,,,rectangles with change,null,null,,,critical,t,d,c,164,240,154.6796,220.0396,240,164,spektor,0.14,h,164,240,240,164,154.6796,220.0396,39360,39360,34035.6388,dc,null,null,null,null,null,null,"[2,3]",457.2342914,114.953788,534.9284783
,canvas-keyboard-response,199,169769,0.0-6.0-4.27,584,,,,,clear_screen,null,null,,,critical,t,d,c,164,240,154.6796,220.0396,240,164,spektor,0.14,h,164,240,240,164,154.6796,220.0396,39360,39360,34035.6388,dc,null,null,null,null,null,null,"[2,3]",457.2342914,114.953788,534.9284783
,canvas-keyboard-response,200,170312,0.0-6.0-5.27,584,,,,,make choice,537,3,,,critical,t,d,c,164,240,154.6796,220.0396,240,164,spektor,0.14,h,164,240,240,164,154.6796,220.0396,39360,39360,34035.6388,dc,null,null,null,null,null,null,"[2,3]",,,
,canvas-keyboard-response,201,170330,0.0-6.0-6.27,584,,,,,clear_screen,null,null,,,critical,t,d,c,164,240,154.6796,220.0396,240,164,spektor,0.14,h,164,240,240,164,154.6796,220.0396,39360,39360,34035.6388,dc,null,null,null,null,null,null,"[2,3]",,,
,canvas-keyboard-response,202,170531,0.0-6.0-0.28,584,,,,,pre trial waiting period,null,null,,,critical,t,c,d,240,164,164,240,237.1485,162.6685,spektor,0.02,w,240,164,164,240,237.1485,162.6685,39360,39360,38576.5967,td,null,null,null,null,null,null,"[1,3]",539.3690166,123.8506203,511.7489396
,canvas-keyboard-response,203,170550,0.0-6.0-1.28,584,,,,,clear_screen,null,null,,,critical,t,c,d,240,164,164,240,237.1485,162.6685,spektor,0.02,w,240,164,164,240,237.1485,162.6685,39360,39360,38576.5967,td,null,null,null,null,null,null,"[1,3]",539.3690166,123.8506203,511.7489396
,canvas-keyboard-response,204,171060,0.0-6.0-2.28,584,,,,,rectangles no change,null,null,,,critical,t,c,d,240,164,164,240,237.1485,162.6685,spektor,0.02,w,240,164,164,240,237.1485,162.6685,39360,39360,38576.5967,td,null,null,null,null,null,null,"[1,3]",539.3690166,123.8506203,511.7489396
,canvas-keyboard-response,205,172398,0.0-6.0-3.28,584,,,,,rectangles with change,null,null,,,critical,t,c,d,240,164,164,240,237.1485,162.6685,spektor,0.02,w,240,164,164,240,237.1485,162.6685,39360,39360,38576.5967,td,null,null,null,null,null,null,"[1,3]",539.3690166,123.8506203,511.7489396
,canvas-keyboard-response,206,172420,0.0-6.0-4.28,584,,,,,clear_screen,null,null,,,critical,t,c,d,240,164,164,240,237.1485,162.6685,spektor,0.02,w,240,164,164,240,237.1485,162.6685,39360,39360,38576.5967,td,null,null,null,null,null,null,"[1,3]",539.3690166,123.8506203,511.7489396
,canvas-keyboard-response,207,173273,0.0-6.0-5.28,584,,,,,make choice,847,1,,,critical,t,c,d,240,164,164,240,237.1485,162.6685,spektor,0.02,w,240,164,164,240,237.1485,162.6685,39360,39360,38576.5967,td,null,null,null,null,null,null,"[1,3]",,,
,canvas-keyboard-response,208,173292,0.0-6.0-6.28,584,,,,,clear_screen,null,null,,,critical,t,c,d,240,164,164,240,237.1485,162.6685,spektor,0.02,w,240,164,164,240,237.1485,162.6685,39360,39360,38576.5967,td,null,null,null,null,null,null,"[1,3]",,,
,canvas-keyboard-response,209,173492,0.0-6.0-0.29,584,,,,,pre trial waiting period,null,null,,,catch,sh,sw,l,177,203,176,216,227,257,spektor,null,null,null,null,null,null,null,null,null,null,null,,180,200,260,200,36000,52000,"[1,3]",516.8272708,140.9543641,453.5627157
,canvas-keyboard-response,210,173512,0.0-6.0-1.29,584,,,,,clear_screen,null,null,,,catch,sh,sw,l,177,203,176,216,227,257,spektor,null,null,null,null,null,null,null,null,null,null,null,,180,200,260,200,36000,52000,"[1,3]",516.8272708,140.9543641,453.5627157
,canvas-keyboard-response,211,174018,0.0-6.0-2.29,584,,,,,rectangles no change,null,null,,,catch,sh,sw,l,177,203,176,216,227,257,spektor,null,null,null,null,null,null,null,null,null,null,null,,180,200,260,200,36000,52000,"[1,3]",516.8272708,140.9543641,453.5627157
,canvas-keyboard-response,212,175354,0.0-6.0-3.29,584,,,,,rectangles with change,null,null,,,catch,sh,sw,l,177,203,176,216,227,257,spektor,null,null,null,null,null,null,null,null,null,null,null,,180,200,260,200,36000,52000,"[1,3]",516.8272708,140.9543641,453.5627157
,canvas-keyboard-response,213,175375,0.0-6.0-4.29,584,,,,,clear_screen,null,null,,,catch,sh,sw,l,177,203,176,216,227,257,spektor,null,null,null,null,null,null,null,null,null,null,null,,180,200,260,200,36000,52000,"[1,3]",516.8272708,140.9543641,453.5627157
,canvas-keyboard-response,214,175913,0.0-6.0-5.29,584,,,,,make choice,532,3,,,catch,sh,sw,l,177,203,176,216,227,257,spektor,null,null,null,null,null,null,null,null,null,null,null,,180,200,260,200,36000,52000,"[1,3]",,,
,canvas-keyboard-response,215,175930,0.0-6.0-6.29,584,,,,,clear_screen,null,null,,,catch,sh,sw,l,177,203,176,216,227,257,spektor,null,null,null,null,null,null,null,null,null,null,null,,180,200,260,200,36000,52000,"[1,3]",,,
,canvas-keyboard-response,216,176131,0.0-6.0-0.30,584,,,,,pre trial waiting period,null,null,,,critical,c,t,d,164,240,240,164,227.1683,158.0083,trueblood,0.09,w,240,164,164,240,227.1683,158.0083,39360,39360,35894.4834,td,null,null,null,null,null,null,"[2,3]",424.5505175,506.2084824,474.6694424
,canvas-keyboard-response,217,176150,0.0-6.0-1.30,584,,,,,clear_screen,null,null,,,critical,c,t,d,164,240,240,164,227.1683,158.0083,trueblood,0.09,w,240,164,164,240,227.1683,158.0083,39360,39360,35894.4834,td,null,null,null,null,null,null,"[2,3]",424.5505175,506.2084824,474.6694424
,canvas-keyboard-response,218,176663,0.0-6.0-2.30,584,,,,,rectangles no change,null,null,,,critical,c,t,d,164,240,240,164,227.1683,158.0083,trueblood,0.09,w,240,164,164,240,227.1683,158.0083,39360,39360,35894.4834,td,null,null,null,null,null,null,"[2,3]",424.5505175,506.2084824,474.6694424
,canvas-keyboard-response,219,178001,0.0-6.0-3.30,584,,,,,rectangles with change,null,null,,,critical,c,t,d,164,240,240,164,227.1683,158.0083,trueblood,0.09,w,240,164,164,240,227.1683,158.0083,39360,39360,35894.4834,td,null,null,null,null,null,null,"[2,3]",424.5505175,506.2084824,474.6694424
,canvas-keyboard-response,220,178023,0.0-6.0-4.30,584,,,,,clear_screen,null,null,,,critical,c,t,d,164,240,240,164,227.1683,158.0083,trueblood,0.09,w,240,164,164,240,227.1683,158.0083,39360,39360,35894.4834,td,null,null,null,null,null,null,"[2,3]",424.5505175,506.2084824,474.6694424
,canvas-keyboard-response,221,178601,0.0-6.0-5.30,584,,,,,make choice,574,2,,,critical,c,t,d,164,240,240,164,227.1683,158.0083,trueblood,0.09,w,240,164,164,240,227.1683,158.0083,39360,39360,35894.4834,td,null,null,null,null,null,null,"[2,3]",,,
,canvas-keyboard-response,222,178620,0.0-6.0-6.30,584,,,,,clear_screen,null,null,,,critical,c,t,d,164,240,240,164,227.1683,158.0083,trueblood,0.09,w,240,164,164,240,227.1683,158.0083,39360,39360,35894.4834,td,null,null,null,null,null,null,"[2,3]",,,
,canvas-keyboard-response,223,178820,0.0-6.0-0.31,584,,,,,pre trial waiting period,null,null,,,catch,sh,sw,l,238,147,182,205,283,229,spektor,null,null,null,null,null,null,null,null,null,null,null,,180,200,260,200,36000,52000,"[1,3]",511.7659025,167.1944469,496.8430151
,canvas-keyboard-response,224,178844,0.0-6.0-1.31,584,,,,,clear_screen,null,null,,,catch,sh,sw,l,238,147,182,205,283,229,spektor,null,null,null,null,null,null,null,null,null,null,null,,180,200,260,200,36000,52000,"[1,3]",511.7659025,167.1944469,496.8430151
,canvas-keyboard-response,225,179349,0.0-6.0-2.31,584,,,,,rectangles no change,null,null,,,catch,sh,sw,l,238,147,182,205,283,229,spektor,null,null,null,null,null,null,null,null,null,null,null,,180,200,260,200,36000,52000,"[1,3]",511.7659025,167.1944469,496.8430151
,canvas-keyboard-response,226,180686,0.0-6.0-3.31,584,,,,,rectangles with change,null,null,,,catch,sh,sw,l,238,147,182,205,283,229,spektor,null,null,null,null,null,null,null,null,null,null,null,,180,200,260,200,36000,52000,"[1,3]",511.7659025,167.1944469,496.8430151
,canvas-keyboard-response,227,180704,0.0-6.0-4.31,584,,,,,clear_screen,null,null,,,catch,sh,sw,l,238,147,182,205,283,229,spektor,null,null,null,null,null,null,null,null,null,null,null,,180,200,260,200,36000,52000,"[1,3]",511.7659025,167.1944469,496.8430151
,canvas-keyboard-response,228,181417,0.0-6.0-5.31,584,,,,,make choice,705,3,,,catch,sh,sw,l,238,147,182,205,283,229,spektor,null,null,null,null,null,null,null,null,null,null,null,,180,200,260,200,36000,52000,"[1,3]",,,
,canvas-keyboard-response,229,181438,0.0-6.0-6.31,584,,,,,clear_screen,null,null,,,catch,sh,sw,l,238,147,182,205,283,229,spektor,null,null,null,null,null,null,null,null,null,null,null,,180,200,260,200,36000,52000,"[1,3]",,,
,canvas-keyboard-response,230,181639,0.0-6.0-0.32,584,,,,,pre trial waiting period,null,null,,,critical,t,d,c,164,240,158.0083,227.1683,240,164,spektor,0.09,h,164,240,240,164,158.0083,227.1683,39360,39360,35894.4834,td,null,null,null,null,null,null,"[1,2]",475.4586358,151.8644989,506.3033807
,canvas-keyboard-response,231,181659,0.0-6.0-1.32,584,,,,,clear_screen,null,null,,,critical,t,d,c,164,240,158.0083,227.1683,240,164,spektor,0.09,h,164,240,240,164,158.0083,227.1683,39360,39360,35894.4834,td,null,null,null,null,null,null,"[1,2]",475.4586358,151.8644989,506.3033807
,canvas-keyboard-response,232,182165,0.0-6.0-2.32,584,,,,,rectangles no change,null,null,,,critical,t,d,c,164,240,158.0083,227.1683,240,164,spektor,0.09,h,164,240,240,164,158.0083,227.1683,39360,39360,35894.4834,td,null,null,null,null,null,null,"[1,2]",475.4586358,151.8644989,506.3033807
,canvas-keyboard-response,233,183502,0.0-6.0-3.32,584,,,,,rectangles with change,null,null,,,critical,t,d,c,164,240,158.0083,227.1683,240,164,spektor,0.09,h,164,240,240,164,158.0083,227.1683,39360,39360,35894.4834,td,null,null,null,null,null,null,"[1,2]",475.4586358,151.8644989,506.3033807
,canvas-keyboard-response,234,183523,0.0-6.0-4.32,584,,,,,clear_screen,null,null,,,critical,t,d,c,164,240,158.0083,227.1683,240,164,spektor,0.09,h,164,240,240,164,158.0083,227.1683,39360,39360,35894.4834,td,null,null,null,null,null,null,"[1,2]",475.4586358,151.8644989,506.3033807
,canvas-keyboard-response,235,184887,0.0-6.0-5.32,584,,,,,make choice,1358,2,,,critical,t,d,c,164,240,158.0083,227.1683,240,164,spektor,0.09,h,164,240,240,164,158.0083,227.1683,39360,39360,35894.4834,td,null,null,null,null,null,null,"[1,2]",,,
,canvas-keyboard-response,236,184900,0.0-6.0-6.32,584,,,,,clear_screen,null,null,,,critical,t,d,c,164,240,158.0083,227.1683,240,164,spektor,0.09,h,164,240,240,164,158.0083,227.1683,39360,39360,35894.4834,td,null,null,null,null,null,null,"[1,2]",,,
,canvas-keyboard-response,237,185101,0.0-6.0-0.33,584,,,,,pre trial waiting period,null,null,,,catch,sh,sw,l,177,205,174,162,200,255,trueblood,null,null,null,null,null,null,null,null,null,null,null,,180,200,260,200,36000,52000,"[1,3]",443.2289507,479.2371487,412.6618218
,canvas-keyboard-response,238,185120,0.0-6.0-1.33,584,,,,,clear_screen,null,null,,,catch,sh,sw,l,177,205,174,162,200,255,trueblood,null,null,null,null,null,null,null,null,null,null,null,,180,200,260,200,36000,52000,"[1,3]",443.2289507,479.2371487,412.6618218
,canvas-keyboard-response,239,185628,0.0-6.0-2.33,584,,,,,rectangles no change,null,null,,,catch,sh,sw,l,177,205,174,162,200,255,trueblood,null,null,null,null,null,null,null,null,null,null,null,,180,200,260,200,36000,52000,"[1,3]",443.2289507,479.2371487,412.6618218
,canvas-keyboard-response,240,186963,0.0-6.0-3.33,584,,,,,rectangles with change,null,null,,,catch,sh,sw,l,177,205,174,162,200,255,trueblood,null,null,null,null,null,null,null,null,null,null,null,,180,200,260,200,36000,52000,"[1,3]",443.2289507,479.2371487,412.6618218
,canvas-keyboard-response,241,186983,0.0-6.0-4.33,584,,,,,clear_screen,null,null,,,catch,sh,sw,l,177,205,174,162,200,255,trueblood,null,null,null,null,null,null,null,null,null,null,null,,180,200,260,200,36000,52000,"[1,3]",443.2289507,479.2371487,412.6618218
,canvas-keyboard-response,242,187761,0.0-6.0-5.33,584,,,,,make choice,772,3,,,catch,sh,sw,l,177,205,174,162,200,255,trueblood,null,null,null,null,null,null,null,null,null,null,null,,180,200,260,200,36000,52000,"[1,3]",,,
,canvas-keyboard-response,243,187782,0.0-6.0-6.33,584,,,,,clear_screen,null,null,,,catch,sh,sw,l,177,205,174,162,200,255,trueblood,null,null,null,null,null,null,null,null,null,null,null,,180,200,260,200,36000,52000,"[1,3]",,,
,canvas-keyboard-response,244,187983,0.0-6.0-0.34,584,,,,,pre trial waiting period,null,null,,,critical,c,t,d,164,240,240,164,240,164,trueblood,0,w,240,164,164,240,240,164,39360,39360,39360,tc,null,null,null,null,null,null,"[2,1]",426.0333846,500.0738134,497.5082201
,canvas-keyboard-response,245,188005,0.0-6.0-1.34,584,,,,,clear_screen,null,null,,,critical,c,t,d,164,240,240,164,240,164,trueblood,0,w,240,164,164,240,240,164,39360,39360,39360,tc,null,null,null,null,null,null,"[2,1]",426.0333846,500.0738134,497.5082201
,canvas-keyboard-response,246,188511,0.0-6.0-2.34,584,,,,,rectangles no change,null,null,,,critical,c,t,d,164,240,240,164,240,164,trueblood,0,w,240,164,164,240,240,164,39360,39360,39360,tc,null,null,null,null,null,null,"[2,1]",426.0333846,500.0738134,497.5082201
,canvas-keyboard-response,247,189847,0.0-6.0-3.34,584,,,,,rectangles with change,null,null,,,critical,c,t,d,164,240,240,164,240,164,trueblood,0,w,240,164,164,240,240,164,39360,39360,39360,tc,null,null,null,null,null,null,"[2,1]",426.0333846,500.0738134,497.5082201
,canvas-keyboard-response,248,189868,0.0-6.0-4.34,584,,,,,clear_screen,null,null,,,critical,c,t,d,164,240,240,164,240,164,trueblood,0,w,240,164,164,240,240,164,39360,39360,39360,tc,null,null,null,null,null,null,"[2,1]",426.0333846,500.0738134,497.5082201
,canvas-keyboard-response,249,190608,0.0-6.0-5.34,584,,,,,make choice,736,2,,,critical,c,t,d,164,240,240,164,240,164,trueblood,0,w,240,164,164,240,240,164,39360,39360,39360,tc,null,null,null,null,null,null,"[2,1]",,,
,canvas-keyboard-response,250,190625,0.0-6.0-6.34,584,,,,,clear_screen,null,null,,,critical,c,t,d,164,240,240,164,240,164,trueblood,0,w,240,164,164,240,240,164,39360,39360,39360,tc,null,null,null,null,null,null,"[2,1]",,,
,canvas-keyboard-response,251,190826,0.0-6.0-0.35,584,,,,,pre trial waiting period,null,null,,,critical,c,t,d,240,164,164,240,154.6796,220.0396,trueblood,0.14,h,164,240,240,164,154.6796,220.0396,39360,39360,34035.6388,tc,null,null,null,null,null,null,"[2,1]",485.7416724,438.6510647,464.2799823
,canvas-keyboard-response,252,190849,0.0-6.0-1.35,584,,,,,clear_screen,null,null,,,critical,c,t,d,240,164,164,240,154.6796,220.0396,trueblood,0.14,h,164,240,240,164,154.6796,220.0396,39360,39360,34035.6388,tc,null,null,null,null,null,null,"[2,1]",485.7416724,438.6510647,464.2799823
,canvas-keyboard-response,253,191356,0.0-6.0-2.35,584,,,,,rectangles no change,null,null,,,critical,c,t,d,240,164,164,240,154.6796,220.0396,trueblood,0.14,h,164,240,240,164,154.6796,220.0396,39360,39360,34035.6388,tc,null,null,null,null,null,null,"[2,1]",485.7416724,438.6510647,464.2799823
,canvas-keyboard-response,254,192690,0.0-6.0-3.35,584,,,,,rectangles with change,null,null,,,critical,c,t,d,240,164,164,240,154.6796,220.0396,trueblood,0.14,h,164,240,240,164,154.6796,220.0396,39360,39360,34035.6388,tc,null,null,null,null,null,null,"[2,1]",485.7416724,438.6510647,464.2799823
,canvas-keyboard-response,255,192708,0.0-6.0-4.35,584,,,,,clear_screen,null,null,,,critical,c,t,d,240,164,164,240,154.6796,220.0396,trueblood,0.14,h,164,240,240,164,154.6796,220.0396,39360,39360,34035.6388,tc,null,null,null,null,null,null,"[2,1]",485.7416724,438.6510647,464.2799823
,canvas-keyboard-response,256,193513,0.0-6.0-5.35,584,,,,,make choice,796,1,,,critical,c,t,d,240,164,164,240,154.6796,220.0396,trueblood,0.14,h,164,240,240,164,154.6796,220.0396,39360,39360,34035.6388,tc,null,null,null,null,null,null,"[2,1]",,,
,canvas-keyboard-response,257,193532,0.0-6.0-6.35,584,,,,,clear_screen,null,null,,,critical,c,t,d,240,164,164,240,154.6796,220.0396,trueblood,0.14,h,164,240,240,164,154.6796,220.0396,39360,39360,34035.6388,tc,null,null,null,null,null,null,"[2,1]",,,
,canvas-keyboard-response,258,193732,0.0-6.0-0.36,584,,,,,pre trial waiting period,null,null,,,catch,sw,sh,l,180,200,194,188,293,222,spektor,null,null,null,null,null,null,null,null,null,null,null,,180,200,260,200,36000,52000,"[1,3]",490.0264754,145.2197313,503.3915345
,canvas-keyboard-response,259,193752,0.0-6.0-1.36,584,,,,,clear_screen,null,null,,,catch,sw,sh,l,180,200,194,188,293,222,spektor,null,null,null,null,null,null,null,null,null,null,null,,180,200,260,200,36000,52000,"[1,3]",490.0264754,145.2197313,503.3915345
,canvas-keyboard-response,260,194256,0.0-6.0-2.36,584,,,,,rectangles no change,null,null,,,catch,sw,sh,l,180,200,194,188,293,222,spektor,null,null,null,null,null,null,null,null,null,null,null,,180,200,260,200,36000,52000,"[1,3]",490.0264754,145.2197313,503.3915345
,canvas-keyboard-response,261,195594,0.0-6.0-3.36,584,,,,,rectangles with change,null,null,,,catch,sw,sh,l,180,200,194,188,293,222,spektor,null,null,null,null,null,null,null,null,null,null,null,,180,200,260,200,36000,52000,"[1,3]",490.0264754,145.2197313,503.3915345
,canvas-keyboard-response,262,195613,0.0-6.0-4.36,584,,,,,clear_screen,null,null,,,catch,sw,sh,l,180,200,194,188,293,222,spektor,null,null,null,null,null,null,null,null,null,null,null,,180,200,260,200,36000,52000,"[1,3]",490.0264754,145.2197313,503.3915345
,canvas-keyboard-response,263,196072,0.0-6.0-5.36,584,,,,,make choice,456,3,,,catch,sw,sh,l,180,200,194,188,293,222,spektor,null,null,null,null,null,null,null,null,null,null,null,,180,200,260,200,36000,52000,"[1,3]",,,
,canvas-keyboard-response,264,196094,0.0-6.0-6.36,584,,,,,clear_screen,null,null,,,catch,sw,sh,l,180,200,194,188,293,222,spektor,null,null,null,null,null,null,null,null,null,null,null,,180,200,260,200,36000,52000,"[1,3]",,,
,canvas-keyboard-response,265,196295,0.0-6.0-0.37,584,,,,,pre trial waiting period,null,null,,,critical,t,c,d,164,240,240,164,160.6713,232.8713,trueblood,0.05,h,164,240,240,164,160.6713,232.8713,39360,39360,37415.7294,td,null,null,null,null,null,null,"[1,3]",452.8317403,509.3566133,463.3905906
,canvas-keyboard-response,266,196314,0.0-6.0-1.37,584,,,,,clear_screen,null,null,,,critical,t,c,d,164,240,240,164,160.6713,232.8713,trueblood,0.05,h,164,240,240,164,160.6713,232.8713,39360,39360,37415.7294,td,null,null,null,null,null,null,"[1,3]",452.8317403,509.3566133,463.3905906
,canvas-keyboard-response,267,196823,0.0-6.0-2.37,584,,,,,rectangles no change,null,null,,,critical,t,c,d,164,240,240,164,160.6713,232.8713,trueblood,0.05,h,164,240,240,164,160.6713,232.8713,39360,39360,37415.7294,td,null,null,null,null,null,null,"[1,3]",452.8317403,509.3566133,463.3905906
,canvas-keyboard-response,268,198161,0.0-6.0-3.37,584,,,,,rectangles with change,null,null,,,critical,t,c,d,164,240,240,164,160.6713,232.8713,trueblood,0.05,h,164,240,240,164,160.6713,232.8713,39360,39360,37415.7294,td,null,null,null,null,null,null,"[1,3]",452.8317403,509.3566133,463.3905906
,canvas-keyboard-response,269,198179,0.0-6.0-4.37,584,,,,,clear_screen,null,null,,,critical,t,c,d,164,240,240,164,160.6713,232.8713,trueblood,0.05,h,164,240,240,164,160.6713,232.8713,39360,39360,37415.7294,td,null,null,null,null,null,null,"[1,3]",452.8317403,509.3566133,463.3905906
,canvas-keyboard-response,270,198896,0.0-6.0-5.37,584,,,,,make choice,711,1,,,critical,t,c,d,164,240,240,164,160.6713,232.8713,trueblood,0.05,h,164,240,240,164,160.6713,232.8713,39360,39360,37415.7294,td,null,null,null,null,null,null,"[1,3]",,,
,canvas-keyboard-response,271,198915,0.0-6.0-6.37,584,,,,,clear_screen,null,null,,,critical,t,c,d,164,240,240,164,160.6713,232.8713,trueblood,0.05,h,164,240,240,164,160.6713,232.8713,39360,39360,37415.7294,td,null,null,null,null,null,null,"[1,3]",,,
,canvas-keyboard-response,272,199116,0.0-6.0-0.38,584,,,,,pre trial waiting period,null,null,,,critical,c,d,t,164,240,232.8713,160.6713,240,164,spektor,0.05,w,240,164,164,240,232.8713,160.6713,39360,39360,37415.7294,tc,null,null,null,null,null,null,"[3,1]",484.9205694,205.7377064,516.5309996
,canvas-keyboard-response,273,199134,0.0-6.0-1.38,584,,,,,clear_screen,null,null,,,critical,c,d,t,164,240,232.8713,160.6713,240,164,spektor,0.05,w,240,164,164,240,232.8713,160.6713,39360,39360,37415.7294,tc,null,null,null,null,null,null,"[3,1]",484.9205694,205.7377064,516.5309996
,canvas-keyboard-response,274,199641,0.0-6.0-2.38,584,,,,,rectangles no change,null,null,,,critical,c,d,t,164,240,232.8713,160.6713,240,164,spektor,0.05,w,240,164,164,240,232.8713,160.6713,39360,39360,37415.7294,tc,null,null,null,null,null,null,"[3,1]",484.9205694,205.7377064,516.5309996
,canvas-keyboard-response,275,200977,0.0-6.0-3.38,584,,,,,rectangles with change,null,null,,,critical,c,d,t,164,240,232.8713,160.6713,240,164,spektor,0.05,w,240,164,164,240,232.8713,160.6713,39360,39360,37415.7294,tc,null,null,null,null,null,null,"[3,1]",484.9205694,205.7377064,516.5309996
,canvas-keyboard-response,276,200996,0.0-6.0-4.38,584,,,,,clear_screen,null,null,,,critical,c,d,t,164,240,232.8713,160.6713,240,164,spektor,0.05,w,240,164,164,240,232.8713,160.6713,39360,39360,37415.7294,tc,null,null,null,null,null,null,"[3,1]",484.9205694,205.7377064,516.5309996
,canvas-keyboard-response,277,202368,0.0-6.0-5.38,584,,,,,make choice,1366,3,,,critical,c,d,t,164,240,232.8713,160.6713,240,164,spektor,0.05,w,240,164,164,240,232.8713,160.6713,39360,39360,37415.7294,tc,null,null,null,null,null,null,"[3,1]",,,
,canvas-keyboard-response,278,202387,0.0-6.0-6.38,584,,,,,clear_screen,null,null,,,critical,c,d,t,164,240,232.8713,160.6713,240,164,spektor,0.05,w,240,164,164,240,232.8713,160.6713,39360,39360,37415.7294,tc,null,null,null,null,null,null,"[3,1]",,,
,canvas-keyboard-response,279,202588,0.0-6.0-0.39,584,,,,,pre trial waiting period,null,null,,,critical,c,t,d,164,240,240,164,227.1683,158.0083,trueblood,0.09,w,240,164,164,240,227.1683,158.0083,39360,39360,35894.4834,dc,null,null,null,null,null,null,"[3,1]",448.1591313,468.4167089,496.2554766
,canvas-keyboard-response,280,202608,0.0-6.0-1.39,584,,,,,clear_screen,null,null,,,critical,c,t,d,164,240,240,164,227.1683,158.0083,trueblood,0.09,w,240,164,164,240,227.1683,158.0083,39360,39360,35894.4834,dc,null,null,null,null,null,null,"[3,1]",448.1591313,468.4167089,496.2554766
,canvas-keyboard-response,281,203116,0.0-6.0-2.39,584,,,,,rectangles no change,null,null,,,critical,c,t,d,164,240,240,164,227.1683,158.0083,trueblood,0.09,w,240,164,164,240,227.1683,158.0083,39360,39360,35894.4834,dc,null,null,null,null,null,null,"[3,1]",448.1591313,468.4167089,496.2554766
,canvas-keyboard-response,282,204449,0.0-6.0-3.39,584,,,,,rectangles with change,null,null,,,critical,c,t,d,164,240,240,164,227.1683,158.0083,trueblood,0.09,w,240,164,164,240,227.1683,158.0083,39360,39360,35894.4834,dc,null,null,null,null,null,null,"[3,1]",448.1591313,468.4167089,496.2554766
,canvas-keyboard-response,283,204468,0.0-6.0-4.39,584,,,,,clear_screen,null,null,,,critical,c,t,d,164,240,240,164,227.1683,158.0083,trueblood,0.09,w,240,164,164,240,227.1683,158.0083,39360,39360,35894.4834,dc,null,null,null,null,null,null,"[3,1]",448.1591313,468.4167089,496.2554766
,canvas-keyboard-response,284,205304,0.0-6.0-5.39,584,,,,,make choice,831,1,,,critical,c,t,d,164,240,240,164,227.1683,158.0083,trueblood,0.09,w,240,164,164,240,227.1683,158.0083,39360,39360,35894.4834,dc,null,null,null,null,null,null,"[3,1]",,,
,canvas-keyboard-response,285,205322,0.0-6.0-6.39,584,,,,,clear_screen,null,null,,,critical,c,t,d,164,240,240,164,227.1683,158.0083,trueblood,0.09,w,240,164,164,240,227.1683,158.0083,39360,39360,35894.4834,dc,null,null,null,null,null,null,"[3,1]",,,
,canvas-keyboard-response,286,205523,0.0-6.0-0.40,584,,,,,pre trial waiting period,null,null,,,critical,t,d,c,164,240,160.6713,232.8713,240,164,spektor,0.05,h,164,240,240,164,160.6713,232.8713,39360,39360,37415.7294,td,null,null,null,null,null,null,"[1,2]",491.8241721,102.8219409,535.1680304
,canvas-keyboard-response,287,205543,0.0-6.0-1.40,584,,,,,clear_screen,null,null,,,critical,t,d,c,164,240,160.6713,232.8713,240,164,spektor,0.05,h,164,240,240,164,160.6713,232.8713,39360,39360,37415.7294,td,null,null,null,null,null,null,"[1,2]",491.8241721,102.8219409,535.1680304
,canvas-keyboard-response,288,206052,0.0-6.0-2.40,584,,,,,rectangles no change,null,null,,,critical,t,d,c,164,240,160.6713,232.8713,240,164,spektor,0.05,h,164,240,240,164,160.6713,232.8713,39360,39360,37415.7294,td,null,null,null,null,null,null,"[1,2]",491.8241721,102.8219409,535.1680304
,canvas-keyboard-response,289,207389,0.0-6.0-3.40,584,,,,,rectangles with change,null,null,,,critical,t,d,c,164,240,160.6713,232.8713,240,164,spektor,0.05,h,164,240,240,164,160.6713,232.8713,39360,39360,37415.7294,td,null,null,null,null,null,null,"[1,2]",491.8241721,102.8219409,535.1680304
,canvas-keyboard-response,290,207409,0.0-6.0-4.40,584,,,,,clear_screen,null,null,,,critical,t,d,c,164,240,160.6713,232.8713,240,164,spektor,0.05,h,164,240,240,164,160.6713,232.8713,39360,39360,37415.7294,td,null,null,null,null,null,null,"[1,2]",491.8241721,102.8219409,535.1680304
,canvas-keyboard-response,291,208456,0.0-6.0-5.40,584,,,,,make choice,1042,2,,,critical,t,d,c,164,240,160.6713,232.8713,240,164,spektor,0.05,h,164,240,240,164,160.6713,232.8713,39360,39360,37415.7294,td,null,null,null,null,null,null,"[1,2]",,,
,canvas-keyboard-response,292,208474,0.0-6.0-6.40,584,,,,,clear_screen,null,null,,,critical,t,d,c,164,240,160.6713,232.8713,240,164,spektor,0.05,h,164,240,240,164,160.6713,232.8713,39360,39360,37415.7294,td,null,null,null,null,null,null,"[1,2]",,,
,canvas-keyboard-response,293,208675,0.0-6.0-0.41,584,,,,,pre trial waiting period,null,null,,,critical,d,t,c,162.6685,237.1485,164,240,240,164,trueblood,0.02,h,164,240,240,164,162.6685,237.1485,39360,39360,38576.5967,td,null,null,null,null,null,null,"[2,1]",463.9578946,447.7435259,474.0558653
,canvas-keyboard-response,294,208698,0.0-6.0-1.41,584,,,,,clear_screen,null,null,,,critical,d,t,c,162.6685,237.1485,164,240,240,164,trueblood,0.02,h,164,240,240,164,162.6685,237.1485,39360,39360,38576.5967,td,null,null,null,null,null,null,"[2,1]",463.9578946,447.7435259,474.0558653
,canvas-keyboard-response,295,209205,0.0-6.0-2.41,584,,,,,rectangles no change,null,null,,,critical,d,t,c,162.6685,237.1485,164,240,240,164,trueblood,0.02,h,164,240,240,164,162.6685,237.1485,39360,39360,38576.5967,td,null,null,null,null,null,null,"[2,1]",463.9578946,447.7435259,474.0558653
,canvas-keyboard-response,296,210540,0.0-6.0-3.41,584,,,,,rectangles with change,null,null,,,critical,d,t,c,162.6685,237.1485,164,240,240,164,trueblood,0.02,h,164,240,240,164,162.6685,237.1485,39360,39360,38576.5967,td,null,null,null,null,null,null,"[2,1]",463.9578946,447.7435259,474.0558653
,canvas-keyboard-response,297,210559,0.0-6.0-4.41,584,,,,,clear_screen,null,null,,,critical,d,t,c,162.6685,237.1485,164,240,240,164,trueblood,0.02,h,164,240,240,164,162.6685,237.1485,39360,39360,38576.5967,td,null,null,null,null,null,null,"[2,1]",463.9578946,447.7435259,474.0558653
,canvas-keyboard-response,298,210936,0.0-6.0-5.41,584,,,,,make choice,373,2,,,critical,d,t,c,162.6685,237.1485,164,240,240,164,trueblood,0.02,h,164,240,240,164,162.6685,237.1485,39360,39360,38576.5967,td,null,null,null,null,null,null,"[2,1]",,,
,canvas-keyboard-response,299,210953,0.0-6.0-6.41,584,,,,,clear_screen,null,null,,,critical,d,t,c,162.6685,237.1485,164,240,240,164,trueblood,0.02,h,164,240,240,164,162.6685,237.1485,39360,39360,38576.5967,td,null,null,null,null,null,null,"[2,1]",,,
,canvas-keyboard-response,300,211155,0.0-6.0-0.42,584,,,,,pre trial waiting period,null,null,,,critical,d,t,c,164,240,164,240,240,164,trueblood,0,h,164,240,240,164,164,240,39360,39360,39360,td,null,null,null,null,null,null,"[2,1]",428.9032811,439.8580033,517.3868857
,canvas-keyboard-response,301,211178,0.0-6.0-1.42,584,,,,,clear_screen,null,null,,,critical,d,t,c,164,240,164,240,240,164,trueblood,0,h,164,240,240,164,164,240,39360,39360,39360,td,null,null,null,null,null,null,"[2,1]",428.9032811,439.8580033,517.3868857
,canvas-keyboard-response,302,211686,0.0-6.0-2.42,584,,,,,rectangles no change,null,null,,,critical,d,t,c,164,240,164,240,240,164,trueblood,0,h,164,240,240,164,164,240,39360,39360,39360,td,null,null,null,null,null,null,"[2,1]",428.9032811,439.8580033,517.3868857
,canvas-keyboard-response,303,213023,0.0-6.0-3.42,584,,,,,rectangles with change,null,null,,,critical,d,t,c,164,240,164,240,240,164,trueblood,0,h,164,240,240,164,164,240,39360,39360,39360,td,null,null,null,null,null,null,"[2,1]",428.9032811,439.8580033,517.3868857
,canvas-keyboard-response,304,213043,0.0-6.0-4.42,584,,,,,clear_screen,null,null,,,critical,d,t,c,164,240,164,240,240,164,trueblood,0,h,164,240,240,164,164,240,39360,39360,39360,td,null,null,null,null,null,null,"[2,1]",428.9032811,439.8580033,517.3868857
,canvas-keyboard-response,305,213344,0.0-6.0-5.42,584,,,,,make choice,296,1,,,critical,d,t,c,164,240,164,240,240,164,trueblood,0,h,164,240,240,164,164,240,39360,39360,39360,td,null,null,null,null,null,null,"[2,1]",,,
,canvas-keyboard-response,306,213363,0.0-6.0-6.42,584,,,,,clear_screen,null,null,,,critical,d,t,c,164,240,164,240,240,164,trueblood,0,h,164,240,240,164,164,240,39360,39360,39360,td,null,null,null,null,null,null,"[2,1]",,,
,canvas-keyboard-response,307,213563,0.0-6.0-0.43,584,,,,,pre trial waiting period,null,null,,,critical,c,t,d,240,164,164,240,160.6713,232.8713,spektor,0.05,h,164,240,240,164,160.6713,232.8713,39360,39360,37415.7294,dc,null,null,null,null,null,null,"[3,1]",532.3244613,132.3067038,492.906462
,canvas-keyboard-response,308,213587,0.0-6.0-1.43,584,,,,,clear_screen,null,null,,,critical,c,t,d,240,164,164,240,160.6713,232.8713,spektor,0.05,h,164,240,240,164,160.6713,232.8713,39360,39360,37415.7294,dc,null,null,null,null,null,null,"[3,1]",532.3244613,132.3067038,492.906462
,canvas-keyboard-response,309,214093,0.0-6.0-2.43,584,,,,,rectangles no change,null,null,,,critical,c,t,d,240,164,164,240,160.6713,232.8713,spektor,0.05,h,164,240,240,164,160.6713,232.8713,39360,39360,37415.7294,dc,null,null,null,null,null,null,"[3,1]",532.3244613,132.3067038,492.906462
,canvas-keyboard-response,310,215428,0.0-6.0-3.43,584,,,,,rectangles with change,null,null,,,critical,c,t,d,240,164,164,240,160.6713,232.8713,spektor,0.05,h,164,240,240,164,160.6713,232.8713,39360,39360,37415.7294,dc,null,null,null,null,null,null,"[3,1]",532.3244613,132.3067038,492.906462
,canvas-keyboard-response,311,215447,0.0-6.0-4.43,584,,,,,clear_screen,null,null,,,critical,c,t,d,240,164,164,240,160.6713,232.8713,spektor,0.05,h,164,240,240,164,160.6713,232.8713,39360,39360,37415.7294,dc,null,null,null,null,null,null,"[3,1]",532.3244613,132.3067038,492.906462
,canvas-keyboard-response,312,215599,0.0-6.0-5.43,584,,,,,make choice,147,3,,,critical,c,t,d,240,164,164,240,160.6713,232.8713,spektor,0.05,h,164,240,240,164,160.6713,232.8713,39360,39360,37415.7294,dc,null,null,null,null,null,null,"[3,1]",,,
,canvas-keyboard-response,313,215619,0.0-6.0-6.43,584,,,,,clear_screen,null,null,,,critical,c,t,d,240,164,164,240,160.6713,232.8713,spektor,0.05,h,164,240,240,164,160.6713,232.8713,39360,39360,37415.7294,dc,null,null,null,null,null,null,"[3,1]",,,
,canvas-keyboard-response,314,215820,0.0-6.0-0.44,584,,,,,pre trial waiting period,null,null,,,catch,sw,sh,l,180,200,188,204,248,193,spektor,null,null,null,null,null,null,null,null,null,null,null,,180,200,260,200,36000,52000,"[2,3]",497.6093348,157.8396188,492.2076129
,canvas-keyboard-response,315,215836,0.0-6.0-1.44,584,,,,,clear_screen,null,null,,,catch,sw,sh,l,180,200,188,204,248,193,spektor,null,null,null,null,null,null,null,null,null,null,null,,180,200,260,200,36000,52000,"[2,3]",497.6093348,157.8396188,492.2076129
,canvas-keyboard-response,316,216348,0.0-6.0-2.44,584,,,,,rectangles no change,null,null,,,catch,sw,sh,l,180,200,188,204,248,193,spektor,null,null,null,null,null,null,null,null,null,null,null,,180,200,260,200,36000,52000,"[2,3]",497.6093348,157.8396188,492.2076129
,canvas-keyboard-response,317,217687,0.0-6.0-3.44,584,,,,,rectangles with change,null,null,,,catch,sw,sh,l,180,200,188,204,248,193,spektor,null,null,null,null,null,null,null,null,null,null,null,,180,200,260,200,36000,52000,"[2,3]",497.6093348,157.8396188,492.2076129
,canvas-keyboard-response,318,217711,0.0-6.0-4.44,584,,,,,clear_screen,null,null,,,catch,sw,sh,l,180,200,188,204,248,193,spektor,null,null,null,null,null,null,null,null,null,null,null,,180,200,260,200,36000,52000,"[2,3]",497.6093348,157.8396188,492.2076129
,canvas-keyboard-response,319,218200,0.0-6.0-5.44,584,,,,,make choice,485,3,,,catch,sw,sh,l,180,200,188,204,248,193,spektor,null,null,null,null,null,null,null,null,null,null,null,,180,200,260,200,36000,52000,"[2,3]",,,
,canvas-keyboard-response,320,218222,0.0-6.0-6.44,584,,,,,clear_screen,null,null,,,catch,sw,sh,l,180,200,188,204,248,193,spektor,null,null,null,null,null,null,null,null,null,null,null,,180,200,260,200,36000,52000,"[2,3]",,,
,canvas-keyboard-response,321,218423,0.0-6.0-0.45,584,,,,,pre trial waiting period,null,null,,,critical,d,t,c,240,164,240,164,164,240,spektor,0,w,240,164,164,240,240,164,39360,39360,39360,dc,null,null,null,null,null,null,"[1,3]",510.1779201,208.9009248,470.3751113
,canvas-keyboard-response,322,218443,0.0-6.0-1.45,584,,,,,clear_screen,null,null,,,critical,d,t,c,240,164,240,164,164,240,spektor,0,w,240,164,164,240,240,164,39360,39360,39360,dc,null,null,null,null,null,null,"[1,3]",510.1779201,208.9009248,470.3751113
,canvas-keyboard-response,323,218949,0.0-6.0-2.45,584,,,,,rectangles no change,null,null,,,critical,d,t,c,240,164,240,164,164,240,spektor,0,w,240,164,164,240,240,164,39360,39360,39360,dc,null,null,null,null,null,null,"[1,3]",510.1779201,208.9009248,470.3751113
,canvas-keyboard-response,324,220290,0.0-6.0-3.45,584,,,,,rectangles with change,null,null,,,critical,d,t,c,240,164,240,164,164,240,spektor,0,w,240,164,164,240,240,164,39360,39360,39360,dc,null,null,null,null,null,null,"[1,3]",510.1779201,208.9009248,470.3751113
,canvas-keyboard-response,325,220313,0.0-6.0-4.45,584,,,,,clear_screen,null,null,,,critical,d,t,c,240,164,240,164,164,240,spektor,0,w,240,164,164,240,240,164,39360,39360,39360,dc,null,null,null,null,null,null,"[1,3]",510.1779201,208.9009248,470.3751113
,canvas-keyboard-response,326,220761,0.0-6.0-5.45,584,,,,,make choice,441,1,,,critical,d,t,c,240,164,240,164,164,240,spektor,0,w,240,164,164,240,240,164,39360,39360,39360,dc,null,null,null,null,null,null,"[1,3]",,,
,canvas-keyboard-response,327,220779,0.0-6.0-6.45,584,,,,,clear_screen,null,null,,,critical,d,t,c,240,164,240,164,164,240,spektor,0,w,240,164,164,240,240,164,39360,39360,39360,dc,null,null,null,null,null,null,"[1,3]",,,
,canvas-keyboard-response,328,220980,0.0-6.0-0.46,584,,,,,pre trial waiting period,null,null,,,critical,c,d,t,164,240,237.1485,162.6685,240,164,trueblood,0.02,w,240,164,164,240,237.1485,162.6685,39360,39360,38576.5967,td,null,null,null,null,null,null,"[3,2]",444.5461753,516.8495043,482.0033784
,canvas-keyboard-response,329,221002,0.0-6.0-1.46,584,,,,,clear_screen,null,null,,,critical,c,d,t,164,240,237.1485,162.6685,240,164,trueblood,0.02,w,240,164,164,240,237.1485,162.6685,39360,39360,38576.5967,td,null,null,null,null,null,null,"[3,2]",444.5461753,516.8495043,482.0033784
,canvas-keyboard-response,330,221511,0.0-6.0-2.46,584,,,,,rectangles no change,null,null,,,critical,c,d,t,164,240,237.1485,162.6685,240,164,trueblood,0.02,w,240,164,164,240,237.1485,162.6685,39360,39360,38576.5967,td,null,null,null,null,null,null,"[3,2]",444.5461753,516.8495043,482.0033784
,canvas-keyboard-response,331,222845,0.0-6.0-3.46,584,,,,,rectangles with change,null,null,,,critical,c,d,t,164,240,237.1485,162.6685,240,164,trueblood,0.02,w,240,164,164,240,237.1485,162.6685,39360,39360,38576.5967,td,null,null,null,null,null,null,"[3,2]",444.5461753,516.8495043,482.0033784
,canvas-keyboard-response,332,222864,0.0-6.0-4.46,584,,,,,clear_screen,null,null,,,critical,c,d,t,164,240,237.1485,162.6685,240,164,trueblood,0.02,w,240,164,164,240,237.1485,162.6685,39360,39360,38576.5967,td,null,null,null,null,null,null,"[3,2]",444.5461753,516.8495043,482.0033784
,canvas-keyboard-response,333,223568,0.0-6.0-5.46,584,,,,,make choice,696,2,,,critical,c,d,t,164,240,237.1485,162.6685,240,164,trueblood,0.02,w,240,164,164,240,237.1485,162.6685,39360,39360,38576.5967,td,null,null,null,null,null,null,"[3,2]",,,
,canvas-keyboard-response,334,223586,0.0-6.0-6.46,584,,,,,clear_screen,null,null,,,critical,c,d,t,164,240,237.1485,162.6685,240,164,trueblood,0.02,w,240,164,164,240,237.1485,162.6685,39360,39360,38576.5967,td,null,null,null,null,null,null,"[3,2]",,,
,canvas-keyboard-response,335,223787,0.0-6.0-0.47,584,,,,,pre trial waiting period,null,null,,,critical,c,t,d,240,164,164,240,164,240,spektor,0,h,164,240,240,164,164,240,39360,39360,39360,dc,null,null,null,null,null,null,"[3,1]",504.5659651,133.1148938,504.6356903
,canvas-keyboard-response,336,223808,0.0-6.0-1.47,584,,,,,clear_screen,null,null,,,critical,c,t,d,240,164,164,240,164,240,spektor,0,h,164,240,240,164,164,240,39360,39360,39360,dc,null,null,null,null,null,null,"[3,1]",504.5659651,133.1148938,504.6356903
,canvas-keyboard-response,337,224315,0.0-6.0-2.47,584,,,,,rectangles no change,null,null,,,critical,c,t,d,240,164,164,240,164,240,spektor,0,h,164,240,240,164,164,240,39360,39360,39360,dc,null,null,null,null,null,null,"[3,1]",504.5659651,133.1148938,504.6356903
,canvas-keyboard-response,338,225655,0.0-6.0-3.47,584,,,,,rectangles with change,null,null,,,critical,c,t,d,240,164,164,240,164,240,spektor,0,h,164,240,240,164,164,240,39360,39360,39360,dc,null,null,null,null,null,null,"[3,1]",504.5659651,133.1148938,504.6356903
,canvas-keyboard-response,339,225674,0.0-6.0-4.47,584,,,,,clear_screen,null,null,,,critical,c,t,d,240,164,164,240,164,240,spektor,0,h,164,240,240,164,164,240,39360,39360,39360,dc,null,null,null,null,null,null,"[3,1]",504.5659651,133.1148938,504.6356903
,canvas-keyboard-response,340,226201,0.0-6.0-5.47,584,,,,,make choice,521,3,,,critical,c,t,d,240,164,164,240,164,240,spektor,0,h,164,240,240,164,164,240,39360,39360,39360,dc,null,null,null,null,null,null,"[3,1]",,,
,canvas-keyboard-response,341,226218,0.0-6.0-6.47,584,,,,,clear_screen,null,null,,,critical,c,t,d,240,164,164,240,164,240,spektor,0,h,164,240,240,164,164,240,39360,39360,39360,dc,null,null,null,null,null,null,"[3,1]",,,
,canvas-keyboard-response,342,226420,0.0-6.0-0.48,584,,,,,pre trial waiting period,null,null,,,catch,sw,l,sh,180,200,201,292,191,140,trueblood,null,null,null,null,null,null,null,null,null,null,null,,180,200,260,200,36000,52000,"[2,3]",483.9367854,430.2436847,485.1587749
,canvas-keyboard-response,343,226443,0.0-6.0-1.48,584,,,,,clear_screen,null,null,,,catch,sw,l,sh,180,200,201,292,191,140,trueblood,null,null,null,null,null,null,null,null,null,null,null,,180,200,260,200,36000,52000,"[2,3]",483.9367854,430.2436847,485.1587749
,canvas-keyboard-response,344,226957,0.0-6.0-2.48,584,,,,,rectangles no change,null,null,,,catch,sw,l,sh,180,200,201,292,191,140,trueblood,null,null,null,null,null,null,null,null,null,null,null,,180,200,260,200,36000,52000,"[2,3]",483.9367854,430.2436847,485.1587749
,canvas-keyboard-response,345,228297,0.0-6.0-3.48,584,,,,,rectangles with change,null,null,,,catch,sw,l,sh,180,200,201,292,191,140,trueblood,null,null,null,null,null,null,null,null,null,null,null,,180,200,260,200,36000,52000,"[2,3]",483.9367854,430.2436847,485.1587749
,canvas-keyboard-response,346,228321,0.0-6.0-4.48,584,,,,,clear_screen,null,null,,,catch,sw,l,sh,180,200,201,292,191,140,trueblood,null,null,null,null,null,null,null,null,null,null,null,,180,200,260,200,36000,52000,"[2,3]",483.9367854,430.2436847,485.1587749
,canvas-keyboard-response,347,228649,0.0-6.0-5.48,584,,,,,make choice,323,2,,,catch,sw,l,sh,180,200,201,292,191,140,trueblood,null,null,null,null,null,null,null,null,null,null,null,,180,200,260,200,36000,52000,"[2,3]",,,
,canvas-keyboard-response,348,228668,0.0-6.0-6.48,584,,,,,clear_screen,null,null,,,catch,sw,l,sh,180,200,201,292,191,140,trueblood,null,null,null,null,null,null,null,null,null,null,null,,180,200,260,200,36000,52000,"[2,3]",,,
,canvas-keyboard-response,349,228869,0.0-6.0-0.49,584,,,,,pre trial waiting period,null,null,,,critical,c,t,d,240,164,164,240,154.6796,220.0396,spektor,0.14,h,164,240,240,164,154.6796,220.0396,39360,39360,34035.6388,td,null,null,null,null,null,null,"[2,3]",508.0954529,101.0853623,483.2079249
,canvas-keyboard-response,350,228889,0.0-6.0-1.49,584,,,,,clear_screen,null,null,,,critical,c,t,d,240,164,164,240,154.6796,220.0396,spektor,0.14,h,164,240,240,164,154.6796,220.0396,39360,39360,34035.6388,td,null,null,null,null,null,null,"[2,3]",508.0954529,101.0853623,483.2079249
,canvas-keyboard-response,351,229398,0.0-6.0-2.49,584,,,,,rectangles no change,null,null,,,critical,c,t,d,240,164,164,240,154.6796,220.0396,spektor,0.14,h,164,240,240,164,154.6796,220.0396,39360,39360,34035.6388,td,null,null,null,null,null,null,"[2,3]",508.0954529,101.0853623,483.2079249
,canvas-keyboard-response,352,230733,0.0-6.0-3.49,584,,,,,rectangles with change,null,null,,,critical,c,t,d,240,164,164,240,154.6796,220.0396,spektor,0.14,h,164,240,240,164,154.6796,220.0396,39360,39360,34035.6388,td,null,null,null,null,null,null,"[2,3]",508.0954529,101.0853623,483.2079249
,canvas-keyboard-response,353,230756,0.0-6.0-4.49,584,,,,,clear_screen,null,null,,,critical,c,t,d,240,164,164,240,154.6796,220.0396,spektor,0.14,h,164,240,240,164,154.6796,220.0396,39360,39360,34035.6388,td,null,null,null,null,null,null,"[2,3]",508.0954529,101.0853623,483.2079249
,canvas-keyboard-response,354,231968,0.0-6.0-5.49,584,,,,,make choice,1206,2,,,critical,c,t,d,240,164,164,240,154.6796,220.0396,spektor,0.14,h,164,240,240,164,154.6796,220.0396,39360,39360,34035.6388,td,null,null,null,null,null,null,"[2,3]",,,
,canvas-keyboard-response,355,231989,0.0-6.0-6.49,584,,,,,clear_screen,null,null,,,critical,c,t,d,240,164,164,240,154.6796,220.0396,spektor,0.14,h,164,240,240,164,154.6796,220.0396,39360,39360,34035.6388,td,null,null,null,null,null,null,"[2,3]",,,
,canvas-keyboard-response,356,232191,0.0-6.0-0.50,584,,,,,pre trial waiting period,null,null,,,critical,d,t,c,220.0396,154.6796,240,164,164,240,trueblood,0.14,w,240,164,164,240,220.0396,154.6796,39360,39360,34035.6388,dc,null,null,null,null,null,null,"[1,3]",490.7412713,469.5796595,420.0080879
,canvas-keyboard-response,357,232211,0.0-6.0-1.50,584,,,,,clear_screen,null,null,,,critical,d,t,c,220.0396,154.6796,240,164,164,240,trueblood,0.14,w,240,164,164,240,220.0396,154.6796,39360,39360,34035.6388,dc,null,null,null,null,null,null,"[1,3]",490.7412713,469.5796595,420.0080879
,canvas-keyboard-response,358,232718,0.0-6.0-2.50,584,,,,,rectangles no change,null,null,,,critical,d,t,c,220.0396,154.6796,240,164,164,240,trueblood,0.14,w,240,164,164,240,220.0396,154.6796,39360,39360,34035.6388,dc,null,null,null,null,null,null,"[1,3]",490.7412713,469.5796595,420.0080879
,canvas-keyboard-response,359,234055,0.0-6.0-3.50,584,,,,,rectangles with change,null,null,,,critical,d,t,c,220.0396,154.6796,240,164,164,240,trueblood,0.14,w,240,164,164,240,220.0396,154.6796,39360,39360,34035.6388,dc,null,null,null,null,null,null,"[1,3]",490.7412713,469.5796595,420.0080879
,canvas-keyboard-response,360,234074,0.0-6.0-4.50,584,,,,,clear_screen,null,null,,,critical,d,t,c,220.0396,154.6796,240,164,164,240,trueblood,0.14,w,240,164,164,240,220.0396,154.6796,39360,39360,34035.6388,dc,null,null,null,null,null,null,"[1,3]",490.7412713,469.5796595,420.0080879
,canvas-keyboard-response,361,234313,0.0-6.0-5.50,584,,,,,make choice,233,1,,,critical,d,t,c,220.0396,154.6796,240,164,164,240,trueblood,0.14,w,240,164,164,240,220.0396,154.6796,39360,39360,34035.6388,dc,null,null,null,null,null,null,"[1,3]",,,
,canvas-keyboard-response,362,234330,0.0-6.0-6.50,584,,,,,clear_screen,null,null,,,critical,d,t,c,220.0396,154.6796,240,164,164,240,trueblood,0.14,w,240,164,164,240,220.0396,154.6796,39360,39360,34035.6388,dc,null,null,null,null,null,null,"[1,3]",,,
,canvas-keyboard-response,363,234532,0.0-6.0-0.51,584,,,,,pre trial waiting period,null,null,,,critical,d,t,c,158.0083,227.1683,164,240,240,164,trueblood,0.09,h,164,240,240,164,158.0083,227.1683,39360,39360,35894.4834,tc,null,null,null,null,null,null,"[2,3]",427.9294406,447.0381362,493.2864638
,canvas-keyboard-response,364,234551,0.0-6.0-1.51,584,,,,,clear_screen,null,null,,,critical,d,t,c,158.0083,227.1683,164,240,240,164,trueblood,0.09,h,164,240,240,164,158.0083,227.1683,39360,39360,35894.4834,tc,null,null,null,null,null,null,"[2,3]",427.9294406,447.0381362,493.2864638
,canvas-keyboard-response,365,235056,0.0-6.0-2.51,584,,,,,rectangles no change,null,null,,,critical,d,t,c,158.0083,227.1683,164,240,240,164,trueblood,0.09,h,164,240,240,164,158.0083,227.1683,39360,39360,35894.4834,tc,null,null,null,null,null,null,"[2,3]",427.9294406,447.0381362,493.2864638
,canvas-keyboard-response,366,236393,0.0-6.0-3.51,584,,,,,rectangles with change,null,null,,,critical,d,t,c,158.0083,227.1683,164,240,240,164,trueblood,0.09,h,164,240,240,164,158.0083,227.1683,39360,39360,35894.4834,tc,null,null,null,null,null,null,"[2,3]",427.9294406,447.0381362,493.2864638
,canvas-keyboard-response,367,236415,0.0-6.0-4.51,584,,,,,clear_screen,null,null,,,critical,d,t,c,158.0083,227.1683,164,240,240,164,trueblood,0.09,h,164,240,240,164,158.0083,227.1683,39360,39360,35894.4834,tc,null,null,null,null,null,null,"[2,3]",427.9294406,447.0381362,493.2864638
,canvas-keyboard-response,368,236848,0.0-6.0-5.51,584,,,,,make choice,424,2,,,critical,d,t,c,158.0083,227.1683,164,240,240,164,trueblood,0.09,h,164,240,240,164,158.0083,227.1683,39360,39360,35894.4834,tc,null,null,null,null,null,null,"[2,3]",,,
,canvas-keyboard-response,369,236868,0.0-6.0-6.51,584,,,,,clear_screen,null,null,,,critical,d,t,c,158.0083,227.1683,164,240,240,164,trueblood,0.09,h,164,240,240,164,158.0083,227.1683,39360,39360,35894.4834,tc,null,null,null,null,null,null,"[2,3]",,,
,canvas-keyboard-response,370,237069,0.0-6.0-0.52,584,,,,,pre trial waiting period,null,null,,,catch,sh,l,sw,164,166,175,283,148,237,trueblood,null,null,null,null,null,null,null,null,null,null,null,,180,200,260,200,36000,52000,"[2,3]",484.637199,395.77548,463.3907203
,canvas-keyboard-response,371,237089,0.0-6.0-1.52,584,,,,,clear_screen,null,null,,,catch,sh,l,sw,164,166,175,283,148,237,trueblood,null,null,null,null,null,null,null,null,null,null,null,,180,200,260,200,36000,52000,"[2,3]",484.637199,395.77548,463.3907203
,canvas-keyboard-response,372,237597,0.0-6.0-2.52,584,,,,,rectangles no change,null,null,,,catch,sh,l,sw,164,166,175,283,148,237,trueblood,null,null,null,null,null,null,null,null,null,null,null,,180,200,260,200,36000,52000,"[2,3]",484.637199,395.77548,463.3907203
,canvas-keyboard-response,373,238932,0.0-6.0-3.52,584,,,,,rectangles with change,null,null,,,catch,sh,l,sw,164,166,175,283,148,237,trueblood,null,null,null,null,null,null,null,null,null,null,null,,180,200,260,200,36000,52000,"[2,3]",484.637199,395.77548,463.3907203
,canvas-keyboard-response,374,238953,0.0-6.0-4.52,584,,,,,clear_screen,null,null,,,catch,sh,l,sw,164,166,175,283,148,237,trueblood,null,null,null,null,null,null,null,null,null,null,null,,180,200,260,200,36000,52000,"[2,3]",484.637199,395.77548,463.3907203
