"success","trial_type","trial_index","time_elapsed","internal_node_id","run_id","condition","recorded_at","source_code_version","ip","user_agent","device","browser","browser_version","platform","platform_version","sub_n","rt","response","screen_id","stimulus","view_history","trial","r1","r2","r3","w1","h1","w2","h2","w3","h3","display","tdd","tdo","tw","th","cw","ch","dw","dh","ta","ca","da","probe","csls","csss","clls","clss","sa","la","probe_rects"
"true","fullscreen","0","4081","0.0-0.0","4","1","2022-10-30 15:48:49","9287328b6538abcab06ee41daf2c5e0a","","Mozilla/5.0 (Macintosh; Intel Mac OS X 10_15_7) AppleWebKit/537.36 (KHTML, like Gecko) Chrome/106.0.0.0 Safari/537.36","Macintosh","Chrome","106.0.0.0","OS X","10_15_7","sean","","","","","","","","","","","","","","","","","","","","","","","","","","","","","","","","","","",""
"","survey-html-form","1","89187","0.0-1.0","4","1","2022-10-30 15:48:49","9287328b6538abcab06ee41daf2c5e0a","","Mozilla/5.0 (Macintosh; Intel Mac OS X 10_15_7) AppleWebKit/537.36 (KHTML, like Gecko) Chrome/106.0.0.0 Safari/537.36","Macintosh","Chrome","106.0.0.0","OS X","10_15_7","sean","85098","{""response"":""sean""}","enter-sub-number","","","","","","","","","","","","","","","","","","","","","","","","","","","","","","","",""
"","html-button-response","2","90508","0.0-2.0","4","1","2022-10-30 15:48:49","9287328b6538abcab06ee41daf2c5e0a","","Mozilla/5.0 (Macintosh; Intel Mac OS X 10_15_7) AppleWebKit/537.36 (KHTML, like Gecko) Chrome/106.0.0.0 Safari/537.36","Macintosh","Chrome","106.0.0.0","OS X","10_15_7","sean","1318","0","intro mssg","<div style= ""font-size:25px;"" <p> <strong> Welcome to the experiment! </strong><br> <p style=""color:#8B0000; font-size:25px;""><strong> Please do NOT exit full screen until you are done with the experiment. </strong> </p><p style=""font-size:25px;color:#8B0000;""> <strong> The experiment will be canceled and your data will be lost <br> if you try to go back or refresh the page at any point during the experiment.</strong> </p><br><p> <strong> Thanks in advance for your contribution to our research! </strong></p>","","","","","","","","","","","","","","","","","","","","","","","","","","","","","","",""
"","instructions","3","96367","0.0-3.0","4","1","2022-10-30 15:48:49","9287328b6538abcab06ee41daf2c5e0a","","Mozilla/5.0 (Macintosh; Intel Mac OS X 10_15_7) AppleWebKit/537.36 (KHTML, like Gecko) Chrome/106.0.0.0 Safari/537.36","Macintosh","Chrome","106.0.0.0","OS X","10_15_7","sean","5858","","instructions","","[{""page_index"":0,""viewing_time"":1840},{""page_index"":1,""viewing_time"":664},{""page_index"":2,""viewing_time"":958},{""page_index"":3,""viewing_time"":807},{""page_index"":4,""viewing_time"":639},{""page_index"":5,""viewing_time"":460},{""page_index"":6,""viewing_time"":490}]","","","","","","","","","","","","","","","","","","","","","","","","","","","","","",""
"","canvas-keyboard-response","4","96572","0.0-4.0-0.0","4","1","2022-10-30 15:48:49","9287328b6538abcab06ee41daf2c5e0a","","Mozilla/5.0 (Macintosh; Intel Mac OS X 10_15_7) AppleWebKit/537.36 (KHTML, like Gecko) Chrome/106.0.0.0 Safari/537.36","Macintosh","Chrome","106.0.0.0","OS X","10_15_7","sean","null","null","pre trial waiting period","","","catch","l","sh","sw","283","203","234","159","179","207","trueblood","null","null","null","null","null","null","null","null","null","null","null","","180","200","260","200","36000","52000","[1,2]"
"","canvas-keyboard-response","5","96734","0.0-4.0-1.0","4","1","2022-10-30 15:48:49","9287328b6538abcab06ee41daf2c5e0a","","Mozilla/5.0 (Macintosh; Intel Mac OS X 10_15_7) AppleWebKit/537.36 (KHTML, like Gecko) Chrome/106.0.0.0 Safari/537.36","Macintosh","Chrome","106.0.0.0","OS X","10_15_7","sean","null","null","clear_screen","","","catch","l","sh","sw","283","203","234","159","179","207","trueblood","null","null","null","null","null","null","null","null","null","null","null","","180","200","260","200","36000","52000","[1,2]"
"","canvas-keyboard-response","6","98041","0.0-4.0-2.0","4","1","2022-10-30 15:48:49","9287328b6538abcab06ee41daf2c5e0a","","Mozilla/5.0 (Macintosh; Intel Mac OS X 10_15_7) AppleWebKit/537.36 (KHTML, like Gecko) Chrome/106.0.0.0 Safari/537.36","Macintosh","Chrome","106.0.0.0","OS X","10_15_7","sean","null","null","rectangles","","","catch","l","sh","sw","283","203","234","159","179","207","trueblood","null","null","null","null","null","null","null","null","null","null","null","","180","200","260","200","36000","52000","[1,2]"
"","canvas-keyboard-response","7","98196","0.0-4.0-3.0","4","1","2022-10-30 15:48:49","9287328b6538abcab06ee41daf2c5e0a","","Mozilla/5.0 (Macintosh; Intel Mac OS X 10_15_7) AppleWebKit/537.36 (KHTML, like Gecko) Chrome/106.0.0.0 Safari/537.36","Macintosh","Chrome","106.0.0.0","OS X","10_15_7","sean","null","null","clear_screen","","","catch","l","sh","sw","283","203","234","159","179","207","trueblood","null","null","null","null","null","null","null","null","null","null","null","","180","200","260","200","36000","52000","[1,2]"
"","canvas-keyboard-response","8","99044","0.0-4.0-4.0","4","1","2022-10-30 15:48:49","9287328b6538abcab06ee41daf2c5e0a","","Mozilla/5.0 (Macintosh; Intel Mac OS X 10_15_7) AppleWebKit/537.36 (KHTML, like Gecko) Chrome/106.0.0.0 Safari/537.36","Macintosh","Chrome","106.0.0.0","OS X","10_15_7","sean","845","2","make choice","","","catch","l","sh","sw","283","203","234","159","179","207","trueblood","null","null","null","null","null","null","null","null","null","null","null","","180","200","260","200","36000","52000","[1,2]"
"","canvas-keyboard-response","9","99200","0.0-4.0-5.0","4","1","2022-10-30 15:48:49","9287328b6538abcab06ee41daf2c5e0a","","Mozilla/5.0 (Macintosh; Intel Mac OS X 10_15_7) AppleWebKit/537.36 (KHTML, like Gecko) Chrome/106.0.0.0 Safari/537.36","Macintosh","Chrome","106.0.0.0","OS X","10_15_7","sean","null","null","clear_screen","","","catch","l","sh","sw","283","203","234","159","179","207","trueblood","null","null","null","null","null","null","null","null","null","null","null","","180","200","260","200","36000","52000","[1,2]"
"","canvas-keyboard-response","10","99404","0.0-4.0-0.1","4","1","2022-10-30 15:48:49","9287328b6538abcab06ee41daf2c5e0a","","Mozilla/5.0 (Macintosh; Intel Mac OS X 10_15_7) AppleWebKit/537.36 (KHTML, like Gecko) Chrome/106.0.0.0 Safari/537.36","Macintosh","Chrome","106.0.0.0","OS X","10_15_7","sean","null","null","pre trial waiting period","","","critical","d","t","c","227.1683","158.0083","240","164","164","240","spektor","0.09","w","240","164","164","240","227.1683","158.0083","39360","39360","35894.4834","td","null","null","null","null","null","null","[2,1]"
"","canvas-keyboard-response","11","99557","0.0-4.0-1.1","4","1","2022-10-30 15:48:49","9287328b6538abcab06ee41daf2c5e0a","","Mozilla/5.0 (Macintosh; Intel Mac OS X 10_15_7) AppleWebKit/537.36 (KHTML, like Gecko) Chrome/106.0.0.0 Safari/537.36","Macintosh","Chrome","106.0.0.0","OS X","10_15_7","sean","null","null","clear_screen","","","critical","d","t","c","227.1683","158.0083","240","164","164","240","spektor","0.09","w","240","164","164","240","227.1683","158.0083","39360","39360","35894.4834","td","null","null","null","null","null","null","[2,1]"
"","canvas-keyboard-response","12","100871","0.0-4.0-2.1","4","1","2022-10-30 15:48:49","9287328b6538abcab06ee41daf2c5e0a","","Mozilla/5.0 (Macintosh; Intel Mac OS X 10_15_7) AppleWebKit/537.36 (KHTML, like Gecko) Chrome/106.0.0.0 Safari/537.36","Macintosh","Chrome","106.0.0.0","OS X","10_15_7","sean","null","null","rectangles","","","critical","d","t","c","227.1683","158.0083","240","164","164","240","spektor","0.09","w","240","164","164","240","227.1683","158.0083","39360","39360","35894.4834","td","null","null","null","null","null","null","[2,1]"
"","canvas-keyboard-response","13","101028","0.0-4.0-3.1","4","1","2022-10-30 15:48:49","9287328b6538abcab06ee41daf2c5e0a","","Mozilla/5.0 (Macintosh; Intel Mac OS X 10_15_7) AppleWebKit/537.36 (KHTML, like Gecko) Chrome/106.0.0.0 Safari/537.36","Macintosh","Chrome","106.0.0.0","OS X","10_15_7","sean","null","null","clear_screen","","","critical","d","t","c","227.1683","158.0083","240","164","164","240","spektor","0.09","w","240","164","164","240","227.1683","158.0083","39360","39360","35894.4834","td","null","null","null","null","null","null","[2,1]"
"","canvas-keyboard-response","14","104606","0.0-4.0-4.1","4","1","2022-10-30 15:48:49","9287328b6538abcab06ee41daf2c5e0a","","Mozilla/5.0 (Macintosh; Intel Mac OS X 10_15_7) AppleWebKit/537.36 (KHTML, like Gecko) Chrome/106.0.0.0 Safari/537.36","Macintosh","Chrome","106.0.0.0","OS X","10_15_7","sean","3576","2","make choice","","","critical","d","t","c","227.1683","158.0083","240","164","164","240","spektor","0.09","w","240","164","164","240","227.1683","158.0083","39360","39360","35894.4834","td","null","null","null","null","null","null","[2,1]"
"","canvas-keyboard-response","15","104758","0.0-4.0-5.1","4","1","2022-10-30 15:48:49","9287328b6538abcab06ee41daf2c5e0a","","Mozilla/5.0 (Macintosh; Intel Mac OS X 10_15_7) AppleWebKit/537.36 (KHTML, like Gecko) Chrome/106.0.0.0 Safari/537.36","Macintosh","Chrome","106.0.0.0","OS X","10_15_7","sean","null","null","clear_screen","","","critical","d","t","c","227.1683","158.0083","240","164","164","240","spektor","0.09","w","240","164","164","240","227.1683","158.0083","39360","39360","35894.4834","td","null","null","null","null","null","null","[2,1]"
"","canvas-keyboard-response","16","104960","0.0-4.0-0.2","4","1","2022-10-30 15:48:49","9287328b6538abcab06ee41daf2c5e0a","","Mozilla/5.0 (Macintosh; Intel Mac OS X 10_15_7) AppleWebKit/537.36 (KHTML, like Gecko) Chrome/106.0.0.0 Safari/537.36","Macintosh","Chrome","106.0.0.0","OS X","10_15_7","sean","null","null","pre trial waiting period","","","critical","t","d","c","164","240","162.6685","237.1485","240","164","spektor","0.02","h","164","240","240","164","162.6685","237.1485","39360","39360","38576.5967","tc","null","null","null","null","null","null","[1,3]"
"","canvas-keyboard-response","17","105121","0.0-4.0-1.2","4","1","2022-10-30 15:48:49","9287328b6538abcab06ee41daf2c5e0a","","Mozilla/5.0 (Macintosh; Intel Mac OS X 10_15_7) AppleWebKit/537.36 (KHTML, like Gecko) Chrome/106.0.0.0 Safari/537.36","Macintosh","Chrome","106.0.0.0","OS X","10_15_7","sean","null","null","clear_screen","","","critical","t","d","c","164","240","162.6685","237.1485","240","164","spektor","0.02","h","164","240","240","164","162.6685","237.1485","39360","39360","38576.5967","tc","null","null","null","null","null","null","[1,3]"
"","canvas-keyboard-response","18","106428","0.0-4.0-2.2","4","1","2022-10-30 15:48:49","9287328b6538abcab06ee41daf2c5e0a","","Mozilla/5.0 (Macintosh; Intel Mac OS X 10_15_7) AppleWebKit/537.36 (KHTML, like Gecko) Chrome/106.0.0.0 Safari/537.36","Macintosh","Chrome","106.0.0.0","OS X","10_15_7","sean","null","null","rectangles","","","critical","t","d","c","164","240","162.6685","237.1485","240","164","spektor","0.02","h","164","240","240","164","162.6685","237.1485","39360","39360","38576.5967","tc","null","null","null","null","null","null","[1,3]"
"","canvas-keyboard-response","19","106582","0.0-4.0-3.2","4","1","2022-10-30 15:48:49","9287328b6538abcab06ee41daf2c5e0a","","Mozilla/5.0 (Macintosh; Intel Mac OS X 10_15_7) AppleWebKit/537.36 (KHTML, like Gecko) Chrome/106.0.0.0 Safari/537.36","Macintosh","Chrome","106.0.0.0","OS X","10_15_7","sean","null","null","clear_screen","","","critical","t","d","c","164","240","162.6685","237.1485","240","164","spektor","0.02","h","164","240","240","164","162.6685","237.1485","39360","39360","38576.5967","tc","null","null","null","null","null","null","[1,3]"
"","canvas-keyboard-response","20","107285","0.0-4.0-4.2","4","1","2022-10-30 15:48:49","9287328b6538abcab06ee41daf2c5e0a","","Mozilla/5.0 (Macintosh; Intel Mac OS X 10_15_7) AppleWebKit/537.36 (KHTML, like Gecko) Chrome/106.0.0.0 Safari/537.36","Macintosh","Chrome","106.0.0.0","OS X","10_15_7","sean","701","3","make choice","","","critical","t","d","c","164","240","162.6685","237.1485","240","164","spektor","0.02","h","164","240","240","164","162.6685","237.1485","39360","39360","38576.5967","tc","null","null","null","null","null","null","[1,3]"
"","canvas-keyboard-response","21","107447","0.0-4.0-5.2","4","1","2022-10-30 15:48:49","9287328b6538abcab06ee41daf2c5e0a","","Mozilla/5.0 (Macintosh; Intel Mac OS X 10_15_7) AppleWebKit/537.36 (KHTML, like Gecko) Chrome/106.0.0.0 Safari/537.36","Macintosh","Chrome","106.0.0.0","OS X","10_15_7","sean","null","null","clear_screen","","","critical","t","d","c","164","240","162.6685","237.1485","240","164","spektor","0.02","h","164","240","240","164","162.6685","237.1485","39360","39360","38576.5967","tc","null","null","null","null","null","null","[1,3]"
"","canvas-keyboard-response","22","107649","0.0-4.0-0.3","4","1","2022-10-30 15:48:49","9287328b6538abcab06ee41daf2c5e0a","","Mozilla/5.0 (Macintosh; Intel Mac OS X 10_15_7) AppleWebKit/537.36 (KHTML, like Gecko) Chrome/106.0.0.0 Safari/537.36","Macintosh","Chrome","106.0.0.0","OS X","10_15_7","sean","null","null","pre trial waiting period","","","critical","d","c","t","160.6713","232.8713","240","164","164","240","spektor","0.05","h","164","240","240","164","160.6713","232.8713","39360","39360","37415.7294","tc","null","null","null","null","null","null","[3,2]"
"","canvas-keyboard-response","23","107801","0.0-4.0-1.3","4","1","2022-10-30 15:48:49","9287328b6538abcab06ee41daf2c5e0a","","Mozilla/5.0 (Macintosh; Intel Mac OS X 10_15_7) AppleWebKit/537.36 (KHTML, like Gecko) Chrome/106.0.0.0 Safari/537.36","Macintosh","Chrome","106.0.0.0","OS X","10_15_7","sean","null","null","clear_screen","","","critical","d","c","t","160.6713","232.8713","240","164","164","240","spektor","0.05","h","164","240","240","164","160.6713","232.8713","39360","39360","37415.7294","tc","null","null","null","null","null","null","[3,2]"
"","canvas-keyboard-response","24","109105","0.0-4.0-2.3","4","1","2022-10-30 15:48:49","9287328b6538abcab06ee41daf2c5e0a","","Mozilla/5.0 (Macintosh; Intel Mac OS X 10_15_7) AppleWebKit/537.36 (KHTML, like Gecko) Chrome/106.0.0.0 Safari/537.36","Macintosh","Chrome","106.0.0.0","OS X","10_15_7","sean","null","null","rectangles","","","critical","d","c","t","160.6713","232.8713","240","164","164","240","spektor","0.05","h","164","240","240","164","160.6713","232.8713","39360","39360","37415.7294","tc","null","null","null","null","null","null","[3,2]"
"","canvas-keyboard-response","25","109259","0.0-4.0-3.3","4","1","2022-10-30 15:48:49","9287328b6538abcab06ee41daf2c5e0a","","Mozilla/5.0 (Macintosh; Intel Mac OS X 10_15_7) AppleWebKit/537.36 (KHTML, like Gecko) Chrome/106.0.0.0 Safari/537.36","Macintosh","Chrome","106.0.0.0","OS X","10_15_7","sean","null","null","clear_screen","","","critical","d","c","t","160.6713","232.8713","240","164","164","240","spektor","0.05","h","164","240","240","164","160.6713","232.8713","39360","39360","37415.7294","tc","null","null","null","null","null","null","[3,2]"
"","canvas-keyboard-response","26","109971","0.0-4.0-4.3","4","1","2022-10-30 15:48:49","9287328b6538abcab06ee41daf2c5e0a","","Mozilla/5.0 (Macintosh; Intel Mac OS X 10_15_7) AppleWebKit/537.36 (KHTML, like Gecko) Chrome/106.0.0.0 Safari/537.36","Macintosh","Chrome","106.0.0.0","OS X","10_15_7","sean","709","2","make choice","","","critical","d","c","t","160.6713","232.8713","240","164","164","240","spektor","0.05","h","164","240","240","164","160.6713","232.8713","39360","39360","37415.7294","tc","null","null","null","null","null","null","[3,2]"
"","canvas-keyboard-response","27","110124","0.0-4.0-5.3","4","1","2022-10-30 15:48:49","9287328b6538abcab06ee41daf2c5e0a","","Mozilla/5.0 (Macintosh; Intel Mac OS X 10_15_7) AppleWebKit/537.36 (KHTML, like Gecko) Chrome/106.0.0.0 Safari/537.36","Macintosh","Chrome","106.0.0.0","OS X","10_15_7","sean","null","null","clear_screen","","","critical","d","c","t","160.6713","232.8713","240","164","164","240","spektor","0.05","h","164","240","240","164","160.6713","232.8713","39360","39360","37415.7294","tc","null","null","null","null","null","null","[3,2]"
"","canvas-keyboard-response","28","110328","0.0-4.0-0.4","4","1","2022-10-30 15:48:49","9287328b6538abcab06ee41daf2c5e0a","","Mozilla/5.0 (Macintosh; Intel Mac OS X 10_15_7) AppleWebKit/537.36 (KHTML, like Gecko) Chrome/106.0.0.0 Safari/537.36","Macintosh","Chrome","106.0.0.0","OS X","10_15_7","sean","null","null","pre trial waiting period","","","critical","d","c","t","164","240","240","164","164","240","trueblood","0","h","164","240","240","164","164","240","39360","39360","39360","tc","null","null","null","null","null","null","[3,2]"
"","canvas-keyboard-response","29","110482","0.0-4.0-1.4","4","1","2022-10-30 15:48:49","9287328b6538abcab06ee41daf2c5e0a","","Mozilla/5.0 (Macintosh; Intel Mac OS X 10_15_7) AppleWebKit/537.36 (KHTML, like Gecko) Chrome/106.0.0.0 Safari/537.36","Macintosh","Chrome","106.0.0.0","OS X","10_15_7","sean","null","null","clear_screen","","","critical","d","c","t","164","240","240","164","164","240","trueblood","0","h","164","240","240","164","164","240","39360","39360","39360","tc","null","null","null","null","null","null","[3,2]"
"","canvas-keyboard-response","30","111787","0.0-4.0-2.4","4","1","2022-10-30 15:48:49","9287328b6538abcab06ee41daf2c5e0a","","Mozilla/5.0 (Macintosh; Intel Mac OS X 10_15_7) AppleWebKit/537.36 (KHTML, like Gecko) Chrome/106.0.0.0 Safari/537.36","Macintosh","Chrome","106.0.0.0","OS X","10_15_7","sean","null","null","rectangles","","","critical","d","c","t","164","240","240","164","164","240","trueblood","0","h","164","240","240","164","164","240","39360","39360","39360","tc","null","null","null","null","null","null","[3,2]"
"","canvas-keyboard-response","31","111948","0.0-4.0-3.4","4","1","2022-10-30 15:48:49","9287328b6538abcab06ee41daf2c5e0a","","Mozilla/5.0 (Macintosh; Intel Mac OS X 10_15_7) AppleWebKit/537.36 (KHTML, like Gecko) Chrome/106.0.0.0 Safari/537.36","Macintosh","Chrome","106.0.0.0","OS X","10_15_7","sean","null","null","clear_screen","","","critical","d","c","t","164","240","240","164","164","240","trueblood","0","h","164","240","240","164","164","240","39360","39360","39360","tc","null","null","null","null","null","null","[3,2]"
"","canvas-keyboard-response","32","113422","0.0-4.0-4.4","4","1","2022-10-30 15:48:49","9287328b6538abcab06ee41daf2c5e0a","","Mozilla/5.0 (Macintosh; Intel Mac OS X 10_15_7) AppleWebKit/537.36 (KHTML, like Gecko) Chrome/106.0.0.0 Safari/537.36","Macintosh","Chrome","106.0.0.0","OS X","10_15_7","sean","1472","2","make choice","","","critical","d","c","t","164","240","240","164","164","240","trueblood","0","h","164","240","240","164","164","240","39360","39360","39360","tc","null","null","null","null","null","null","[3,2]"
"","canvas-keyboard-response","33","113576","0.0-4.0-5.4","4","1","2022-10-30 15:48:49","9287328b6538abcab06ee41daf2c5e0a","","Mozilla/5.0 (Macintosh; Intel Mac OS X 10_15_7) AppleWebKit/537.36 (KHTML, like Gecko) Chrome/106.0.0.0 Safari/537.36","Macintosh","Chrome","106.0.0.0","OS X","10_15_7","sean","null","null","clear_screen","","","critical","d","c","t","164","240","240","164","164","240","trueblood","0","h","164","240","240","164","164","240","39360","39360","39360","tc","null","null","null","null","null","null","[3,2]"
"","canvas-keyboard-response","34","113779","0.0-4.0-0.5","4","1","2022-10-30 15:48:49","9287328b6538abcab06ee41daf2c5e0a","","Mozilla/5.0 (Macintosh; Intel Mac OS X 10_15_7) AppleWebKit/537.36 (KHTML, like Gecko) Chrome/106.0.0.0 Safari/537.36","Macintosh","Chrome","106.0.0.0","OS X","10_15_7","sean","null","null","pre trial waiting period","","","critical","c","d","t","240","164","154.6796","220.0396","164","240","spektor","0.14","h","164","240","240","164","154.6796","220.0396","39360","39360","34035.6388","td","null","null","null","null","null","null","[3,2]"
"","canvas-keyboard-response","35","113934","0.0-4.0-1.5","4","1","2022-10-30 15:48:49","9287328b6538abcab06ee41daf2c5e0a","","Mozilla/5.0 (Macintosh; Intel Mac OS X 10_15_7) AppleWebKit/537.36 (KHTML, like Gecko) Chrome/106.0.0.0 Safari/537.36","Macintosh","Chrome","106.0.0.0","OS X","10_15_7","sean","null","null","clear_screen","","","critical","c","d","t","240","164","154.6796","220.0396","164","240","spektor","0.14","h","164","240","240","164","154.6796","220.0396","39360","39360","34035.6388","td","null","null","null","null","null","null","[3,2]"
"","canvas-keyboard-response","36","115247","0.0-4.0-2.5","4","1","2022-10-30 15:48:49","9287328b6538abcab06ee41daf2c5e0a","","Mozilla/5.0 (Macintosh; Intel Mac OS X 10_15_7) AppleWebKit/537.36 (KHTML, like Gecko) Chrome/106.0.0.0 Safari/537.36","Macintosh","Chrome","106.0.0.0","OS X","10_15_7","sean","null","null","rectangles","","","critical","c","d","t","240","164","154.6796","220.0396","164","240","spektor","0.14","h","164","240","240","164","154.6796","220.0396","39360","39360","34035.6388","td","null","null","null","null","null","null","[3,2]"
"","canvas-keyboard-response","37","115400","0.0-4.0-3.5","4","1","2022-10-30 15:48:49","9287328b6538abcab06ee41daf2c5e0a","","Mozilla/5.0 (Macintosh; Intel Mac OS X 10_15_7) AppleWebKit/537.36 (KHTML, like Gecko) Chrome/106.0.0.0 Safari/537.36","Macintosh","Chrome","106.0.0.0","OS X","10_15_7","sean","null","null","clear_screen","","","critical","c","d","t","240","164","154.6796","220.0396","164","240","spektor","0.14","h","164","240","240","164","154.6796","220.0396","39360","39360","34035.6388","td","null","null","null","null","null","null","[3,2]"
"","canvas-keyboard-response","38","116244","0.0-4.0-4.5","4","1","2022-10-30 15:48:49","9287328b6538abcab06ee41daf2c5e0a","","Mozilla/5.0 (Macintosh; Intel Mac OS X 10_15_7) AppleWebKit/537.36 (KHTML, like Gecko) Chrome/106.0.0.0 Safari/537.36","Macintosh","Chrome","106.0.0.0","OS X","10_15_7","sean","842","3","make choice","","","critical","c","d","t","240","164","154.6796","220.0396","164","240","spektor","0.14","h","164","240","240","164","154.6796","220.0396","39360","39360","34035.6388","td","null","null","null","null","null","null","[3,2]"
"","canvas-keyboard-response","39","116398","0.0-4.0-5.5","4","1","2022-10-30 15:48:49","9287328b6538abcab06ee41daf2c5e0a","","Mozilla/5.0 (Macintosh; Intel Mac OS X 10_15_7) AppleWebKit/537.36 (KHTML, like Gecko) Chrome/106.0.0.0 Safari/537.36","Macintosh","Chrome","106.0.0.0","OS X","10_15_7","sean","null","null","clear_screen","","","critical","c","d","t","240","164","154.6796","220.0396","164","240","spektor","0.14","h","164","240","240","164","154.6796","220.0396","39360","39360","34035.6388","td","null","null","null","null","null","null","[3,2]"
"","canvas-keyboard-response","40","116602","0.0-4.0-0.6","4","1","2022-10-30 15:48:49","9287328b6538abcab06ee41daf2c5e0a","","Mozilla/5.0 (Macintosh; Intel Mac OS X 10_15_7) AppleWebKit/537.36 (KHTML, like Gecko) Chrome/106.0.0.0 Safari/537.36","Macintosh","Chrome","106.0.0.0","OS X","10_15_7","sean","null","null","pre trial waiting period","","","critical","c","t","d","164","240","240","164","232.8713","160.6713","trueblood","0.05","w","240","164","164","240","232.8713","160.6713","39360","39360","37415.7294","td","null","null","null","null","null","null","[2,3]"
"","canvas-keyboard-response","41","116766","0.0-4.0-1.6","4","1","2022-10-30 15:48:49","9287328b6538abcab06ee41daf2c5e0a","","Mozilla/5.0 (Macintosh; Intel Mac OS X 10_15_7) AppleWebKit/537.36 (KHTML, like Gecko) Chrome/106.0.0.0 Safari/537.36","Macintosh","Chrome","106.0.0.0","OS X","10_15_7","sean","null","null","clear_screen","","","critical","c","t","d","164","240","240","164","232.8713","160.6713","trueblood","0.05","w","240","164","164","240","232.8713","160.6713","39360","39360","37415.7294","td","null","null","null","null","null","null","[2,3]"
"","canvas-keyboard-response","42","118073","0.0-4.0-2.6","4","1","2022-10-30 15:48:49","9287328b6538abcab06ee41daf2c5e0a","","Mozilla/5.0 (Macintosh; Intel Mac OS X 10_15_7) AppleWebKit/537.36 (KHTML, like Gecko) Chrome/106.0.0.0 Safari/537.36","Macintosh","Chrome","106.0.0.0","OS X","10_15_7","sean","null","null","rectangles","","","critical","c","t","d","164","240","240","164","232.8713","160.6713","trueblood","0.05","w","240","164","164","240","232.8713","160.6713","39360","39360","37415.7294","td","null","null","null","null","null","null","[2,3]"
"","canvas-keyboard-response","43","118227","0.0-4.0-3.6","4","1","2022-10-30 15:48:49","9287328b6538abcab06ee41daf2c5e0a","","Mozilla/5.0 (Macintosh; Intel Mac OS X 10_15_7) AppleWebKit/537.36 (KHTML, like Gecko) Chrome/106.0.0.0 Safari/537.36","Macintosh","Chrome","106.0.0.0","OS X","10_15_7","sean","null","null","clear_screen","","","critical","c","t","d","164","240","240","164","232.8713","160.6713","trueblood","0.05","w","240","164","164","240","232.8713","160.6713","39360","39360","37415.7294","td","null","null","null","null","null","null","[2,3]"
"","canvas-keyboard-response","44","118803","0.0-4.0-4.6","4","1","2022-10-30 15:48:49","9287328b6538abcab06ee41daf2c5e0a","","Mozilla/5.0 (Macintosh; Intel Mac OS X 10_15_7) AppleWebKit/537.36 (KHTML, like Gecko) Chrome/106.0.0.0 Safari/537.36","Macintosh","Chrome","106.0.0.0","OS X","10_15_7","sean","573","2","make choice","","","critical","c","t","d","164","240","240","164","232.8713","160.6713","trueblood","0.05","w","240","164","164","240","232.8713","160.6713","39360","39360","37415.7294","td","null","null","null","null","null","null","[2,3]"
"","canvas-keyboard-response","45","118964","0.0-4.0-5.6","4","1","2022-10-30 15:48:49","9287328b6538abcab06ee41daf2c5e0a","","Mozilla/5.0 (Macintosh; Intel Mac OS X 10_15_7) AppleWebKit/537.36 (KHTML, like Gecko) Chrome/106.0.0.0 Safari/537.36","Macintosh","Chrome","106.0.0.0","OS X","10_15_7","sean","null","null","clear_screen","","","critical","c","t","d","164","240","240","164","232.8713","160.6713","trueblood","0.05","w","240","164","164","240","232.8713","160.6713","39360","39360","37415.7294","td","null","null","null","null","null","null","[2,3]"
"","canvas-keyboard-response","46","119167","0.0-4.0-0.7","4","1","2022-10-30 15:48:49","9287328b6538abcab06ee41daf2c5e0a","","Mozilla/5.0 (Macintosh; Intel Mac OS X 10_15_7) AppleWebKit/537.36 (KHTML, like Gecko) Chrome/106.0.0.0 Safari/537.36","Macintosh","Chrome","106.0.0.0","OS X","10_15_7","sean","null","null","pre trial waiting period","","","critical","d","c","t","164","240","240","164","164","240","spektor","0","h","164","240","240","164","164","240","39360","39360","39360","tc","null","null","null","null","null","null","[3,2]"
"","canvas-keyboard-response","47","119320","0.0-4.0-1.7","4","1","2022-10-30 15:48:49","9287328b6538abcab06ee41daf2c5e0a","","Mozilla/5.0 (Macintosh; Intel Mac OS X 10_15_7) AppleWebKit/537.36 (KHTML, like Gecko) Chrome/106.0.0.0 Safari/537.36","Macintosh","Chrome","106.0.0.0","OS X","10_15_7","sean","null","null","clear_screen","","","critical","d","c","t","164","240","240","164","164","240","spektor","0","h","164","240","240","164","164","240","39360","39360","39360","tc","null","null","null","null","null","null","[3,2]"
"","canvas-keyboard-response","48","120624","0.0-4.0-2.7","4","1","2022-10-30 15:48:49","9287328b6538abcab06ee41daf2c5e0a","","Mozilla/5.0 (Macintosh; Intel Mac OS X 10_15_7) AppleWebKit/537.36 (KHTML, like Gecko) Chrome/106.0.0.0 Safari/537.36","Macintosh","Chrome","106.0.0.0","OS X","10_15_7","sean","null","null","rectangles","","","critical","d","c","t","164","240","240","164","164","240","spektor","0","h","164","240","240","164","164","240","39360","39360","39360","tc","null","null","null","null","null","null","[3,2]"
"","canvas-keyboard-response","49","120777","0.0-4.0-3.7","4","1","2022-10-30 15:48:49","9287328b6538abcab06ee41daf2c5e0a","","Mozilla/5.0 (Macintosh; Intel Mac OS X 10_15_7) AppleWebKit/537.36 (KHTML, like Gecko) Chrome/106.0.0.0 Safari/537.36","Macintosh","Chrome","106.0.0.0","OS X","10_15_7","sean","null","null","clear_screen","","","critical","d","c","t","164","240","240","164","164","240","spektor","0","h","164","240","240","164","164","240","39360","39360","39360","tc","null","null","null","null","null","null","[3,2]"
"","canvas-keyboard-response","50","121281","0.0-4.0-4.7","4","1","2022-10-30 15:48:49","9287328b6538abcab06ee41daf2c5e0a","","Mozilla/5.0 (Macintosh; Intel Mac OS X 10_15_7) AppleWebKit/537.36 (KHTML, like Gecko) Chrome/106.0.0.0 Safari/537.36","Macintosh","Chrome","106.0.0.0","OS X","10_15_7","sean","500","2","make choice","","","critical","d","c","t","164","240","240","164","164","240","spektor","0","h","164","240","240","164","164","240","39360","39360","39360","tc","null","null","null","null","null","null","[3,2]"
"","canvas-keyboard-response","51","121434","0.0-4.0-5.7","4","1","2022-10-30 15:48:49","9287328b6538abcab06ee41daf2c5e0a","","Mozilla/5.0 (Macintosh; Intel Mac OS X 10_15_7) AppleWebKit/537.36 (KHTML, like Gecko) Chrome/106.0.0.0 Safari/537.36","Macintosh","Chrome","106.0.0.0","OS X","10_15_7","sean","null","null","clear_screen","","","critical","d","c","t","164","240","240","164","164","240","spektor","0","h","164","240","240","164","164","240","39360","39360","39360","tc","null","null","null","null","null","null","[3,2]"
"","canvas-keyboard-response","52","121641","0.0-4.0-0.8","4","1","2022-10-30 15:48:49","9287328b6538abcab06ee41daf2c5e0a","","Mozilla/5.0 (Macintosh; Intel Mac OS X 10_15_7) AppleWebKit/537.36 (KHTML, like Gecko) Chrome/106.0.0.0 Safari/537.36","Macintosh","Chrome","106.0.0.0","OS X","10_15_7","sean","null","null","pre trial waiting period","","","critical","d","c","t","237.1485","162.6685","164","240","240","164","trueblood","0.02","w","240","164","164","240","237.1485","162.6685","39360","39360","38576.5967","td","null","null","null","null","null","null","[3,1]"
"","canvas-keyboard-response","53","121794","0.0-4.0-1.8","4","1","2022-10-30 15:48:49","9287328b6538abcab06ee41daf2c5e0a","","Mozilla/5.0 (Macintosh; Intel Mac OS X 10_15_7) AppleWebKit/537.36 (KHTML, like Gecko) Chrome/106.0.0.0 Safari/537.36","Macintosh","Chrome","106.0.0.0","OS X","10_15_7","sean","null","null","clear_screen","","","critical","d","c","t","237.1485","162.6685","164","240","240","164","trueblood","0.02","w","240","164","164","240","237.1485","162.6685","39360","39360","38576.5967","td","null","null","null","null","null","null","[3,1]"
"","canvas-keyboard-response","54","123098","0.0-4.0-2.8","4","1","2022-10-30 15:48:49","9287328b6538abcab06ee41daf2c5e0a","","Mozilla/5.0 (Macintosh; Intel Mac OS X 10_15_7) AppleWebKit/537.36 (KHTML, like Gecko) Chrome/106.0.0.0 Safari/537.36","Macintosh","Chrome","106.0.0.0","OS X","10_15_7","sean","null","null","rectangles","","","critical","d","c","t","237.1485","162.6685","164","240","240","164","trueblood","0.02","w","240","164","164","240","237.1485","162.6685","39360","39360","38576.5967","td","null","null","null","null","null","null","[3,1]"
"","canvas-keyboard-response","55","123258","0.0-4.0-3.8","4","1","2022-10-30 15:48:49","9287328b6538abcab06ee41daf2c5e0a","","Mozilla/5.0 (Macintosh; Intel Mac OS X 10_15_7) AppleWebKit/537.36 (KHTML, like Gecko) Chrome/106.0.0.0 Safari/537.36","Macintosh","Chrome","106.0.0.0","OS X","10_15_7","sean","null","null","clear_screen","","","critical","d","c","t","237.1485","162.6685","164","240","240","164","trueblood","0.02","w","240","164","164","240","237.1485","162.6685","39360","39360","38576.5967","td","null","null","null","null","null","null","[3,1]"
"","canvas-keyboard-response","56","123815","0.0-4.0-4.8","4","1","2022-10-30 15:48:49","9287328b6538abcab06ee41daf2c5e0a","","Mozilla/5.0 (Macintosh; Intel Mac OS X 10_15_7) AppleWebKit/537.36 (KHTML, like Gecko) Chrome/106.0.0.0 Safari/537.36","Macintosh","Chrome","106.0.0.0","OS X","10_15_7","sean","553","3","make choice","","","critical","d","c","t","237.1485","162.6685","164","240","240","164","trueblood","0.02","w","240","164","164","240","237.1485","162.6685","39360","39360","38576.5967","td","null","null","null","null","null","null","[3,1]"
"","canvas-keyboard-response","57","123969","0.0-4.0-5.8","4","1","2022-10-30 15:48:49","9287328b6538abcab06ee41daf2c5e0a","","Mozilla/5.0 (Macintosh; Intel Mac OS X 10_15_7) AppleWebKit/537.36 (KHTML, like Gecko) Chrome/106.0.0.0 Safari/537.36","Macintosh","Chrome","106.0.0.0","OS X","10_15_7","sean","null","null","clear_screen","","","critical","d","c","t","237.1485","162.6685","164","240","240","164","trueblood","0.02","w","240","164","164","240","237.1485","162.6685","39360","39360","38576.5967","td","null","null","null","null","null","null","[3,1]"
"","canvas-keyboard-response","58","124172","0.0-4.0-0.9","4","1","2022-10-30 15:48:49","9287328b6538abcab06ee41daf2c5e0a","","Mozilla/5.0 (Macintosh; Intel Mac OS X 10_15_7) AppleWebKit/537.36 (KHTML, like Gecko) Chrome/106.0.0.0 Safari/537.36","Macintosh","Chrome","106.0.0.0","OS X","10_15_7","sean","null","null","pre trial waiting period","","","critical","d","c","t","164","240","240","164","164","240","trueblood","0","h","164","240","240","164","164","240","39360","39360","39360","td","null","null","null","null","null","null","[3,1]"
"","canvas-keyboard-response","59","124326","0.0-4.0-1.9","4","1","2022-10-30 15:48:49","9287328b6538abcab06ee41daf2c5e0a","","Mozilla/5.0 (Macintosh; Intel Mac OS X 10_15_7) AppleWebKit/537.36 (KHTML, like Gecko) Chrome/106.0.0.0 Safari/537.36","Macintosh","Chrome","106.0.0.0","OS X","10_15_7","sean","null","null","clear_screen","","","critical","d","c","t","164","240","240","164","164","240","trueblood","0","h","164","240","240","164","164","240","39360","39360","39360","td","null","null","null","null","null","null","[3,1]"
"","canvas-keyboard-response","60","125641","0.0-4.0-2.9","4","1","2022-10-30 15:48:49","9287328b6538abcab06ee41daf2c5e0a","","Mozilla/5.0 (Macintosh; Intel Mac OS X 10_15_7) AppleWebKit/537.36 (KHTML, like Gecko) Chrome/106.0.0.0 Safari/537.36","Macintosh","Chrome","106.0.0.0","OS X","10_15_7","sean","null","null","rectangles","","","critical","d","c","t","164","240","240","164","164","240","trueblood","0","h","164","240","240","164","164","240","39360","39360","39360","td","null","null","null","null","null","null","[3,1]"
"","canvas-keyboard-response","61","125797","0.0-4.0-3.9","4","1","2022-10-30 15:48:49","9287328b6538abcab06ee41daf2c5e0a","","Mozilla/5.0 (Macintosh; Intel Mac OS X 10_15_7) AppleWebKit/537.36 (KHTML, like Gecko) Chrome/106.0.0.0 Safari/537.36","Macintosh","Chrome","106.0.0.0","OS X","10_15_7","sean","null","null","clear_screen","","","critical","d","c","t","164","240","240","164","164","240","trueblood","0","h","164","240","240","164","164","240","39360","39360","39360","td","null","null","null","null","null","null","[3,1]"
"","canvas-keyboard-response","62","127170","0.0-4.0-4.9","4","1","2022-10-30 15:48:49","9287328b6538abcab06ee41daf2c5e0a","","Mozilla/5.0 (Macintosh; Intel Mac OS X 10_15_7) AppleWebKit/537.36 (KHTML, like Gecko) Chrome/106.0.0.0 Safari/537.36","Macintosh","Chrome","106.0.0.0","OS X","10_15_7","sean","1370","3","make choice","","","critical","d","c","t","164","240","240","164","164","240","trueblood","0","h","164","240","240","164","164","240","39360","39360","39360","td","null","null","null","null","null","null","[3,1]"
"","canvas-keyboard-response","63","127326","0.0-4.0-5.9","4","1","2022-10-30 15:48:49","9287328b6538abcab06ee41daf2c5e0a","","Mozilla/5.0 (Macintosh; Intel Mac OS X 10_15_7) AppleWebKit/537.36 (KHTML, like Gecko) Chrome/106.0.0.0 Safari/537.36","Macintosh","Chrome","106.0.0.0","OS X","10_15_7","sean","null","null","clear_screen","","","critical","d","c","t","164","240","240","164","164","240","trueblood","0","h","164","240","240","164","164","240","39360","39360","39360","td","null","null","null","null","null","null","[3,1]"
"","canvas-keyboard-response","64","127529","0.0-4.0-0.10","4","1","2022-10-30 15:48:49","9287328b6538abcab06ee41daf2c5e0a","","Mozilla/5.0 (Macintosh; Intel Mac OS X 10_15_7) AppleWebKit/537.36 (KHTML, like Gecko) Chrome/106.0.0.0 Safari/537.36","Macintosh","Chrome","106.0.0.0","OS X","10_15_7","sean","null","null","pre trial waiting period","","","critical","t","c","d","240","164","164","240","240","164","trueblood","0","w","240","164","164","240","240","164","39360","39360","39360","dc","null","null","null","null","null","null","[3,2]"
"","canvas-keyboard-response","65","127695","0.0-4.0-1.10","4","1","2022-10-30 15:48:49","9287328b6538abcab06ee41daf2c5e0a","","Mozilla/5.0 (Macintosh; Intel Mac OS X 10_15_7) AppleWebKit/537.36 (KHTML, like Gecko) Chrome/106.0.0.0 Safari/537.36","Macintosh","Chrome","106.0.0.0","OS X","10_15_7","sean","null","null","clear_screen","","","critical","t","c","d","240","164","164","240","240","164","trueblood","0","w","240","164","164","240","240","164","39360","39360","39360","dc","null","null","null","null","null","null","[3,2]"
"","canvas-keyboard-response","66","129000","0.0-4.0-2.10","4","1","2022-10-30 15:48:49","9287328b6538abcab06ee41daf2c5e0a","","Mozilla/5.0 (Macintosh; Intel Mac OS X 10_15_7) AppleWebKit/537.36 (KHTML, like Gecko) Chrome/106.0.0.0 Safari/537.36","Macintosh","Chrome","106.0.0.0","OS X","10_15_7","sean","null","null","rectangles","","","critical","t","c","d","240","164","164","240","240","164","trueblood","0","w","240","164","164","240","240","164","39360","39360","39360","dc","null","null","null","null","null","null","[3,2]"
"","canvas-keyboard-response","67","129155","0.0-4.0-3.10","4","1","2022-10-30 15:48:49","9287328b6538abcab06ee41daf2c5e0a","","Mozilla/5.0 (Macintosh; Intel Mac OS X 10_15_7) AppleWebKit/537.36 (KHTML, like Gecko) Chrome/106.0.0.0 Safari/537.36","Macintosh","Chrome","106.0.0.0","OS X","10_15_7","sean","null","null","clear_screen","","","critical","t","c","d","240","164","164","240","240","164","trueblood","0","w","240","164","164","240","240","164","39360","39360","39360","dc","null","null","null","null","null","null","[3,2]"
"","canvas-keyboard-response","68","129581","0.0-4.0-4.10","4","1","2022-10-30 15:48:49","9287328b6538abcab06ee41daf2c5e0a","","Mozilla/5.0 (Macintosh; Intel Mac OS X 10_15_7) AppleWebKit/537.36 (KHTML, like Gecko) Chrome/106.0.0.0 Safari/537.36","Macintosh","Chrome","106.0.0.0","OS X","10_15_7","sean","422","3","make choice","","","critical","t","c","d","240","164","164","240","240","164","trueblood","0","w","240","164","164","240","240","164","39360","39360","39360","dc","null","null","null","null","null","null","[3,2]"
"","canvas-keyboard-response","69","129741","0.0-4.0-5.10","4","1","2022-10-30 15:48:49","9287328b6538abcab06ee41daf2c5e0a","","Mozilla/5.0 (Macintosh; Intel Mac OS X 10_15_7) AppleWebKit/537.36 (KHTML, like Gecko) Chrome/106.0.0.0 Safari/537.36","Macintosh","Chrome","106.0.0.0","OS X","10_15_7","sean","null","null","clear_screen","","","critical","t","c","d","240","164","164","240","240","164","trueblood","0","w","240","164","164","240","240","164","39360","39360","39360","dc","null","null","null","null","null","null","[3,2]"
"","canvas-keyboard-response","70","129947","0.0-4.0-0.11","4","1","2022-10-30 15:48:49","9287328b6538abcab06ee41daf2c5e0a","","Mozilla/5.0 (Macintosh; Intel Mac OS X 10_15_7) AppleWebKit/537.36 (KHTML, like Gecko) Chrome/106.0.0.0 Safari/537.36","Macintosh","Chrome","106.0.0.0","OS X","10_15_7","sean","null","null","pre trial waiting period","","","critical","c","t","d","240","164","164","240","162.6685","237.1485","trueblood","0.02","h","164","240","240","164","162.6685","237.1485","39360","39360","38576.5967","td","null","null","null","null","null","null","[2,3]"
"","canvas-keyboard-response","71","130100","0.0-4.0-1.11","4","1","2022-10-30 15:48:49","9287328b6538abcab06ee41daf2c5e0a","","Mozilla/5.0 (Macintosh; Intel Mac OS X 10_15_7) AppleWebKit/537.36 (KHTML, like Gecko) Chrome/106.0.0.0 Safari/537.36","Macintosh","Chrome","106.0.0.0","OS X","10_15_7","sean","null","null","clear_screen","","","critical","c","t","d","240","164","164","240","162.6685","237.1485","trueblood","0.02","h","164","240","240","164","162.6685","237.1485","39360","39360","38576.5967","td","null","null","null","null","null","null","[2,3]"
"","canvas-keyboard-response","72","131409","0.0-4.0-2.11","4","1","2022-10-30 15:48:49","9287328b6538abcab06ee41daf2c5e0a","","Mozilla/5.0 (Macintosh; Intel Mac OS X 10_15_7) AppleWebKit/537.36 (KHTML, like Gecko) Chrome/106.0.0.0 Safari/537.36","Macintosh","Chrome","106.0.0.0","OS X","10_15_7","sean","null","null","rectangles","","","critical","c","t","d","240","164","164","240","162.6685","237.1485","trueblood","0.02","h","164","240","240","164","162.6685","237.1485","39360","39360","38576.5967","td","null","null","null","null","null","null","[2,3]"
"","canvas-keyboard-response","73","131563","0.0-4.0-3.11","4","1","2022-10-30 15:48:49","9287328b6538abcab06ee41daf2c5e0a","","Mozilla/5.0 (Macintosh; Intel Mac OS X 10_15_7) AppleWebKit/537.36 (KHTML, like Gecko) Chrome/106.0.0.0 Safari/537.36","Macintosh","Chrome","106.0.0.0","OS X","10_15_7","sean","null","null","clear_screen","","","critical","c","t","d","240","164","164","240","162.6685","237.1485","trueblood","0.02","h","164","240","240","164","162.6685","237.1485","39360","39360","38576.5967","td","null","null","null","null","null","null","[2,3]"
"","canvas-keyboard-response","74","133965","0.0-4.0-4.11","4","1","2022-10-30 15:48:49","9287328b6538abcab06ee41daf2c5e0a","","Mozilla/5.0 (Macintosh; Intel Mac OS X 10_15_7) AppleWebKit/537.36 (KHTML, like Gecko) Chrome/106.0.0.0 Safari/537.36","Macintosh","Chrome","106.0.0.0","OS X","10_15_7","sean","2398","2","make choice","","","critical","c","t","d","240","164","164","240","162.6685","237.1485","trueblood","0.02","h","164","240","240","164","162.6685","237.1485","39360","39360","38576.5967","td","null","null","null","null","null","null","[2,3]"
"","canvas-keyboard-response","75","134119","0.0-4.0-5.11","4","1","2022-10-30 15:48:49","9287328b6538abcab06ee41daf2c5e0a","","Mozilla/5.0 (Macintosh; Intel Mac OS X 10_15_7) AppleWebKit/537.36 (KHTML, like Gecko) Chrome/106.0.0.0 Safari/537.36","Macintosh","Chrome","106.0.0.0","OS X","10_15_7","sean","null","null","clear_screen","","","critical","c","t","d","240","164","164","240","162.6685","237.1485","trueblood","0.02","h","164","240","240","164","162.6685","237.1485","39360","39360","38576.5967","td","null","null","null","null","null","null","[2,3]"
"","canvas-keyboard-response","76","134322","0.0-4.0-0.12","4","1","2022-10-30 15:48:49","9287328b6538abcab06ee41daf2c5e0a","","Mozilla/5.0 (Macintosh; Intel Mac OS X 10_15_7) AppleWebKit/537.36 (KHTML, like Gecko) Chrome/106.0.0.0 Safari/537.36","Macintosh","Chrome","106.0.0.0","OS X","10_15_7","sean","null","null","pre trial waiting period","","","catch","sw","sh","l","180","200","214","196","180","224","spektor","null","null","null","null","null","null","null","null","null","null","null","","180","200","260","200","36000","52000","[2,3]"
"","canvas-keyboard-response","77","134477","0.0-4.0-1.12","4","1","2022-10-30 15:48:49","9287328b6538abcab06ee41daf2c5e0a","","Mozilla/5.0 (Macintosh; Intel Mac OS X 10_15_7) AppleWebKit/537.36 (KHTML, like Gecko) Chrome/106.0.0.0 Safari/537.36","Macintosh","Chrome","106.0.0.0","OS X","10_15_7","sean","null","null","clear_screen","","","catch","sw","sh","l","180","200","214","196","180","224","spektor","null","null","null","null","null","null","null","null","null","null","null","","180","200","260","200","36000","52000","[2,3]"
"","canvas-keyboard-response","78","135785","0.0-4.0-2.12","4","1","2022-10-30 15:48:49","9287328b6538abcab06ee41daf2c5e0a","","Mozilla/5.0 (Macintosh; Intel Mac OS X 10_15_7) AppleWebKit/537.36 (KHTML, like Gecko) Chrome/106.0.0.0 Safari/537.36","Macintosh","Chrome","106.0.0.0","OS X","10_15_7","sean","null","null","rectangles","","","catch","sw","sh","l","180","200","214","196","180","224","spektor","null","null","null","null","null","null","null","null","null","null","null","","180","200","260","200","36000","52000","[2,3]"
"","canvas-keyboard-response","79","135947","0.0-4.0-3.12","4","1","2022-10-30 15:48:49","9287328b6538abcab06ee41daf2c5e0a","","Mozilla/5.0 (Macintosh; Intel Mac OS X 10_15_7) AppleWebKit/537.36 (KHTML, like Gecko) Chrome/106.0.0.0 Safari/537.36","Macintosh","Chrome","106.0.0.0","OS X","10_15_7","sean","null","null","clear_screen","","","catch","sw","sh","l","180","200","214","196","180","224","spektor","null","null","null","null","null","null","null","null","null","null","null","","180","200","260","200","36000","52000","[2,3]"
"","canvas-keyboard-response","80","136539","0.0-4.0-4.12","4","1","2022-10-30 15:48:49","9287328b6538abcab06ee41daf2c5e0a","","Mozilla/5.0 (Macintosh; Intel Mac OS X 10_15_7) AppleWebKit/537.36 (KHTML, like Gecko) Chrome/106.0.0.0 Safari/537.36","Macintosh","Chrome","106.0.0.0","OS X","10_15_7","sean","589","2","make choice","","","catch","sw","sh","l","180","200","214","196","180","224","spektor","null","null","null","null","null","null","null","null","null","null","null","","180","200","260","200","36000","52000","[2,3]"
"","canvas-keyboard-response","81","136697","0.0-4.0-5.12","4","1","2022-10-30 15:48:49","9287328b6538abcab06ee41daf2c5e0a","","Mozilla/5.0 (Macintosh; Intel Mac OS X 10_15_7) AppleWebKit/537.36 (KHTML, like Gecko) Chrome/106.0.0.0 Safari/537.36","Macintosh","Chrome","106.0.0.0","OS X","10_15_7","sean","null","null","clear_screen","","","catch","sw","sh","l","180","200","214","196","180","224","spektor","null","null","null","null","null","null","null","null","null","null","null","","180","200","260","200","36000","52000","[2,3]"
"","canvas-keyboard-response","82","136903","0.0-4.0-0.13","4","1","2022-10-30 15:48:49","9287328b6538abcab06ee41daf2c5e0a","","Mozilla/5.0 (Macintosh; Intel Mac OS X 10_15_7) AppleWebKit/537.36 (KHTML, like Gecko) Chrome/106.0.0.0 Safari/537.36","Macintosh","Chrome","106.0.0.0","OS X","10_15_7","sean","null","null","pre trial waiting period","","","catch","sh","sw","l","186","212","141","181","287","235","spektor","null","null","null","null","null","null","null","null","null","null","null","","180","200","260","200","36000","52000","[1,3]"
"","canvas-keyboard-response","83","137057","0.0-4.0-1.13","4","1","2022-10-30 15:48:49","9287328b6538abcab06ee41daf2c5e0a","","Mozilla/5.0 (Macintosh; Intel Mac OS X 10_15_7) AppleWebKit/537.36 (KHTML, like Gecko) Chrome/106.0.0.0 Safari/537.36","Macintosh","Chrome","106.0.0.0","OS X","10_15_7","sean","null","null","clear_screen","","","catch","sh","sw","l","186","212","141","181","287","235","spektor","null","null","null","null","null","null","null","null","null","null","null","","180","200","260","200","36000","52000","[1,3]"
"","canvas-keyboard-response","84","138369","0.0-4.0-2.13","4","1","2022-10-30 15:48:49","9287328b6538abcab06ee41daf2c5e0a","","Mozilla/5.0 (Macintosh; Intel Mac OS X 10_15_7) AppleWebKit/537.36 (KHTML, like Gecko) Chrome/106.0.0.0 Safari/537.36","Macintosh","Chrome","106.0.0.0","OS X","10_15_7","sean","null","null","rectangles","","","catch","sh","sw","l","186","212","141","181","287","235","spektor","null","null","null","null","null","null","null","null","null","null","null","","180","200","260","200","36000","52000","[1,3]"
"","canvas-keyboard-response","85","138527","0.0-4.0-3.13","4","1","2022-10-30 15:48:49","9287328b6538abcab06ee41daf2c5e0a","","Mozilla/5.0 (Macintosh; Intel Mac OS X 10_15_7) AppleWebKit/537.36 (KHTML, like Gecko) Chrome/106.0.0.0 Safari/537.36","Macintosh","Chrome","106.0.0.0","OS X","10_15_7","sean","null","null","clear_screen","","","catch","sh","sw","l","186","212","141","181","287","235","spektor","null","null","null","null","null","null","null","null","null","null","null","","180","200","260","200","36000","52000","[1,3]"
"","canvas-keyboard-response","86","138842","0.0-4.0-4.13","4","1","2022-10-30 15:48:49","9287328b6538abcab06ee41daf2c5e0a","","Mozilla/5.0 (Macintosh; Intel Mac OS X 10_15_7) AppleWebKit/537.36 (KHTML, like Gecko) Chrome/106.0.0.0 Safari/537.36","Macintosh","Chrome","106.0.0.0","OS X","10_15_7","sean","311","3","make choice","","","catch","sh","sw","l","186","212","141","181","287","235","spektor","null","null","null","null","null","null","null","null","null","null","null","","180","200","260","200","36000","52000","[1,3]"
"","canvas-keyboard-response","87","138998","0.0-4.0-5.13","4","1","2022-10-30 15:48:49","9287328b6538abcab06ee41daf2c5e0a","","Mozilla/5.0 (Macintosh; Intel Mac OS X 10_15_7) AppleWebKit/537.36 (KHTML, like Gecko) Chrome/106.0.0.0 Safari/537.36","Macintosh","Chrome","106.0.0.0","OS X","10_15_7","sean","null","null","clear_screen","","","catch","sh","sw","l","186","212","141","181","287","235","spektor","null","null","null","null","null","null","null","null","null","null","null","","180","200","260","200","36000","52000","[1,3]"
"","canvas-keyboard-response","88","139203","0.0-4.0-0.14","4","1","2022-10-30 15:48:49","9287328b6538abcab06ee41daf2c5e0a","","Mozilla/5.0 (Macintosh; Intel Mac OS X 10_15_7) AppleWebKit/537.36 (KHTML, like Gecko) Chrome/106.0.0.0 Safari/537.36","Macintosh","Chrome","106.0.0.0","OS X","10_15_7","sean","null","null","pre trial waiting period","","","critical","d","c","t","237.1485","162.6685","164","240","240","164","trueblood","0.02","w","240","164","164","240","237.1485","162.6685","39360","39360","38576.5967","dc","null","null","null","null","null","null","[1,2]"
"","canvas-keyboard-response","89","139369","0.0-4.0-1.14","4","1","2022-10-30 15:48:49","9287328b6538abcab06ee41daf2c5e0a","","Mozilla/5.0 (Macintosh; Intel Mac OS X 10_15_7) AppleWebKit/537.36 (KHTML, like Gecko) Chrome/106.0.0.0 Safari/537.36","Macintosh","Chrome","106.0.0.0","OS X","10_15_7","sean","null","null","clear_screen","","","critical","d","c","t","237.1485","162.6685","164","240","240","164","trueblood","0.02","w","240","164","164","240","237.1485","162.6685","39360","39360","38576.5967","dc","null","null","null","null","null","null","[1,2]"
"","canvas-keyboard-response","90","140677","0.0-4.0-2.14","4","1","2022-10-30 15:48:49","9287328b6538abcab06ee41daf2c5e0a","","Mozilla/5.0 (Macintosh; Intel Mac OS X 10_15_7) AppleWebKit/537.36 (KHTML, like Gecko) Chrome/106.0.0.0 Safari/537.36","Macintosh","Chrome","106.0.0.0","OS X","10_15_7","sean","null","null","rectangles","","","critical","d","c","t","237.1485","162.6685","164","240","240","164","trueblood","0.02","w","240","164","164","240","237.1485","162.6685","39360","39360","38576.5967","dc","null","null","null","null","null","null","[1,2]"
"","canvas-keyboard-response","91","140836","0.0-4.0-3.14","4","1","2022-10-30 15:48:49","9287328b6538abcab06ee41daf2c5e0a","","Mozilla/5.0 (Macintosh; Intel Mac OS X 10_15_7) AppleWebKit/537.36 (KHTML, like Gecko) Chrome/106.0.0.0 Safari/537.36","Macintosh","Chrome","106.0.0.0","OS X","10_15_7","sean","null","null","clear_screen","","","critical","d","c","t","237.1485","162.6685","164","240","240","164","trueblood","0.02","w","240","164","164","240","237.1485","162.6685","39360","39360","38576.5967","dc","null","null","null","null","null","null","[1,2]"
"","canvas-keyboard-response","92","142645","0.0-4.0-4.14","4","1","2022-10-30 15:48:49","9287328b6538abcab06ee41daf2c5e0a","","Mozilla/5.0 (Macintosh; Intel Mac OS X 10_15_7) AppleWebKit/537.36 (KHTML, like Gecko) Chrome/106.0.0.0 Safari/537.36","Macintosh","Chrome","106.0.0.0","OS X","10_15_7","sean","1806","1","make choice","","","critical","d","c","t","237.1485","162.6685","164","240","240","164","trueblood","0.02","w","240","164","164","240","237.1485","162.6685","39360","39360","38576.5967","dc","null","null","null","null","null","null","[1,2]"
"","canvas-keyboard-response","93","142806","0.0-4.0-5.14","4","1","2022-10-30 15:48:49","9287328b6538abcab06ee41daf2c5e0a","","Mozilla/5.0 (Macintosh; Intel Mac OS X 10_15_7) AppleWebKit/537.36 (KHTML, like Gecko) Chrome/106.0.0.0 Safari/537.36","Macintosh","Chrome","106.0.0.0","OS X","10_15_7","sean","null","null","clear_screen","","","critical","d","c","t","237.1485","162.6685","164","240","240","164","trueblood","0.02","w","240","164","164","240","237.1485","162.6685","39360","39360","38576.5967","dc","null","null","null","null","null","null","[1,2]"
"","canvas-keyboard-response","94","143012","0.0-4.0-0.15","4","1","2022-10-30 15:48:49","9287328b6538abcab06ee41daf2c5e0a","","Mozilla/5.0 (Macintosh; Intel Mac OS X 10_15_7) AppleWebKit/537.36 (KHTML, like Gecko) Chrome/106.0.0.0 Safari/537.36","Macintosh","Chrome","106.0.0.0","OS X","10_15_7","sean","null","null","pre trial waiting period","","","critical","t","d","c","240","164","220.0396","154.6796","164","240","trueblood","0.14","w","240","164","164","240","220.0396","154.6796","39360","39360","34035.6388","td","null","null","null","null","null","null","[1,2]"
"","canvas-keyboard-response","95","143169","0.0-4.0-1.15","4","1","2022-10-30 15:48:49","9287328b6538abcab06ee41daf2c5e0a","","Mozilla/5.0 (Macintosh; Intel Mac OS X 10_15_7) AppleWebKit/537.36 (KHTML, like Gecko) Chrome/106.0.0.0 Safari/537.36","Macintosh","Chrome","106.0.0.0","OS X","10_15_7","sean","null","null","clear_screen","","","critical","t","d","c","240","164","220.0396","154.6796","164","240","trueblood","0.14","w","240","164","164","240","220.0396","154.6796","39360","39360","34035.6388","td","null","null","null","null","null","null","[1,2]"
"","canvas-keyboard-response","96","144474","0.0-4.0-2.15","4","1","2022-10-30 15:48:49","9287328b6538abcab06ee41daf2c5e0a","","Mozilla/5.0 (Macintosh; Intel Mac OS X 10_15_7) AppleWebKit/537.36 (KHTML, like Gecko) Chrome/106.0.0.0 Safari/537.36","Macintosh","Chrome","106.0.0.0","OS X","10_15_7","sean","null","null","rectangles","","","critical","t","d","c","240","164","220.0396","154.6796","164","240","trueblood","0.14","w","240","164","164","240","220.0396","154.6796","39360","39360","34035.6388","td","null","null","null","null","null","null","[1,2]"
"","canvas-keyboard-response","97","144629","0.0-4.0-3.15","4","1","2022-10-30 15:48:49","9287328b6538abcab06ee41daf2c5e0a","","Mozilla/5.0 (Macintosh; Intel Mac OS X 10_15_7) AppleWebKit/537.36 (KHTML, like Gecko) Chrome/106.0.0.0 Safari/537.36","Macintosh","Chrome","106.0.0.0","OS X","10_15_7","sean","null","null","clear_screen","","","critical","t","d","c","240","164","220.0396","154.6796","164","240","trueblood","0.14","w","240","164","164","240","220.0396","154.6796","39360","39360","34035.6388","td","null","null","null","null","null","null","[1,2]"
"","canvas-keyboard-response","98","145338","0.0-4.0-4.15","4","1","2022-10-30 15:48:49","9287328b6538abcab06ee41daf2c5e0a","","Mozilla/5.0 (Macintosh; Intel Mac OS X 10_15_7) AppleWebKit/537.36 (KHTML, like Gecko) Chrome/106.0.0.0 Safari/537.36","Macintosh","Chrome","106.0.0.0","OS X","10_15_7","sean","695","1","make choice","","","critical","t","d","c","240","164","220.0396","154.6796","164","240","trueblood","0.14","w","240","164","164","240","220.0396","154.6796","39360","39360","34035.6388","td","null","null","null","null","null","null","[1,2]"
"","canvas-keyboard-response","99","145492","0.0-4.0-5.15","4","1","2022-10-30 15:48:49","9287328b6538abcab06ee41daf2c5e0a","","Mozilla/5.0 (Macintosh; Intel Mac OS X 10_15_7) AppleWebKit/537.36 (KHTML, like Gecko) Chrome/106.0.0.0 Safari/537.36","Macintosh","Chrome","106.0.0.0","OS X","10_15_7","sean","null","null","clear_screen","","","critical","t","d","c","240","164","220.0396","154.6796","164","240","trueblood","0.14","w","240","164","164","240","220.0396","154.6796","39360","39360","34035.6388","td","null","null","null","null","null","null","[1,2]"
"","canvas-keyboard-response","100","145698","0.0-4.0-0.16","4","1","2022-10-30 15:48:49","9287328b6538abcab06ee41daf2c5e0a","","Mozilla/5.0 (Macintosh; Intel Mac OS X 10_15_7) AppleWebKit/537.36 (KHTML, like Gecko) Chrome/106.0.0.0 Safari/537.36","Macintosh","Chrome","106.0.0.0","OS X","10_15_7","sean","null","null","pre trial waiting period","","","critical","t","d","c","164","240","154.6796","220.0396","240","164","trueblood","0.14","h","164","240","240","164","154.6796","220.0396","39360","39360","34035.6388","tc","null","null","null","null","null","null","[1,3]"
"","canvas-keyboard-response","101","145855","0.0-4.0-1.16","4","1","2022-10-30 15:48:49","9287328b6538abcab06ee41daf2c5e0a","","Mozilla/5.0 (Macintosh; Intel Mac OS X 10_15_7) AppleWebKit/537.36 (KHTML, like Gecko) Chrome/106.0.0.0 Safari/537.36","Macintosh","Chrome","106.0.0.0","OS X","10_15_7","sean","null","null","clear_screen","","","critical","t","d","c","164","240","154.6796","220.0396","240","164","trueblood","0.14","h","164","240","240","164","154.6796","220.0396","39360","39360","34035.6388","tc","null","null","null","null","null","null","[1,3]"
"","canvas-keyboard-response","102","147163","0.0-4.0-2.16","4","1","2022-10-30 15:48:49","9287328b6538abcab06ee41daf2c5e0a","","Mozilla/5.0 (Macintosh; Intel Mac OS X 10_15_7) AppleWebKit/537.36 (KHTML, like Gecko) Chrome/106.0.0.0 Safari/537.36","Macintosh","Chrome","106.0.0.0","OS X","10_15_7","sean","null","null","rectangles","","","critical","t","d","c","164","240","154.6796","220.0396","240","164","trueblood","0.14","h","164","240","240","164","154.6796","220.0396","39360","39360","34035.6388","tc","null","null","null","null","null","null","[1,3]"
"","canvas-keyboard-response","103","147318","0.0-4.0-3.16","4","1","2022-10-30 15:48:49","9287328b6538abcab06ee41daf2c5e0a","","Mozilla/5.0 (Macintosh; Intel Mac OS X 10_15_7) AppleWebKit/537.36 (KHTML, like Gecko) Chrome/106.0.0.0 Safari/537.36","Macintosh","Chrome","106.0.0.0","OS X","10_15_7","sean","null","null","clear_screen","","","critical","t","d","c","164","240","154.6796","220.0396","240","164","trueblood","0.14","h","164","240","240","164","154.6796","220.0396","39360","39360","34035.6388","tc","null","null","null","null","null","null","[1,3]"
"","canvas-keyboard-response","104","148154","0.0-4.0-4.16","4","1","2022-10-30 15:48:49","9287328b6538abcab06ee41daf2c5e0a","","Mozilla/5.0 (Macintosh; Intel Mac OS X 10_15_7) AppleWebKit/537.36 (KHTML, like Gecko) Chrome/106.0.0.0 Safari/537.36","Macintosh","Chrome","106.0.0.0","OS X","10_15_7","sean","831","3","make choice","","","critical","t","d","c","164","240","154.6796","220.0396","240","164","trueblood","0.14","h","164","240","240","164","154.6796","220.0396","39360","39360","34035.6388","tc","null","null","null","null","null","null","[1,3]"
"","canvas-keyboard-response","105","148308","0.0-4.0-5.16","4","1","2022-10-30 15:48:49","9287328b6538abcab06ee41daf2c5e0a","","Mozilla/5.0 (Macintosh; Intel Mac OS X 10_15_7) AppleWebKit/537.36 (KHTML, like Gecko) Chrome/106.0.0.0 Safari/537.36","Macintosh","Chrome","106.0.0.0","OS X","10_15_7","sean","null","null","clear_screen","","","critical","t","d","c","164","240","154.6796","220.0396","240","164","trueblood","0.14","h","164","240","240","164","154.6796","220.0396","39360","39360","34035.6388","tc","null","null","null","null","null","null","[1,3]"
"","canvas-keyboard-response","106","148517","0.0-4.0-0.17","4","1","2022-10-30 15:48:49","9287328b6538abcab06ee41daf2c5e0a","","Mozilla/5.0 (Macintosh; Intel Mac OS X 10_15_7) AppleWebKit/537.36 (KHTML, like Gecko) Chrome/106.0.0.0 Safari/537.36","Macintosh","Chrome","106.0.0.0","OS X","10_15_7","sean","null","null","pre trial waiting period","","","critical","t","c","d","164","240","240","164","158.0083","227.1683","trueblood","0.09","h","164","240","240","164","158.0083","227.1683","39360","39360","35894.4834","dc","null","null","null","null","null","null","[3,2]"
"","canvas-keyboard-response","107","148672","0.0-4.0-1.17","4","1","2022-10-30 15:48:49","9287328b6538abcab06ee41daf2c5e0a","","Mozilla/5.0 (Macintosh; Intel Mac OS X 10_15_7) AppleWebKit/537.36 (KHTML, like Gecko) Chrome/106.0.0.0 Safari/537.36","Macintosh","Chrome","106.0.0.0","OS X","10_15_7","sean","null","null","clear_screen","","","critical","t","c","d","164","240","240","164","158.0083","227.1683","trueblood","0.09","h","164","240","240","164","158.0083","227.1683","39360","39360","35894.4834","dc","null","null","null","null","null","null","[3,2]"
"","canvas-keyboard-response","108","149985","0.0-4.0-2.17","4","1","2022-10-30 15:48:49","9287328b6538abcab06ee41daf2c5e0a","","Mozilla/5.0 (Macintosh; Intel Mac OS X 10_15_7) AppleWebKit/537.36 (KHTML, like Gecko) Chrome/106.0.0.0 Safari/537.36","Macintosh","Chrome","106.0.0.0","OS X","10_15_7","sean","null","null","rectangles","","","critical","t","c","d","164","240","240","164","158.0083","227.1683","trueblood","0.09","h","164","240","240","164","158.0083","227.1683","39360","39360","35894.4834","dc","null","null","null","null","null","null","[3,2]"
"","canvas-keyboard-response","109","150142","0.0-4.0-3.17","4","1","2022-10-30 15:48:49","9287328b6538abcab06ee41daf2c5e0a","","Mozilla/5.0 (Macintosh; Intel Mac OS X 10_15_7) AppleWebKit/537.36 (KHTML, like Gecko) Chrome/106.0.0.0 Safari/537.36","Macintosh","Chrome","106.0.0.0","OS X","10_15_7","sean","null","null","clear_screen","","","critical","t","c","d","164","240","240","164","158.0083","227.1683","trueblood","0.09","h","164","240","240","164","158.0083","227.1683","39360","39360","35894.4834","dc","null","null","null","null","null","null","[3,2]"
"","canvas-keyboard-response","110","150472","0.0-4.0-4.17","4","1","2022-10-30 15:48:49","9287328b6538abcab06ee41daf2c5e0a","","Mozilla/5.0 (Macintosh; Intel Mac OS X 10_15_7) AppleWebKit/537.36 (KHTML, like Gecko) Chrome/106.0.0.0 Safari/537.36","Macintosh","Chrome","106.0.0.0","OS X","10_15_7","sean","325","2","make choice","","","critical","t","c","d","164","240","240","164","158.0083","227.1683","trueblood","0.09","h","164","240","240","164","158.0083","227.1683","39360","39360","35894.4834","dc","null","null","null","null","null","null","[3,2]"
"","canvas-keyboard-response","111","150627","0.0-4.0-5.17","4","1","2022-10-30 15:48:49","9287328b6538abcab06ee41daf2c5e0a","","Mozilla/5.0 (Macintosh; Intel Mac OS X 10_15_7) AppleWebKit/537.36 (KHTML, like Gecko) Chrome/106.0.0.0 Safari/537.36","Macintosh","Chrome","106.0.0.0","OS X","10_15_7","sean","null","null","clear_screen","","","critical","t","c","d","164","240","240","164","158.0083","227.1683","trueblood","0.09","h","164","240","240","164","158.0083","227.1683","39360","39360","35894.4834","dc","null","null","null","null","null","null","[3,2]"
"","canvas-keyboard-response","112","150834","0.0-4.0-0.18","4","1","2022-10-30 15:48:49","9287328b6538abcab06ee41daf2c5e0a","","Mozilla/5.0 (Macintosh; Intel Mac OS X 10_15_7) AppleWebKit/537.36 (KHTML, like Gecko) Chrome/106.0.0.0 Safari/537.36","Macintosh","Chrome","106.0.0.0","OS X","10_15_7","sean","null","null","pre trial waiting period","","","critical","d","t","c","240","164","240","164","164","240","spektor","0","w","240","164","164","240","240","164","39360","39360","39360","dc","null","null","null","null","null","null","[1,3]"
"","canvas-keyboard-response","113","150997","0.0-4.0-1.18","4","1","2022-10-30 15:48:49","9287328b6538abcab06ee41daf2c5e0a","","Mozilla/5.0 (Macintosh; Intel Mac OS X 10_15_7) AppleWebKit/537.36 (KHTML, like Gecko) Chrome/106.0.0.0 Safari/537.36","Macintosh","Chrome","106.0.0.0","OS X","10_15_7","sean","null","null","clear_screen","","","critical","d","t","c","240","164","240","164","164","240","spektor","0","w","240","164","164","240","240","164","39360","39360","39360","dc","null","null","null","null","null","null","[1,3]"
"","canvas-keyboard-response","114","152303","0.0-4.0-2.18","4","1","2022-10-30 15:48:49","9287328b6538abcab06ee41daf2c5e0a","","Mozilla/5.0 (Macintosh; Intel Mac OS X 10_15_7) AppleWebKit/537.36 (KHTML, like Gecko) Chrome/106.0.0.0 Safari/537.36","Macintosh","Chrome","106.0.0.0","OS X","10_15_7","sean","null","null","rectangles","","","critical","d","t","c","240","164","240","164","164","240","spektor","0","w","240","164","164","240","240","164","39360","39360","39360","dc","null","null","null","null","null","null","[1,3]"
"","canvas-keyboard-response","115","152458","0.0-4.0-3.18","4","1","2022-10-30 15:48:49","9287328b6538abcab06ee41daf2c5e0a","","Mozilla/5.0 (Macintosh; Intel Mac OS X 10_15_7) AppleWebKit/537.36 (KHTML, like Gecko) Chrome/106.0.0.0 Safari/537.36","Macintosh","Chrome","106.0.0.0","OS X","10_15_7","sean","null","null","clear_screen","","","critical","d","t","c","240","164","240","164","164","240","spektor","0","w","240","164","164","240","240","164","39360","39360","39360","dc","null","null","null","null","null","null","[1,3]"
"","canvas-keyboard-response","116","152937","0.0-4.0-4.18","4","1","2022-10-30 15:48:49","9287328b6538abcab06ee41daf2c5e0a","","Mozilla/5.0 (Macintosh; Intel Mac OS X 10_15_7) AppleWebKit/537.36 (KHTML, like Gecko) Chrome/106.0.0.0 Safari/537.36","Macintosh","Chrome","106.0.0.0","OS X","10_15_7","sean","474","3","make choice","","","critical","d","t","c","240","164","240","164","164","240","spektor","0","w","240","164","164","240","240","164","39360","39360","39360","dc","null","null","null","null","null","null","[1,3]"
"","canvas-keyboard-response","117","153102","0.0-4.0-5.18","4","1","2022-10-30 15:48:49","9287328b6538abcab06ee41daf2c5e0a","","Mozilla/5.0 (Macintosh; Intel Mac OS X 10_15_7) AppleWebKit/537.36 (KHTML, like Gecko) Chrome/106.0.0.0 Safari/537.36","Macintosh","Chrome","106.0.0.0","OS X","10_15_7","sean","null","null","clear_screen","","","critical","d","t","c","240","164","240","164","164","240","spektor","0","w","240","164","164","240","240","164","39360","39360","39360","dc","null","null","null","null","null","null","[1,3]"
"","canvas-keyboard-response","118","153307","0.0-4.0-0.19","4","1","2022-10-30 15:48:49","9287328b6538abcab06ee41daf2c5e0a","","Mozilla/5.0 (Macintosh; Intel Mac OS X 10_15_7) AppleWebKit/537.36 (KHTML, like Gecko) Chrome/106.0.0.0 Safari/537.36","Macintosh","Chrome","106.0.0.0","OS X","10_15_7","sean","null","null","pre trial waiting period","","","critical","c","t","d","240","164","164","240","154.6796","220.0396","spektor","0.14","h","164","240","240","164","154.6796","220.0396","39360","39360","34035.6388","dc","null","null","null","null","null","null","[3,1]"
"","canvas-keyboard-response","119","153464","0.0-4.0-1.19","4","1","2022-10-30 15:48:49","9287328b6538abcab06ee41daf2c5e0a","","Mozilla/5.0 (Macintosh; Intel Mac OS X 10_15_7) AppleWebKit/537.36 (KHTML, like Gecko) Chrome/106.0.0.0 Safari/537.36","Macintosh","Chrome","106.0.0.0","OS X","10_15_7","sean","null","null","clear_screen","","","critical","c","t","d","240","164","164","240","154.6796","220.0396","spektor","0.14","h","164","240","240","164","154.6796","220.0396","39360","39360","34035.6388","dc","null","null","null","null","null","null","[3,1]"
"","canvas-keyboard-response","120","154769","0.0-4.0-2.19","4","1","2022-10-30 15:48:49","9287328b6538abcab06ee41daf2c5e0a","","Mozilla/5.0 (Macintosh; Intel Mac OS X 10_15_7) AppleWebKit/537.36 (KHTML, like Gecko) Chrome/106.0.0.0 Safari/537.36","Macintosh","Chrome","106.0.0.0","OS X","10_15_7","sean","null","null","rectangles","","","critical","c","t","d","240","164","164","240","154.6796","220.0396","spektor","0.14","h","164","240","240","164","154.6796","220.0396","39360","39360","34035.6388","dc","null","null","null","null","null","null","[3,1]"
"","canvas-keyboard-response","121","154926","0.0-4.0-3.19","4","1","2022-10-30 15:48:49","9287328b6538abcab06ee41daf2c5e0a","","Mozilla/5.0 (Macintosh; Intel Mac OS X 10_15_7) AppleWebKit/537.36 (KHTML, like Gecko) Chrome/106.0.0.0 Safari/537.36","Macintosh","Chrome","106.0.0.0","OS X","10_15_7","sean","null","null","clear_screen","","","critical","c","t","d","240","164","164","240","154.6796","220.0396","spektor","0.14","h","164","240","240","164","154.6796","220.0396","39360","39360","34035.6388","dc","null","null","null","null","null","null","[3,1]"
"","canvas-keyboard-response","122","155504","0.0-4.0-4.19","4","1","2022-10-30 15:48:49","9287328b6538abcab06ee41daf2c5e0a","","Mozilla/5.0 (Macintosh; Intel Mac OS X 10_15_7) AppleWebKit/537.36 (KHTML, like Gecko) Chrome/106.0.0.0 Safari/537.36","Macintosh","Chrome","106.0.0.0","OS X","10_15_7","sean","573","3","make choice","","","critical","c","t","d","240","164","164","240","154.6796","220.0396","spektor","0.14","h","164","240","240","164","154.6796","220.0396","39360","39360","34035.6388","dc","null","null","null","null","null","null","[3,1]"
"","canvas-keyboard-response","123","155659","0.0-4.0-5.19","4","1","2022-10-30 15:48:49","9287328b6538abcab06ee41daf2c5e0a","","Mozilla/5.0 (Macintosh; Intel Mac OS X 10_15_7) AppleWebKit/537.36 (KHTML, like Gecko) Chrome/106.0.0.0 Safari/537.36","Macintosh","Chrome","106.0.0.0","OS X","10_15_7","sean","null","null","clear_screen","","","critical","c","t","d","240","164","164","240","154.6796","220.0396","spektor","0.14","h","164","240","240","164","154.6796","220.0396","39360","39360","34035.6388","dc","null","null","null","null","null","null","[3,1]"
"","canvas-keyboard-response","124","155864","0.0-4.0-0.20","4","1","2022-10-30 15:48:49","9287328b6538abcab06ee41daf2c5e0a","","Mozilla/5.0 (Macintosh; Intel Mac OS X 10_15_7) AppleWebKit/537.36 (KHTML, like Gecko) Chrome/106.0.0.0 Safari/537.36","Macintosh","Chrome","106.0.0.0","OS X","10_15_7","sean","null","null","pre trial waiting period","","","critical","c","d","t","240","164","154.6796","220.0396","164","240","spektor","0.14","h","164","240","240","164","154.6796","220.0396","39360","39360","34035.6388","tc","null","null","null","null","null","null","[3,1]"
"","canvas-keyboard-response","125","156020","0.0-4.0-1.20","4","1","2022-10-30 15:48:49","9287328b6538abcab06ee41daf2c5e0a","","Mozilla/5.0 (Macintosh; Intel Mac OS X 10_15_7) AppleWebKit/537.36 (KHTML, like Gecko) Chrome/106.0.0.0 Safari/537.36","Macintosh","Chrome","106.0.0.0","OS X","10_15_7","sean","null","null","clear_screen","","","critical","c","d","t","240","164","154.6796","220.0396","164","240","spektor","0.14","h","164","240","240","164","154.6796","220.0396","39360","39360","34035.6388","tc","null","null","null","null","null","null","[3,1]"
"","canvas-keyboard-response","126","157326","0.0-4.0-2.20","4","1","2022-10-30 15:48:49","9287328b6538abcab06ee41daf2c5e0a","","Mozilla/5.0 (Macintosh; Intel Mac OS X 10_15_7) AppleWebKit/537.36 (KHTML, like Gecko) Chrome/106.0.0.0 Safari/537.36","Macintosh","Chrome","106.0.0.0","OS X","10_15_7","sean","null","null","rectangles","","","critical","c","d","t","240","164","154.6796","220.0396","164","240","spektor","0.14","h","164","240","240","164","154.6796","220.0396","39360","39360","34035.6388","tc","null","null","null","null","null","null","[3,1]"
"","canvas-keyboard-response","127","157493","0.0-4.0-3.20","4","1","2022-10-30 15:48:49","9287328b6538abcab06ee41daf2c5e0a","","Mozilla/5.0 (Macintosh; Intel Mac OS X 10_15_7) AppleWebKit/537.36 (KHTML, like Gecko) Chrome/106.0.0.0 Safari/537.36","Macintosh","Chrome","106.0.0.0","OS X","10_15_7","sean","null","null","clear_screen","","","critical","c","d","t","240","164","154.6796","220.0396","164","240","spektor","0.14","h","164","240","240","164","154.6796","220.0396","39360","39360","34035.6388","tc","null","null","null","null","null","null","[3,1]"
"","canvas-keyboard-response","128","159321","0.0-4.0-4.20","4","1","2022-10-30 15:48:49","9287328b6538abcab06ee41daf2c5e0a","","Mozilla/5.0 (Macintosh; Intel Mac OS X 10_15_7) AppleWebKit/537.36 (KHTML, like Gecko) Chrome/106.0.0.0 Safari/537.36","Macintosh","Chrome","106.0.0.0","OS X","10_15_7","sean","1823","1","make choice","","","critical","c","d","t","240","164","154.6796","220.0396","164","240","spektor","0.14","h","164","240","240","164","154.6796","220.0396","39360","39360","34035.6388","tc","null","null","null","null","null","null","[3,1]"
"","canvas-keyboard-response","129","159476","0.0-4.0-5.20","4","1","2022-10-30 15:48:49","9287328b6538abcab06ee41daf2c5e0a","","Mozilla/5.0 (Macintosh; Intel Mac OS X 10_15_7) AppleWebKit/537.36 (KHTML, like Gecko) Chrome/106.0.0.0 Safari/537.36","Macintosh","Chrome","106.0.0.0","OS X","10_15_7","sean","null","null","clear_screen","","","critical","c","d","t","240","164","154.6796","220.0396","164","240","spektor","0.14","h","164","240","240","164","154.6796","220.0396","39360","39360","34035.6388","tc","null","null","null","null","null","null","[3,1]"
"","canvas-keyboard-response","130","159685","0.0-4.0-0.21","4","1","2022-10-30 15:48:49","9287328b6538abcab06ee41daf2c5e0a","","Mozilla/5.0 (Macintosh; Intel Mac OS X 10_15_7) AppleWebKit/537.36 (KHTML, like Gecko) Chrome/106.0.0.0 Safari/537.36","Macintosh","Chrome","106.0.0.0","OS X","10_15_7","sean","null","null","pre trial waiting period","","","critical","t","c","d","164","240","240","164","164","240","spektor","0","h","164","240","240","164","164","240","39360","39360","39360","td","null","null","null","null","null","null","[1,3]"
"","canvas-keyboard-response","131","159842","0.0-4.0-1.21","4","1","2022-10-30 15:48:49","9287328b6538abcab06ee41daf2c5e0a","","Mozilla/5.0 (Macintosh; Intel Mac OS X 10_15_7) AppleWebKit/537.36 (KHTML, like Gecko) Chrome/106.0.0.0 Safari/537.36","Macintosh","Chrome","106.0.0.0","OS X","10_15_7","sean","null","null","clear_screen","","","critical","t","c","d","164","240","240","164","164","240","spektor","0","h","164","240","240","164","164","240","39360","39360","39360","td","null","null","null","null","null","null","[1,3]"
"","canvas-keyboard-response","132","161160","0.0-4.0-2.21","4","1","2022-10-30 15:48:49","9287328b6538abcab06ee41daf2c5e0a","","Mozilla/5.0 (Macintosh; Intel Mac OS X 10_15_7) AppleWebKit/537.36 (KHTML, like Gecko) Chrome/106.0.0.0 Safari/537.36","Macintosh","Chrome","106.0.0.0","OS X","10_15_7","sean","null","null","rectangles","","","critical","t","c","d","164","240","240","164","164","240","spektor","0","h","164","240","240","164","164","240","39360","39360","39360","td","null","null","null","null","null","null","[1,3]"
"","canvas-keyboard-response","133","161318","0.0-4.0-3.21","4","1","2022-10-30 15:48:49","9287328b6538abcab06ee41daf2c5e0a","","Mozilla/5.0 (Macintosh; Intel Mac OS X 10_15_7) AppleWebKit/537.36 (KHTML, like Gecko) Chrome/106.0.0.0 Safari/537.36","Macintosh","Chrome","106.0.0.0","OS X","10_15_7","sean","null","null","clear_screen","","","critical","t","c","d","164","240","240","164","164","240","spektor","0","h","164","240","240","164","164","240","39360","39360","39360","td","null","null","null","null","null","null","[1,3]"
"","canvas-keyboard-response","134","161776","0.0-4.0-4.21","4","1","2022-10-30 15:48:49","9287328b6538abcab06ee41daf2c5e0a","","Mozilla/5.0 (Macintosh; Intel Mac OS X 10_15_7) AppleWebKit/537.36 (KHTML, like Gecko) Chrome/106.0.0.0 Safari/537.36","Macintosh","Chrome","106.0.0.0","OS X","10_15_7","sean","453","3","make choice","","","critical","t","c","d","164","240","240","164","164","240","spektor","0","h","164","240","240","164","164","240","39360","39360","39360","td","null","null","null","null","null","null","[1,3]"
"","canvas-keyboard-response","135","161932","0.0-4.0-5.21","4","1","2022-10-30 15:48:49","9287328b6538abcab06ee41daf2c5e0a","","Mozilla/5.0 (Macintosh; Intel Mac OS X 10_15_7) AppleWebKit/537.36 (KHTML, like Gecko) Chrome/106.0.0.0 Safari/537.36","Macintosh","Chrome","106.0.0.0","OS X","10_15_7","sean","null","null","clear_screen","","","critical","t","c","d","164","240","240","164","164","240","spektor","0","h","164","240","240","164","164","240","39360","39360","39360","td","null","null","null","null","null","null","[1,3]"
"","canvas-keyboard-response","136","162142","0.0-4.0-0.22","4","1","2022-10-30 15:48:49","9287328b6538abcab06ee41daf2c5e0a","","Mozilla/5.0 (Macintosh; Intel Mac OS X 10_15_7) AppleWebKit/537.36 (KHTML, like Gecko) Chrome/106.0.0.0 Safari/537.36","Macintosh","Chrome","106.0.0.0","OS X","10_15_7","sean","null","null","pre trial waiting period","","","catch","l","sh","sw","220","284","171","182","215","161","spektor","null","null","null","null","null","null","null","null","null","null","null","","180","200","260","200","36000","52000","[1,3]"
"","canvas-keyboard-response","137","162312","0.0-4.0-1.22","4","1","2022-10-30 15:48:49","9287328b6538abcab06ee41daf2c5e0a","","Mozilla/5.0 (Macintosh; Intel Mac OS X 10_15_7) AppleWebKit/537.36 (KHTML, like Gecko) Chrome/106.0.0.0 Safari/537.36","Macintosh","Chrome","106.0.0.0","OS X","10_15_7","sean","null","null","clear_screen","","","catch","l","sh","sw","220","284","171","182","215","161","spektor","null","null","null","null","null","null","null","null","null","null","null","","180","200","260","200","36000","52000","[1,3]"
"","canvas-keyboard-response","138","163618","0.0-4.0-2.22","4","1","2022-10-30 15:48:49","9287328b6538abcab06ee41daf2c5e0a","","Mozilla/5.0 (Macintosh; Intel Mac OS X 10_15_7) AppleWebKit/537.36 (KHTML, like Gecko) Chrome/106.0.0.0 Safari/537.36","Macintosh","Chrome","106.0.0.0","OS X","10_15_7","sean","null","null","rectangles","","","catch","l","sh","sw","220","284","171","182","215","161","spektor","null","null","null","null","null","null","null","null","null","null","null","","180","200","260","200","36000","52000","[1,3]"
"","canvas-keyboard-response","139","163774","0.0-4.0-3.22","4","1","2022-10-30 15:48:49","9287328b6538abcab06ee41daf2c5e0a","","Mozilla/5.0 (Macintosh; Intel Mac OS X 10_15_7) AppleWebKit/537.36 (KHTML, like Gecko) Chrome/106.0.0.0 Safari/537.36","Macintosh","Chrome","106.0.0.0","OS X","10_15_7","sean","null","null","clear_screen","","","catch","l","sh","sw","220","284","171","182","215","161","spektor","null","null","null","null","null","null","null","null","null","null","null","","180","200","260","200","36000","52000","[1,3]"
"","canvas-keyboard-response","140","164095","0.0-4.0-4.22","4","1","2022-10-30 15:48:49","9287328b6538abcab06ee41daf2c5e0a","","Mozilla/5.0 (Macintosh; Intel Mac OS X 10_15_7) AppleWebKit/537.36 (KHTML, like Gecko) Chrome/106.0.0.0 Safari/537.36","Macintosh","Chrome","106.0.0.0","OS X","10_15_7","sean","316","1","make choice","","","catch","l","sh","sw","220","284","171","182","215","161","spektor","null","null","null","null","null","null","null","null","null","null","null","","180","200","260","200","36000","52000","[1,3]"
"","canvas-keyboard-response","141","164261","0.0-4.0-5.22","4","1","2022-10-30 15:48:49","9287328b6538abcab06ee41daf2c5e0a","","Mozilla/5.0 (Macintosh; Intel Mac OS X 10_15_7) AppleWebKit/537.36 (KHTML, like Gecko) Chrome/106.0.0.0 Safari/537.36","Macintosh","Chrome","106.0.0.0","OS X","10_15_7","sean","null","null","clear_screen","","","catch","l","sh","sw","220","284","171","182","215","161","spektor","null","null","null","null","null","null","null","null","null","null","null","","180","200","260","200","36000","52000","[1,3]"
"","canvas-keyboard-response","142","164466","0.0-4.0-0.23","4","1","2022-10-30 15:48:49","9287328b6538abcab06ee41daf2c5e0a","","Mozilla/5.0 (Macintosh; Intel Mac OS X 10_15_7) AppleWebKit/537.36 (KHTML, like Gecko) Chrome/106.0.0.0 Safari/537.36","Macintosh","Chrome","106.0.0.0","OS X","10_15_7","sean","null","null","pre trial waiting period","","","catch","l","sh","sw","225","251","174","149","160","165","spektor","null","null","null","null","null","null","null","null","null","null","null","","180","200","260","200","36000","52000","[1,2]"
"","canvas-keyboard-response","143","164622","0.0-4.0-1.23","4","1","2022-10-30 15:48:49","9287328b6538abcab06ee41daf2c5e0a","","Mozilla/5.0 (Macintosh; Intel Mac OS X 10_15_7) AppleWebKit/537.36 (KHTML, like Gecko) Chrome/106.0.0.0 Safari/537.36","Macintosh","Chrome","106.0.0.0","OS X","10_15_7","sean","null","null","clear_screen","","","catch","l","sh","sw","225","251","174","149","160","165","spektor","null","null","null","null","null","null","null","null","null","null","null","","180","200","260","200","36000","52000","[1,2]"
"","canvas-keyboard-response","144","165928","0.0-4.0-2.23","4","1","2022-10-30 15:48:49","9287328b6538abcab06ee41daf2c5e0a","","Mozilla/5.0 (Macintosh; Intel Mac OS X 10_15_7) AppleWebKit/537.36 (KHTML, like Gecko) Chrome/106.0.0.0 Safari/537.36","Macintosh","Chrome","106.0.0.0","OS X","10_15_7","sean","null","null","rectangles","","","catch","l","sh","sw","225","251","174","149","160","165","spektor","null","null","null","null","null","null","null","null","null","null","null","","180","200","260","200","36000","52000","[1,2]"
"","canvas-keyboard-response","145","166085","0.0-4.0-3.23","4","1","2022-10-30 15:48:49","9287328b6538abcab06ee41daf2c5e0a","","Mozilla/5.0 (Macintosh; Intel Mac OS X 10_15_7) AppleWebKit/537.36 (KHTML, like Gecko) Chrome/106.0.0.0 Safari/537.36","Macintosh","Chrome","106.0.0.0","OS X","10_15_7","sean","null","null","clear_screen","","","catch","l","sh","sw","225","251","174","149","160","165","spektor","null","null","null","null","null","null","null","null","null","null","null","","180","200","260","200","36000","52000","[1,2]"
"","canvas-keyboard-response","146","166432","0.0-4.0-4.23","4","1","2022-10-30 15:48:49","9287328b6538abcab06ee41daf2c5e0a","","Mozilla/5.0 (Macintosh; Intel Mac OS X 10_15_7) AppleWebKit/537.36 (KHTML, like Gecko) Chrome/106.0.0.0 Safari/537.36","Macintosh","Chrome","106.0.0.0","OS X","10_15_7","sean","342","1","make choice","","","catch","l","sh","sw","225","251","174","149","160","165","spektor","null","null","null","null","null","null","null","null","null","null","null","","180","200","260","200","36000","52000","[1,2]"
"","canvas-keyboard-response","147","166591","0.0-4.0-5.23","4","1","2022-10-30 15:48:49","9287328b6538abcab06ee41daf2c5e0a","","Mozilla/5.0 (Macintosh; Intel Mac OS X 10_15_7) AppleWebKit/537.36 (KHTML, like Gecko) Chrome/106.0.0.0 Safari/537.36","Macintosh","Chrome","106.0.0.0","OS X","10_15_7","sean","null","null","clear_screen","","","catch","l","sh","sw","225","251","174","149","160","165","spektor","null","null","null","null","null","null","null","null","null","null","null","","180","200","260","200","36000","52000","[1,2]"
"","canvas-keyboard-response","148","166798","0.0-4.0-0.24","4","1","2022-10-30 15:48:49","9287328b6538abcab06ee41daf2c5e0a","","Mozilla/5.0 (Macintosh; Intel Mac OS X 10_15_7) AppleWebKit/537.36 (KHTML, like Gecko) Chrome/106.0.0.0 Safari/537.36","Macintosh","Chrome","106.0.0.0","OS X","10_15_7","sean","null","null","pre trial waiting period","","","critical","t","c","d","164","240","240","164","160.6713","232.8713","trueblood","0.05","h","164","240","240","164","160.6713","232.8713","39360","39360","37415.7294","tc","null","null","null","null","null","null","[1,2]"
"","canvas-keyboard-response","149","166955","0.0-4.0-1.24","4","1","2022-10-30 15:48:49","9287328b6538abcab06ee41daf2c5e0a","","Mozilla/5.0 (Macintosh; Intel Mac OS X 10_15_7) AppleWebKit/537.36 (KHTML, like Gecko) Chrome/106.0.0.0 Safari/537.36","Macintosh","Chrome","106.0.0.0","OS X","10_15_7","sean","null","null","clear_screen","","","critical","t","c","d","164","240","240","164","160.6713","232.8713","trueblood","0.05","h","164","240","240","164","160.6713","232.8713","39360","39360","37415.7294","tc","null","null","null","null","null","null","[1,2]"
"","canvas-keyboard-response","150","168262","0.0-4.0-2.24","4","1","2022-10-30 15:48:49","9287328b6538abcab06ee41daf2c5e0a","","Mozilla/5.0 (Macintosh; Intel Mac OS X 10_15_7) AppleWebKit/537.36 (KHTML, like Gecko) Chrome/106.0.0.0 Safari/537.36","Macintosh","Chrome","106.0.0.0","OS X","10_15_7","sean","null","null","rectangles","","","critical","t","c","d","164","240","240","164","160.6713","232.8713","trueblood","0.05","h","164","240","240","164","160.6713","232.8713","39360","39360","37415.7294","tc","null","null","null","null","null","null","[1,2]"
"","canvas-keyboard-response","151","168425","0.0-4.0-3.24","4","1","2022-10-30 15:48:49","9287328b6538abcab06ee41daf2c5e0a","","Mozilla/5.0 (Macintosh; Intel Mac OS X 10_15_7) AppleWebKit/537.36 (KHTML, like Gecko) Chrome/106.0.0.0 Safari/537.36","Macintosh","Chrome","106.0.0.0","OS X","10_15_7","sean","null","null","clear_screen","","","critical","t","c","d","164","240","240","164","160.6713","232.8713","trueblood","0.05","h","164","240","240","164","160.6713","232.8713","39360","39360","37415.7294","tc","null","null","null","null","null","null","[1,2]"
"","canvas-keyboard-response","152","169018","0.0-4.0-4.24","4","1","2022-10-30 15:48:49","9287328b6538abcab06ee41daf2c5e0a","","Mozilla/5.0 (Macintosh; Intel Mac OS X 10_15_7) AppleWebKit/537.36 (KHTML, like Gecko) Chrome/106.0.0.0 Safari/537.36","Macintosh","Chrome","106.0.0.0","OS X","10_15_7","sean","587","2","make choice","","","critical","t","c","d","164","240","240","164","160.6713","232.8713","trueblood","0.05","h","164","240","240","164","160.6713","232.8713","39360","39360","37415.7294","tc","null","null","null","null","null","null","[1,2]"
"","canvas-keyboard-response","153","169175","0.0-4.0-5.24","4","1","2022-10-30 15:48:49","9287328b6538abcab06ee41daf2c5e0a","","Mozilla/5.0 (Macintosh; Intel Mac OS X 10_15_7) AppleWebKit/537.36 (KHTML, like Gecko) Chrome/106.0.0.0 Safari/537.36","Macintosh","Chrome","106.0.0.0","OS X","10_15_7","sean","null","null","clear_screen","","","critical","t","c","d","164","240","240","164","160.6713","232.8713","trueblood","0.05","h","164","240","240","164","160.6713","232.8713","39360","39360","37415.7294","tc","null","null","null","null","null","null","[1,2]"
"","canvas-keyboard-response","154","169385","0.0-4.0-0.25","4","1","2022-10-30 15:48:49","9287328b6538abcab06ee41daf2c5e0a","","Mozilla/5.0 (Macintosh; Intel Mac OS X 10_15_7) AppleWebKit/537.36 (KHTML, like Gecko) Chrome/106.0.0.0 Safari/537.36","Macintosh","Chrome","106.0.0.0","OS X","10_15_7","sean","null","null","pre trial waiting period","","","catch","l","sh","sw","223","240","205","175","215","216","spektor","null","null","null","null","null","null","null","null","null","null","null","","180","200","260","200","36000","52000","[1,3]"
"","canvas-keyboard-response","155","169543","0.0-4.0-1.25","4","1","2022-10-30 15:48:49","9287328b6538abcab06ee41daf2c5e0a","","Mozilla/5.0 (Macintosh; Intel Mac OS X 10_15_7) AppleWebKit/537.36 (KHTML, like Gecko) Chrome/106.0.0.0 Safari/537.36","Macintosh","Chrome","106.0.0.0","OS X","10_15_7","sean","null","null","clear_screen","","","catch","l","sh","sw","223","240","205","175","215","216","spektor","null","null","null","null","null","null","null","null","null","null","null","","180","200","260","200","36000","52000","[1,3]"
"","canvas-keyboard-response","156","170863","0.0-4.0-2.25","4","1","2022-10-30 15:48:49","9287328b6538abcab06ee41daf2c5e0a","","Mozilla/5.0 (Macintosh; Intel Mac OS X 10_15_7) AppleWebKit/537.36 (KHTML, like Gecko) Chrome/106.0.0.0 Safari/537.36","Macintosh","Chrome","106.0.0.0","OS X","10_15_7","sean","null","null","rectangles","","","catch","l","sh","sw","223","240","205","175","215","216","spektor","null","null","null","null","null","null","null","null","null","null","null","","180","200","260","200","36000","52000","[1,3]"
"","canvas-keyboard-response","157","171023","0.0-4.0-3.25","4","1","2022-10-30 15:48:49","9287328b6538abcab06ee41daf2c5e0a","","Mozilla/5.0 (Macintosh; Intel Mac OS X 10_15_7) AppleWebKit/537.36 (KHTML, like Gecko) Chrome/106.0.0.0 Safari/537.36","Macintosh","Chrome","106.0.0.0","OS X","10_15_7","sean","null","null","clear_screen","","","catch","l","sh","sw","223","240","205","175","215","216","spektor","null","null","null","null","null","null","null","null","null","null","null","","180","200","260","200","36000","52000","[1,3]"
"","canvas-keyboard-response","158","171389","0.0-4.0-4.25","4","1","2022-10-30 15:48:49","9287328b6538abcab06ee41daf2c5e0a","","Mozilla/5.0 (Macintosh; Intel Mac OS X 10_15_7) AppleWebKit/537.36 (KHTML, like Gecko) Chrome/106.0.0.0 Safari/537.36","Macintosh","Chrome","106.0.0.0","OS X","10_15_7","sean","360","1","make choice","","","catch","l","sh","sw","223","240","205","175","215","216","spektor","null","null","null","null","null","null","null","null","null","null","null","","180","200","260","200","36000","52000","[1,3]"
"","canvas-keyboard-response","159","171548","0.0-4.0-5.25","4","1","2022-10-30 15:48:49","9287328b6538abcab06ee41daf2c5e0a","","Mozilla/5.0 (Macintosh; Intel Mac OS X 10_15_7) AppleWebKit/537.36 (KHTML, like Gecko) Chrome/106.0.0.0 Safari/537.36","Macintosh","Chrome","106.0.0.0","OS X","10_15_7","sean","null","null","clear_screen","","","catch","l","sh","sw","223","240","205","175","215","216","spektor","null","null","null","null","null","null","null","null","null","null","null","","180","200","260","200","36000","52000","[1,3]"
"","canvas-keyboard-response","160","171756","0.0-4.0-0.26","4","1","2022-10-30 15:48:49","9287328b6538abcab06ee41daf2c5e0a","","Mozilla/5.0 (Macintosh; Intel Mac OS X 10_15_7) AppleWebKit/537.36 (KHTML, like Gecko) Chrome/106.0.0.0 Safari/537.36","Macintosh","Chrome","106.0.0.0","OS X","10_15_7","sean","null","null","pre trial waiting period","","","catch","sh","sw","l","208","189","194","216","207","222","trueblood","null","null","null","null","null","null","null","null","null","null","null","","180","200","260","200","36000","52000","[1,3]"
"","canvas-keyboard-response","161","171927","0.0-4.0-1.26","4","1","2022-10-30 15:48:49","9287328b6538abcab06ee41daf2c5e0a","","Mozilla/5.0 (Macintosh; Intel Mac OS X 10_15_7) AppleWebKit/537.36 (KHTML, like Gecko) Chrome/106.0.0.0 Safari/537.36","Macintosh","Chrome","106.0.0.0","OS X","10_15_7","sean","null","null","clear_screen","","","catch","sh","sw","l","208","189","194","216","207","222","trueblood","null","null","null","null","null","null","null","null","null","null","null","","180","200","260","200","36000","52000","[1,3]"
"","canvas-keyboard-response","162","173234","0.0-4.0-2.26","4","1","2022-10-30 15:48:49","9287328b6538abcab06ee41daf2c5e0a","","Mozilla/5.0 (Macintosh; Intel Mac OS X 10_15_7) AppleWebKit/537.36 (KHTML, like Gecko) Chrome/106.0.0.0 Safari/537.36","Macintosh","Chrome","106.0.0.0","OS X","10_15_7","sean","null","null","rectangles","","","catch","sh","sw","l","208","189","194","216","207","222","trueblood","null","null","null","null","null","null","null","null","null","null","null","","180","200","260","200","36000","52000","[1,3]"
"","canvas-keyboard-response","163","173390","0.0-4.0-3.26","4","1","2022-10-30 15:48:49","9287328b6538abcab06ee41daf2c5e0a","","Mozilla/5.0 (Macintosh; Intel Mac OS X 10_15_7) AppleWebKit/537.36 (KHTML, like Gecko) Chrome/106.0.0.0 Safari/537.36","Macintosh","Chrome","106.0.0.0","OS X","10_15_7","sean","null","null","clear_screen","","","catch","sh","sw","l","208","189","194","216","207","222","trueblood","null","null","null","null","null","null","null","null","null","null","null","","180","200","260","200","36000","52000","[1,3]"
"","canvas-keyboard-response","164","174362","0.0-4.0-4.26","4","1","2022-10-30 15:48:49","9287328b6538abcab06ee41daf2c5e0a","","Mozilla/5.0 (Macintosh; Intel Mac OS X 10_15_7) AppleWebKit/537.36 (KHTML, like Gecko) Chrome/106.0.0.0 Safari/537.36","Macintosh","Chrome","106.0.0.0","OS X","10_15_7","sean","966","1","make choice","","","catch","sh","sw","l","208","189","194","216","207","222","trueblood","null","null","null","null","null","null","null","null","null","null","null","","180","200","260","200","36000","52000","[1,3]"
"","canvas-keyboard-response","165","174533","0.0-4.0-5.26","4","1","2022-10-30 15:48:49","9287328b6538abcab06ee41daf2c5e0a","","Mozilla/5.0 (Macintosh; Intel Mac OS X 10_15_7) AppleWebKit/537.36 (KHTML, like Gecko) Chrome/106.0.0.0 Safari/537.36","Macintosh","Chrome","106.0.0.0","OS X","10_15_7","sean","null","null","clear_screen","","","catch","sh","sw","l","208","189","194","216","207","222","trueblood","null","null","null","null","null","null","null","null","null","null","null","","180","200","260","200","36000","52000","[1,3]"
"","canvas-keyboard-response","166","174740","0.0-4.0-0.27","4","1","2022-10-30 15:48:49","9287328b6538abcab06ee41daf2c5e0a","","Mozilla/5.0 (Macintosh; Intel Mac OS X 10_15_7) AppleWebKit/537.36 (KHTML, like Gecko) Chrome/106.0.0.0 Safari/537.36","Macintosh","Chrome","106.0.0.0","OS X","10_15_7","sean","null","null","pre trial waiting period","","","catch","sw","sh","l","180","200","172","158","234","177","trueblood","null","null","null","null","null","null","null","null","null","null","null","","180","200","260","200","36000","52000","[1,3]"
"","canvas-keyboard-response","167","174897","0.0-4.0-1.27","4","1","2022-10-30 15:48:49","9287328b6538abcab06ee41daf2c5e0a","","Mozilla/5.0 (Macintosh; Intel Mac OS X 10_15_7) AppleWebKit/537.36 (KHTML, like Gecko) Chrome/106.0.0.0 Safari/537.36","Macintosh","Chrome","106.0.0.0","OS X","10_15_7","sean","null","null","clear_screen","","","catch","sw","sh","l","180","200","172","158","234","177","trueblood","null","null","null","null","null","null","null","null","null","null","null","","180","200","260","200","36000","52000","[1,3]"
"","canvas-keyboard-response","168","176207","0.0-4.0-2.27","4","1","2022-10-30 15:48:49","9287328b6538abcab06ee41daf2c5e0a","","Mozilla/5.0 (Macintosh; Intel Mac OS X 10_15_7) AppleWebKit/537.36 (KHTML, like Gecko) Chrome/106.0.0.0 Safari/537.36","Macintosh","Chrome","106.0.0.0","OS X","10_15_7","sean","null","null","rectangles","","","catch","sw","sh","l","180","200","172","158","234","177","trueblood","null","null","null","null","null","null","null","null","null","null","null","","180","200","260","200","36000","52000","[1,3]"
"","canvas-keyboard-response","169","176364","0.0-4.0-3.27","4","1","2022-10-30 15:48:49","9287328b6538abcab06ee41daf2c5e0a","","Mozilla/5.0 (Macintosh; Intel Mac OS X 10_15_7) AppleWebKit/537.36 (KHTML, like Gecko) Chrome/106.0.0.0 Safari/537.36","Macintosh","Chrome","106.0.0.0","OS X","10_15_7","sean","null","null","clear_screen","","","catch","sw","sh","l","180","200","172","158","234","177","trueblood","null","null","null","null","null","null","null","null","null","null","null","","180","200","260","200","36000","52000","[1,3]"
"","canvas-keyboard-response","170","176786","0.0-4.0-4.27","4","1","2022-10-30 15:48:49","9287328b6538abcab06ee41daf2c5e0a","","Mozilla/5.0 (Macintosh; Intel Mac OS X 10_15_7) AppleWebKit/537.36 (KHTML, like Gecko) Chrome/106.0.0.0 Safari/537.36","Macintosh","Chrome","106.0.0.0","OS X","10_15_7","sean","416","1","make choice","","","catch","sw","sh","l","180","200","172","158","234","177","trueblood","null","null","null","null","null","null","null","null","null","null","null","","180","200","260","200","36000","52000","[1,3]"
"","canvas-keyboard-response","171","176943","0.0-4.0-5.27","4","1","2022-10-30 15:48:49","9287328b6538abcab06ee41daf2c5e0a","","Mozilla/5.0 (Macintosh; Intel Mac OS X 10_15_7) AppleWebKit/537.36 (KHTML, like Gecko) Chrome/106.0.0.0 Safari/537.36","Macintosh","Chrome","106.0.0.0","OS X","10_15_7","sean","null","null","clear_screen","","","catch","sw","sh","l","180","200","172","158","234","177","trueblood","null","null","null","null","null","null","null","null","null","null","null","","180","200","260","200","36000","52000","[1,3]"
"","canvas-keyboard-response","172","177151","0.0-4.0-0.28","4","1","2022-10-30 15:48:49","9287328b6538abcab06ee41daf2c5e0a","","Mozilla/5.0 (Macintosh; Intel Mac OS X 10_15_7) AppleWebKit/537.36 (KHTML, like Gecko) Chrome/106.0.0.0 Safari/537.36","Macintosh","Chrome","106.0.0.0","OS X","10_15_7","sean","null","null","pre trial waiting period","","","critical","d","t","c","158.0083","227.1683","164","240","240","164","trueblood","0.09","h","164","240","240","164","158.0083","227.1683","39360","39360","35894.4834","tc","null","null","null","null","null","null","[2,3]"
"","canvas-keyboard-response","173","177310","0.0-4.0-1.28","4","1","2022-10-30 15:48:49","9287328b6538abcab06ee41daf2c5e0a","","Mozilla/5.0 (Macintosh; Intel Mac OS X 10_15_7) AppleWebKit/537.36 (KHTML, like Gecko) Chrome/106.0.0.0 Safari/537.36","Macintosh","Chrome","106.0.0.0","OS X","10_15_7","sean","null","null","clear_screen","","","critical","d","t","c","158.0083","227.1683","164","240","240","164","trueblood","0.09","h","164","240","240","164","158.0083","227.1683","39360","39360","35894.4834","tc","null","null","null","null","null","null","[2,3]"
"","canvas-keyboard-response","174","178618","0.0-4.0-2.28","4","1","2022-10-30 15:48:49","9287328b6538abcab06ee41daf2c5e0a","","Mozilla/5.0 (Macintosh; Intel Mac OS X 10_15_7) AppleWebKit/537.36 (KHTML, like Gecko) Chrome/106.0.0.0 Safari/537.36","Macintosh","Chrome","106.0.0.0","OS X","10_15_7","sean","null","null","rectangles","","","critical","d","t","c","158.0083","227.1683","164","240","240","164","trueblood","0.09","h","164","240","240","164","158.0083","227.1683","39360","39360","35894.4834","tc","null","null","null","null","null","null","[2,3]"
"","canvas-keyboard-response","175","178786","0.0-4.0-3.28","4","1","2022-10-30 15:48:49","9287328b6538abcab06ee41daf2c5e0a","","Mozilla/5.0 (Macintosh; Intel Mac OS X 10_15_7) AppleWebKit/537.36 (KHTML, like Gecko) Chrome/106.0.0.0 Safari/537.36","Macintosh","Chrome","106.0.0.0","OS X","10_15_7","sean","null","null","clear_screen","","","critical","d","t","c","158.0083","227.1683","164","240","240","164","trueblood","0.09","h","164","240","240","164","158.0083","227.1683","39360","39360","35894.4834","tc","null","null","null","null","null","null","[2,3]"
"","canvas-keyboard-response","176","181728","0.0-4.0-4.28","4","1","2022-10-30 15:48:49","9287328b6538abcab06ee41daf2c5e0a","","Mozilla/5.0 (Macintosh; Intel Mac OS X 10_15_7) AppleWebKit/537.36 (KHTML, like Gecko) Chrome/106.0.0.0 Safari/537.36","Macintosh","Chrome","106.0.0.0","OS X","10_15_7","sean","2935","2","make choice","","","critical","d","t","c","158.0083","227.1683","164","240","240","164","trueblood","0.09","h","164","240","240","164","158.0083","227.1683","39360","39360","35894.4834","tc","null","null","null","null","null","null","[2,3]"
"","canvas-keyboard-response","177","181885","0.0-4.0-5.28","4","1","2022-10-30 15:48:49","9287328b6538abcab06ee41daf2c5e0a","","Mozilla/5.0 (Macintosh; Intel Mac OS X 10_15_7) AppleWebKit/537.36 (KHTML, like Gecko) Chrome/106.0.0.0 Safari/537.36","Macintosh","Chrome","106.0.0.0","OS X","10_15_7","sean","null","null","clear_screen","","","critical","d","t","c","158.0083","227.1683","164","240","240","164","trueblood","0.09","h","164","240","240","164","158.0083","227.1683","39360","39360","35894.4834","tc","null","null","null","null","null","null","[2,3]"
"","canvas-keyboard-response","178","182091","0.0-4.0-0.29","4","1","2022-10-30 15:48:49","9287328b6538abcab06ee41daf2c5e0a","","Mozilla/5.0 (Macintosh; Intel Mac OS X 10_15_7) AppleWebKit/537.36 (KHTML, like Gecko) Chrome/106.0.0.0 Safari/537.36","Macintosh","Chrome","106.0.0.0","OS X","10_15_7","sean","null","null","pre trial waiting period","","","critical","t","d","c","240","164","240","164","164","240","trueblood","0","w","240","164","164","240","240","164","39360","39360","39360","tc","null","null","null","null","null","null","[1,3]"
"","canvas-keyboard-response","179","182250","0.0-4.0-1.29","4","1","2022-10-30 15:48:49","9287328b6538abcab06ee41daf2c5e0a","","Mozilla/5.0 (Macintosh; Intel Mac OS X 10_15_7) AppleWebKit/537.36 (KHTML, like Gecko) Chrome/106.0.0.0 Safari/537.36","Macintosh","Chrome","106.0.0.0","OS X","10_15_7","sean","null","null","clear_screen","","","critical","t","d","c","240","164","240","164","164","240","trueblood","0","w","240","164","164","240","240","164","39360","39360","39360","tc","null","null","null","null","null","null","[1,3]"
