"success","trial_type","trial_index","time_elapsed","internal_node_id","sub_n","timeout","failed_images","failed_audio","failed_video","screen_id","rt","response","stimulus","view_history","trial","r1","r2","r3","w1","h1","w2","h2","w3","h3","display","tdd","tdo","tw","th","cw","ch","dw","dh","ta","ca","da","probe","csls","csss","clls","clss","sa","la","probe_rects"
"true","fullscreen","0","2058","0.0-0.0","5006","","","","","","","","","","","","","","","","","","","","","","","","","","","","","","","","","","","","","","",""
"true","preload","1","2074","0.0-1.0","5006","false","[]","[]","[]","img preload","","","","","","","","","","","","","","","","","","","","","","","","","","","","","","","","","",""
"","survey-html-form","2","3266","0.0-2.0","5006","","","","","enter-sub-number","1187","{""response"":""5006""}","","","","","","","","","","","","","","","","","","","","","","","","","","","","","","","",""
"","image-button-response","3","30208","0.0-3.0","5006","","","","","","26877","0","consent.png","","","","","","","","","","","","","","","","","","","","","","","","","","","","","","",""
"","html-button-response","4","37599","0.0-4.0","5006","","","","","intro mssg","7386","0","<div style= ""font-size:25px;"" <p> <strong> Welcome! </strong><br> <p style=""color:#8B0000; font-size:25px;""><strong> Please do NOT exit full screen until you are done with the experiment. </strong> </p><p style=""font-size:25px;color:#8B0000;""> <strong> Your data will be lost <br> if you try to go back or refresh the page after the experiment starts. Feel free to click ""previous"" during the instructions, however.</strong> </p><br><p> <strong> Thanks in advance for your contribution to our research! </strong></p>","","","","","","","","","","","","","","","","","","","","","","","","","","","","","","",""
"","instructions","5","76591","0.0-5.0","5006","","","","","instructions","38986","","","[{""page_index"":0,""viewing_time"":5145},{""page_index"":1,""viewing_time"":7960},{""page_index"":2,""viewing_time"":2400},{""page_index"":3,""viewing_time"":9521},{""page_index"":4,""viewing_time"":4215},{""page_index"":5,""viewing_time"":2200},{""page_index"":6,""viewing_time"":2664},{""page_index"":7,""viewing_time"":4880}]","","","","","","","","","","","","","","","","","","","","","","","","","","","","","",""
"","canvas-keyboard-response","6","76799","0.0-6.0-0.0","5006","","","","","pre trial waiting period","null","null","","","critical","t","c","d","240","164","164","240","240","164","trueblood","0","w","240","164","164","240","240","164","39360","39360","39360","dc","null","null","null","null","null","null","[3,2]"
"","canvas-keyboard-response","7","76964","0.0-6.0-1.0","5006","","","","","clear_screen","null","null","","","critical","t","c","d","240","164","164","240","240","164","trueblood","0","w","240","164","164","240","240","164","39360","39360","39360","dc","null","null","null","null","null","null","[3,2]"
"","canvas-keyboard-response","8","78307","0.0-6.0-2.0","5006","","","","","rectangles","null","null","","","critical","t","c","d","240","164","164","240","240","164","trueblood","0","w","240","164","164","240","240","164","39360","39360","39360","dc","null","null","null","null","null","null","[3,2]"
"","canvas-keyboard-response","9","78471","0.0-6.0-3.0","5006","","","","","clear_screen","null","null","","","critical","t","c","d","240","164","164","240","240","164","trueblood","0","w","240","164","164","240","240","164","39360","39360","39360","dc","null","null","null","null","null","null","[3,2]"
"","canvas-keyboard-response","10","80375","0.0-6.0-4.0","5006","","","","","make choice","1888","2","","","critical","t","c","d","240","164","164","240","240","164","trueblood","0","w","240","164","164","240","240","164","39360","39360","39360","dc","null","null","null","null","null","null","[3,2]"
"","canvas-keyboard-response","11","80536","0.0-6.0-5.0","5006","","","","","clear_screen","null","null","","","critical","t","c","d","240","164","164","240","240","164","trueblood","0","w","240","164","164","240","240","164","39360","39360","39360","dc","null","null","null","null","null","null","[3,2]"
"","canvas-keyboard-response","12","80742","0.0-6.0-0.1","5006","","","","","pre trial waiting period","null","null","","","critical","c","t","d","164","240","240","164","240","164","spektor","0","w","240","164","164","240","240","164","39360","39360","39360","tc","null","null","null","null","null","null","[2,1]"
"","canvas-keyboard-response","13","80906","0.0-6.0-1.1","5006","","","","","clear_screen","null","null","","","critical","c","t","d","164","240","240","164","240","164","spektor","0","w","240","164","164","240","240","164","39360","39360","39360","tc","null","null","null","null","null","null","[2,1]"
"","canvas-keyboard-response","14","82241","0.0-6.0-2.1","5006","","","","","rectangles","null","null","","","critical","c","t","d","164","240","240","164","240","164","spektor","0","w","240","164","164","240","240","164","39360","39360","39360","tc","null","null","null","null","null","null","[2,1]"
"","canvas-keyboard-response","15","82401","0.0-6.0-3.1","5006","","","","","clear_screen","null","null","","","critical","c","t","d","164","240","240","164","240","164","spektor","0","w","240","164","164","240","240","164","39360","39360","39360","tc","null","null","null","null","null","null","[2,1]"
"","canvas-keyboard-response","16","85383","0.0-6.0-4.1","5006","","","","","make choice","2966","1","","","critical","c","t","d","164","240","240","164","240","164","spektor","0","w","240","164","164","240","240","164","39360","39360","39360","tc","null","null","null","null","null","null","[2,1]"
"","canvas-keyboard-response","17","85543","0.0-6.0-5.1","5006","","","","","clear_screen","null","null","","","critical","c","t","d","164","240","240","164","240","164","spektor","0","w","240","164","164","240","240","164","39360","39360","39360","tc","null","null","null","null","null","null","[2,1]"
"","canvas-keyboard-response","18","85746","0.0-6.0-0.2","5006","","","","","pre trial waiting period","null","null","","","catch","l","sw","sh","174","261","170","232","161","187","spektor","null","null","null","null","null","null","null","null","null","null","null","","180","200","260","200","36000","52000","[1,3]"
"","canvas-keyboard-response","19","85907","0.0-6.0-1.2","5006","","","","","clear_screen","null","null","","","catch","l","sw","sh","174","261","170","232","161","187","spektor","null","null","null","null","null","null","null","null","null","null","null","","180","200","260","200","36000","52000","[1,3]"
"","canvas-keyboard-response","20","87244","0.0-6.0-2.2","5006","","","","","rectangles","null","null","","","catch","l","sw","sh","174","261","170","232","161","187","spektor","null","null","null","null","null","null","null","null","null","null","null","","180","200","260","200","36000","52000","[1,3]"
"","canvas-keyboard-response","21","87406","0.0-6.0-3.2","5006","","","","","clear_screen","null","null","","","catch","l","sw","sh","174","261","170","232","161","187","spektor","null","null","null","null","null","null","null","null","null","null","null","","180","200","260","200","36000","52000","[1,3]"
"","canvas-keyboard-response","22","88350","0.0-6.0-4.2","5006","","","","","make choice","930","1","","","catch","l","sw","sh","174","261","170","232","161","187","spektor","null","null","null","null","null","null","null","null","null","null","null","","180","200","260","200","36000","52000","[1,3]"
"","canvas-keyboard-response","23","88511","0.0-6.0-5.2","5006","","","","","clear_screen","null","null","","","catch","l","sw","sh","174","261","170","232","161","187","spektor","null","null","null","null","null","null","null","null","null","null","null","","180","200","260","200","36000","52000","[1,3]"
"","canvas-keyboard-response","24","88717","0.0-6.0-0.3","5006","","","","","pre trial waiting period","null","null","","","catch","l","sw","sh","186","275","188","216","189","193","trueblood","null","null","null","null","null","null","null","null","null","null","null","","180","200","260","200","36000","52000","[1,3]"
"","canvas-keyboard-response","25","88876","0.0-6.0-1.3","5006","","","","","clear_screen","null","null","","","catch","l","sw","sh","186","275","188","216","189","193","trueblood","null","null","null","null","null","null","null","null","null","null","null","","180","200","260","200","36000","52000","[1,3]"
"","canvas-keyboard-response","26","90214","0.0-6.0-2.3","5006","","","","","rectangles","null","null","","","catch","l","sw","sh","186","275","188","216","189","193","trueblood","null","null","null","null","null","null","null","null","null","null","null","","180","200","260","200","36000","52000","[1,3]"
"","canvas-keyboard-response","27","90381","0.0-6.0-3.3","5006","","","","","clear_screen","null","null","","","catch","l","sw","sh","186","275","188","216","189","193","trueblood","null","null","null","null","null","null","null","null","null","null","null","","180","200","260","200","36000","52000","[1,3]"
"","canvas-keyboard-response","28","91758","0.0-6.0-4.3","5006","","","","","make choice","1366","1","","","catch","l","sw","sh","186","275","188","216","189","193","trueblood","null","null","null","null","null","null","null","null","null","null","null","","180","200","260","200","36000","52000","[1,3]"
"","canvas-keyboard-response","29","91920","0.0-6.0-5.3","5006","","","","","clear_screen","null","null","","","catch","l","sw","sh","186","275","188","216","189","193","trueblood","null","null","null","null","null","null","null","null","null","null","null","","180","200","260","200","36000","52000","[1,3]"
"","canvas-keyboard-response","30","92126","0.0-6.0-0.4","5006","","","","","pre trial waiting period","null","null","","","critical","c","d","t","164","240","220.0396","154.6796","240","164","trueblood","0.14","w","240","164","164","240","220.0396","154.6796","39360","39360","34035.6388","td","null","null","null","null","null","null","[3,2]"
"","canvas-keyboard-response","31","92286","0.0-6.0-1.4","5006","","","","","clear_screen","null","null","","","critical","c","d","t","164","240","220.0396","154.6796","240","164","trueblood","0.14","w","240","164","164","240","220.0396","154.6796","39360","39360","34035.6388","td","null","null","null","null","null","null","[3,2]"
"","canvas-keyboard-response","32","93626","0.0-6.0-2.4","5006","","","","","rectangles","null","null","","","critical","c","d","t","164","240","220.0396","154.6796","240","164","trueblood","0.14","w","240","164","164","240","220.0396","154.6796","39360","39360","34035.6388","td","null","null","null","null","null","null","[3,2]"
"","canvas-keyboard-response","33","93789","0.0-6.0-3.4","5006","","","","","clear_screen","null","null","","","critical","c","d","t","164","240","220.0396","154.6796","240","164","trueblood","0.14","w","240","164","164","240","220.0396","154.6796","39360","39360","34035.6388","td","null","null","null","null","null","null","[3,2]"
"","canvas-keyboard-response","34","94830","0.0-6.0-4.4","5006","","","","","make choice","1032","3","","","critical","c","d","t","164","240","220.0396","154.6796","240","164","trueblood","0.14","w","240","164","164","240","220.0396","154.6796","39360","39360","34035.6388","td","null","null","null","null","null","null","[3,2]"
"","canvas-keyboard-response","35","94990","0.0-6.0-5.4","5006","","","","","clear_screen","null","null","","","critical","c","d","t","164","240","220.0396","154.6796","240","164","trueblood","0.14","w","240","164","164","240","220.0396","154.6796","39360","39360","34035.6388","td","null","null","null","null","null","null","[3,2]"
"","canvas-keyboard-response","36","95197","0.0-6.0-0.5","5006","","","","","pre trial waiting period","null","null","","","catch","sw","l","sh","180","200","217","234","184","170","trueblood","null","null","null","null","null","null","null","null","null","null","null","","180","200","260","200","36000","52000","[2,3]"
"","canvas-keyboard-response","37","95355","0.0-6.0-1.5","5006","","","","","clear_screen","null","null","","","catch","sw","l","sh","180","200","217","234","184","170","trueblood","null","null","null","null","null","null","null","null","null","null","null","","180","200","260","200","36000","52000","[2,3]"
"","canvas-keyboard-response","38","96694","0.0-6.0-2.5","5006","","","","","rectangles","null","null","","","catch","sw","l","sh","180","200","217","234","184","170","trueblood","null","null","null","null","null","null","null","null","null","null","null","","180","200","260","200","36000","52000","[2,3]"
"","canvas-keyboard-response","39","96856","0.0-6.0-3.5","5006","","","","","clear_screen","null","null","","","catch","sw","l","sh","180","200","217","234","184","170","trueblood","null","null","null","null","null","null","null","null","null","null","null","","180","200","260","200","36000","52000","[2,3]"
"","canvas-keyboard-response","40","97590","0.0-6.0-4.5","5006","","","","","make choice","723","2","","","catch","sw","l","sh","180","200","217","234","184","170","trueblood","null","null","null","null","null","null","null","null","null","null","null","","180","200","260","200","36000","52000","[2,3]"
"","canvas-keyboard-response","41","97752","0.0-6.0-5.5","5006","","","","","clear_screen","null","null","","","catch","sw","l","sh","180","200","217","234","184","170","trueblood","null","null","null","null","null","null","null","null","null","null","null","","180","200","260","200","36000","52000","[2,3]"
"","canvas-keyboard-response","42","97959","0.0-6.0-0.6","5006","","","","","pre trial waiting period","null","null","","","critical","t","d","c","240","164","240","164","164","240","trueblood","0","w","240","164","164","240","240","164","39360","39360","39360","td","null","null","null","null","null","null","[1,2]"
"","canvas-keyboard-response","43","98113","0.0-6.0-1.6","5006","","","","","clear_screen","null","null","","","critical","t","d","c","240","164","240","164","164","240","trueblood","0","w","240","164","164","240","240","164","39360","39360","39360","td","null","null","null","null","null","null","[1,2]"
"","canvas-keyboard-response","44","99450","0.0-6.0-2.6","5006","","","","","rectangles","null","null","","","critical","t","d","c","240","164","240","164","164","240","trueblood","0","w","240","164","164","240","240","164","39360","39360","39360","td","null","null","null","null","null","null","[1,2]"
"","canvas-keyboard-response","45","99612","0.0-6.0-3.6","5006","","","","","clear_screen","null","null","","","critical","t","d","c","240","164","240","164","164","240","trueblood","0","w","240","164","164","240","240","164","39360","39360","39360","td","null","null","null","null","null","null","[1,2]"
"","canvas-keyboard-response","46","101478","0.0-6.0-4.6","5006","","","","","make choice","1852","1","","","critical","t","d","c","240","164","240","164","164","240","trueblood","0","w","240","164","164","240","240","164","39360","39360","39360","td","null","null","null","null","null","null","[1,2]"
"","canvas-keyboard-response","47","101643","0.0-6.0-5.6","5006","","","","","clear_screen","null","null","","","critical","t","d","c","240","164","240","164","164","240","trueblood","0","w","240","164","164","240","240","164","39360","39360","39360","td","null","null","null","null","null","null","[1,2]"
"","canvas-keyboard-response","48","101849","0.0-6.0-0.7","5006","","","","","pre trial waiting period","null","null","","","critical","t","d","c","240","164","237.1485","162.6685","164","240","spektor","0.02","w","240","164","164","240","237.1485","162.6685","39360","39360","38576.5967","dc","null","null","null","null","null","null","[2,3]"
"","canvas-keyboard-response","49","102003","0.0-6.0-1.7","5006","","","","","clear_screen","null","null","","","critical","t","d","c","240","164","237.1485","162.6685","164","240","spektor","0.02","w","240","164","164","240","237.1485","162.6685","39360","39360","38576.5967","dc","null","null","null","null","null","null","[2,3]"
"","canvas-keyboard-response","50","103341","0.0-6.0-2.7","5006","","","","","rectangles","null","null","","","critical","t","d","c","240","164","237.1485","162.6685","164","240","spektor","0.02","w","240","164","164","240","237.1485","162.6685","39360","39360","38576.5967","dc","null","null","null","null","null","null","[2,3]"
"","canvas-keyboard-response","51","103507","0.0-6.0-3.7","5006","","","","","clear_screen","null","null","","","critical","t","d","c","240","164","237.1485","162.6685","164","240","spektor","0.02","w","240","164","164","240","237.1485","162.6685","39360","39360","38576.5967","dc","null","null","null","null","null","null","[2,3]"
"","canvas-keyboard-response","52","104485","0.0-6.0-4.7","5006","","","","","make choice","966","2","","","critical","t","d","c","240","164","237.1485","162.6685","164","240","spektor","0.02","w","240","164","164","240","237.1485","162.6685","39360","39360","38576.5967","dc","null","null","null","null","null","null","[2,3]"
"","canvas-keyboard-response","53","104648","0.0-6.0-5.7","5006","","","","","clear_screen","null","null","","","critical","t","d","c","240","164","237.1485","162.6685","164","240","spektor","0.02","w","240","164","164","240","237.1485","162.6685","39360","39360","38576.5967","dc","null","null","null","null","null","null","[2,3]"
"","canvas-keyboard-response","54","104857","0.0-6.0-0.8","5006","","","","","pre trial waiting period","null","null","","","critical","d","c","t","154.6796","220.0396","240","164","164","240","spektor","0.14","h","164","240","240","164","154.6796","220.0396","39360","39360","34035.6388","dc","null","null","null","null","null","null","[1,2]"
"","canvas-keyboard-response","55","105016","0.0-6.0-1.8","5006","","","","","clear_screen","null","null","","","critical","d","c","t","154.6796","220.0396","240","164","164","240","spektor","0.14","h","164","240","240","164","154.6796","220.0396","39360","39360","34035.6388","dc","null","null","null","null","null","null","[1,2]"
"","canvas-keyboard-response","56","106356","0.0-6.0-2.8","5006","","","","","rectangles","null","null","","","critical","d","c","t","154.6796","220.0396","240","164","164","240","spektor","0.14","h","164","240","240","164","154.6796","220.0396","39360","39360","34035.6388","dc","null","null","null","null","null","null","[1,2]"
"","canvas-keyboard-response","57","106515","0.0-6.0-3.8","5006","","","","","clear_screen","null","null","","","critical","d","c","t","154.6796","220.0396","240","164","164","240","spektor","0.14","h","164","240","240","164","154.6796","220.0396","39360","39360","34035.6388","dc","null","null","null","null","null","null","[1,2]"
"","canvas-keyboard-response","58","108030","0.0-6.0-4.8","5006","","","","","make choice","1494","2","","","critical","d","c","t","154.6796","220.0396","240","164","164","240","spektor","0.14","h","164","240","240","164","154.6796","220.0396","39360","39360","34035.6388","dc","null","null","null","null","null","null","[1,2]"
"","canvas-keyboard-response","59","108194","0.0-6.0-5.8","5006","","","","","clear_screen","null","null","","","critical","d","c","t","154.6796","220.0396","240","164","164","240","spektor","0.14","h","164","240","240","164","154.6796","220.0396","39360","39360","34035.6388","dc","null","null","null","null","null","null","[1,2]"
"","canvas-keyboard-response","60","108406","0.0-6.0-0.9","5006","","","","","pre trial waiting period","null","null","","","critical","d","c","t","227.1683","158.0083","164","240","240","164","spektor","0.09","w","240","164","164","240","227.1683","158.0083","39360","39360","35894.4834","td","null","null","null","null","null","null","[3,1]"
"","canvas-keyboard-response","61","108566","0.0-6.0-1.9","5006","","","","","clear_screen","null","null","","","critical","d","c","t","227.1683","158.0083","164","240","240","164","spektor","0.09","w","240","164","164","240","227.1683","158.0083","39360","39360","35894.4834","td","null","null","null","null","null","null","[3,1]"
"","canvas-keyboard-response","62","109911","0.0-6.0-2.9","5006","","","","","rectangles","null","null","","","critical","d","c","t","227.1683","158.0083","164","240","240","164","spektor","0.09","w","240","164","164","240","227.1683","158.0083","39360","39360","35894.4834","td","null","null","null","null","null","null","[3,1]"
"","canvas-keyboard-response","63","110078","0.0-6.0-3.9","5006","","","","","clear_screen","null","null","","","critical","d","c","t","227.1683","158.0083","164","240","240","164","spektor","0.09","w","240","164","164","240","227.1683","158.0083","39360","39360","35894.4834","td","null","null","null","null","null","null","[3,1]"
"","canvas-keyboard-response","64","110943","0.0-6.0-4.9","5006","","","","","make choice","851","3","","","critical","d","c","t","227.1683","158.0083","164","240","240","164","spektor","0.09","w","240","164","164","240","227.1683","158.0083","39360","39360","35894.4834","td","null","null","null","null","null","null","[3,1]"
"","canvas-keyboard-response","65","111104","0.0-6.0-5.9","5006","","","","","clear_screen","null","null","","","critical","d","c","t","227.1683","158.0083","164","240","240","164","spektor","0.09","w","240","164","164","240","227.1683","158.0083","39360","39360","35894.4834","td","null","null","null","null","null","null","[3,1]"
"","canvas-keyboard-response","66","111315","0.0-6.0-0.10","5006","","","","","pre trial waiting period","null","null","","","critical","c","d","t","240","164","160.6713","232.8713","164","240","spektor","0.05","h","164","240","240","164","160.6713","232.8713","39360","39360","37415.7294","tc","null","null","null","null","null","null","[3,1]"
"","canvas-keyboard-response","67","111470","0.0-6.0-1.10","5006","","","","","clear_screen","null","null","","","critical","c","d","t","240","164","160.6713","232.8713","164","240","spektor","0.05","h","164","240","240","164","160.6713","232.8713","39360","39360","37415.7294","tc","null","null","null","null","null","null","[3,1]"
"","canvas-keyboard-response","68","112810","0.0-6.0-2.10","5006","","","","","rectangles","null","null","","","critical","c","d","t","240","164","160.6713","232.8713","164","240","spektor","0.05","h","164","240","240","164","160.6713","232.8713","39360","39360","37415.7294","tc","null","null","null","null","null","null","[3,1]"
"","canvas-keyboard-response","69","112976","0.0-6.0-3.10","5006","","","","","clear_screen","null","null","","","critical","c","d","t","240","164","160.6713","232.8713","164","240","spektor","0.05","h","164","240","240","164","160.6713","232.8713","39360","39360","37415.7294","tc","null","null","null","null","null","null","[3,1]"
"","canvas-keyboard-response","70","114135","0.0-6.0-4.10","5006","","","","","make choice","1143","1","","","critical","c","d","t","240","164","160.6713","232.8713","164","240","spektor","0.05","h","164","240","240","164","160.6713","232.8713","39360","39360","37415.7294","tc","null","null","null","null","null","null","[3,1]"
"","canvas-keyboard-response","71","114299","0.0-6.0-5.10","5006","","","","","clear_screen","null","null","","","critical","c","d","t","240","164","160.6713","232.8713","164","240","spektor","0.05","h","164","240","240","164","160.6713","232.8713","39360","39360","37415.7294","tc","null","null","null","null","null","null","[3,1]"
"","canvas-keyboard-response","72","114506","0.0-6.0-0.11","5006","","","","","pre trial waiting period","null","null","","","critical","t","c","d","164","240","240","164","154.6796","220.0396","trueblood","0.14","h","164","240","240","164","154.6796","220.0396","39360","39360","34035.6388","td","null","null","null","null","null","null","[1,3]"
"","canvas-keyboard-response","73","114661","0.0-6.0-1.11","5006","","","","","clear_screen","null","null","","","critical","t","c","d","164","240","240","164","154.6796","220.0396","trueblood","0.14","h","164","240","240","164","154.6796","220.0396","39360","39360","34035.6388","td","null","null","null","null","null","null","[1,3]"
"","canvas-keyboard-response","74","116003","0.0-6.0-2.11","5006","","","","","rectangles","null","null","","","critical","t","c","d","164","240","240","164","154.6796","220.0396","trueblood","0.14","h","164","240","240","164","154.6796","220.0396","39360","39360","34035.6388","td","null","null","null","null","null","null","[1,3]"
"","canvas-keyboard-response","75","116170","0.0-6.0-3.11","5006","","","","","clear_screen","null","null","","","critical","t","c","d","164","240","240","164","154.6796","220.0396","trueblood","0.14","h","164","240","240","164","154.6796","220.0396","39360","39360","34035.6388","td","null","null","null","null","null","null","[1,3]"
"","canvas-keyboard-response","76","117047","0.0-6.0-4.11","5006","","","","","make choice","861","3","","","critical","t","c","d","164","240","240","164","154.6796","220.0396","trueblood","0.14","h","164","240","240","164","154.6796","220.0396","39360","39360","34035.6388","td","null","null","null","null","null","null","[1,3]"
"","canvas-keyboard-response","77","117209","0.0-6.0-5.11","5006","","","","","clear_screen","null","null","","","critical","t","c","d","164","240","240","164","154.6796","220.0396","trueblood","0.14","h","164","240","240","164","154.6796","220.0396","39360","39360","34035.6388","td","null","null","null","null","null","null","[1,3]"
"","canvas-keyboard-response","78","117420","0.0-6.0-0.12","5006","","","","","pre trial waiting period","null","null","","","catch","sh","l","sw","210","187","245","238","208","208","spektor","null","null","null","null","null","null","null","null","null","null","null","","180","200","260","200","36000","52000","[2,3]"
"","canvas-keyboard-response","79","117575","0.0-6.0-1.12","5006","","","","","clear_screen","null","null","","","catch","sh","l","sw","210","187","245","238","208","208","spektor","null","null","null","null","null","null","null","null","null","null","null","","180","200","260","200","36000","52000","[2,3]"
"","canvas-keyboard-response","80","118918","0.0-6.0-2.12","5006","","","","","rectangles","null","null","","","catch","sh","l","sw","210","187","245","238","208","208","spektor","null","null","null","null","null","null","null","null","null","null","null","","180","200","260","200","36000","52000","[2,3]"
"","canvas-keyboard-response","81","119081","0.0-6.0-3.12","5006","","","","","clear_screen","null","null","","","catch","sh","l","sw","210","187","245","238","208","208","spektor","null","null","null","null","null","null","null","null","null","null","null","","180","200","260","200","36000","52000","[2,3]"
"","canvas-keyboard-response","82","119438","0.0-6.0-4.12","5006","","","","","make choice","342","2","","","catch","sh","l","sw","210","187","245","238","208","208","spektor","null","null","null","null","null","null","null","null","null","null","null","","180","200","260","200","36000","52000","[2,3]"
"","canvas-keyboard-response","83","119603","0.0-6.0-5.12","5006","","","","","clear_screen","null","null","","","catch","sh","l","sw","210","187","245","238","208","208","spektor","null","null","null","null","null","null","null","null","null","null","null","","180","200","260","200","36000","52000","[2,3]"
"","canvas-keyboard-response","84","119808","0.0-6.0-0.13","5006","","","","","pre trial waiting period","null","null","","","catch","l","sw","sh","176","277","169","210","231","201","trueblood","null","null","null","null","null","null","null","null","null","null","null","","180","200","260","200","36000","52000","[1,2]"
"","canvas-keyboard-response","85","119970","0.0-6.0-1.13","5006","","","","","clear_screen","null","null","","","catch","l","sw","sh","176","277","169","210","231","201","trueblood","null","null","null","null","null","null","null","null","null","null","null","","180","200","260","200","36000","52000","[1,2]"
"","canvas-keyboard-response","86","121306","0.0-6.0-2.13","5006","","","","","rectangles","null","null","","","catch","l","sw","sh","176","277","169","210","231","201","trueblood","null","null","null","null","null","null","null","null","null","null","null","","180","200","260","200","36000","52000","[1,2]"
"","canvas-keyboard-response","87","121473","0.0-6.0-3.13","5006","","","","","clear_screen","null","null","","","catch","l","sw","sh","176","277","169","210","231","201","trueblood","null","null","null","null","null","null","null","null","null","null","null","","180","200","260","200","36000","52000","[1,2]"
"","canvas-keyboard-response","88","122838","0.0-6.0-4.13","5006","","","","","make choice","1350","1","","","catch","l","sw","sh","176","277","169","210","231","201","trueblood","null","null","null","null","null","null","null","null","null","null","null","","180","200","260","200","36000","52000","[1,2]"
"","canvas-keyboard-response","89","123000","0.0-6.0-5.13","5006","","","","","clear_screen","null","null","","","catch","l","sw","sh","176","277","169","210","231","201","trueblood","null","null","null","null","null","null","null","null","null","null","null","","180","200","260","200","36000","52000","[1,2]"
"","canvas-keyboard-response","90","123212","0.0-6.0-0.14","5006","","","","","pre trial waiting period","null","null","","","critical","d","c","t","162.6685","237.1485","240","164","164","240","spektor","0.02","h","164","240","240","164","162.6685","237.1485","39360","39360","38576.5967","td","null","null","null","null","null","null","[3,1]"
"","canvas-keyboard-response","91","123372","0.0-6.0-1.14","5006","","","","","clear_screen","null","null","","","critical","d","c","t","162.6685","237.1485","240","164","164","240","spektor","0.02","h","164","240","240","164","162.6685","237.1485","39360","39360","38576.5967","td","null","null","null","null","null","null","[3,1]"
"","canvas-keyboard-response","92","124713","0.0-6.0-2.14","5006","","","","","rectangles","null","null","","","critical","d","c","t","162.6685","237.1485","240","164","164","240","spektor","0.02","h","164","240","240","164","162.6685","237.1485","39360","39360","38576.5967","td","null","null","null","null","null","null","[3,1]"
"","canvas-keyboard-response","93","124880","0.0-6.0-3.14","5006","","","","","clear_screen","null","null","","","critical","d","c","t","162.6685","237.1485","240","164","164","240","spektor","0.02","h","164","240","240","164","162.6685","237.1485","39360","39360","38576.5967","td","null","null","null","null","null","null","[3,1]"
"","canvas-keyboard-response","94","125191","0.0-6.0-4.14","5006","","","","","make choice","296","3","","","critical","d","c","t","162.6685","237.1485","240","164","164","240","spektor","0.02","h","164","240","240","164","162.6685","237.1485","39360","39360","38576.5967","td","null","null","null","null","null","null","[3,1]"
"","canvas-keyboard-response","95","125355","0.0-6.0-5.14","5006","","","","","clear_screen","null","null","","","critical","d","c","t","162.6685","237.1485","240","164","164","240","spektor","0.02","h","164","240","240","164","162.6685","237.1485","39360","39360","38576.5967","td","null","null","null","null","null","null","[3,1]"
"","canvas-keyboard-response","96","125567","0.0-6.0-0.15","5006","","","","","pre trial waiting period","null","null","","","critical","c","t","d","240","164","164","240","158.0083","227.1683","trueblood","0.09","h","164","240","240","164","158.0083","227.1683","39360","39360","35894.4834","td","null","null","null","null","null","null","[2,3]"
"","canvas-keyboard-response","97","125727","0.0-6.0-1.15","5006","","","","","clear_screen","null","null","","","critical","c","t","d","240","164","164","240","158.0083","227.1683","trueblood","0.09","h","164","240","240","164","158.0083","227.1683","39360","39360","35894.4834","td","null","null","null","null","null","null","[2,3]"
"","canvas-keyboard-response","98","127059","0.0-6.0-2.15","5006","","","","","rectangles","null","null","","","critical","c","t","d","240","164","164","240","158.0083","227.1683","trueblood","0.09","h","164","240","240","164","158.0083","227.1683","39360","39360","35894.4834","td","null","null","null","null","null","null","[2,3]"
"","canvas-keyboard-response","99","127222","0.0-6.0-3.15","5006","","","","","clear_screen","null","null","","","critical","c","t","d","240","164","164","240","158.0083","227.1683","trueblood","0.09","h","164","240","240","164","158.0083","227.1683","39360","39360","35894.4834","td","null","null","null","null","null","null","[2,3]"
"","canvas-keyboard-response","100","127438","0.0-6.0-4.15","5006","","","","","make choice","203","2","","","critical","c","t","d","240","164","164","240","158.0083","227.1683","trueblood","0.09","h","164","240","240","164","158.0083","227.1683","39360","39360","35894.4834","td","null","null","null","null","null","null","[2,3]"
"","canvas-keyboard-response","101","127604","0.0-6.0-5.15","5006","","","","","clear_screen","null","null","","","critical","c","t","d","240","164","164","240","158.0083","227.1683","trueblood","0.09","h","164","240","240","164","158.0083","227.1683","39360","39360","35894.4834","td","null","null","null","null","null","null","[2,3]"
"","canvas-keyboard-response","102","127816","0.0-6.0-0.16","5006","","","","","pre trial waiting period","null","null","","","catch","l","sh","sw","258","162","195","162","216","167","trueblood","null","null","null","null","null","null","null","null","null","null","null","","180","200","260","200","36000","52000","[1,3]"
"","canvas-keyboard-response","103","127978","0.0-6.0-1.16","5006","","","","","clear_screen","null","null","","","catch","l","sh","sw","258","162","195","162","216","167","trueblood","null","null","null","null","null","null","null","null","null","null","null","","180","200","260","200","36000","52000","[1,3]"
"","canvas-keyboard-response","104","129320","0.0-6.0-2.16","5006","","","","","rectangles","null","null","","","catch","l","sh","sw","258","162","195","162","216","167","trueblood","null","null","null","null","null","null","null","null","null","null","null","","180","200","260","200","36000","52000","[1,3]"
"","canvas-keyboard-response","105","129487","0.0-6.0-3.16","5006","","","","","clear_screen","null","null","","","catch","l","sh","sw","258","162","195","162","216","167","trueblood","null","null","null","null","null","null","null","null","null","null","null","","180","200","260","200","36000","52000","[1,3]"
"","canvas-keyboard-response","106","129533","0.0-6.0-4.16","5006","","","","","make choice","30","1","","","catch","l","sh","sw","258","162","195","162","216","167","trueblood","null","null","null","null","null","null","null","null","null","null","null","","180","200","260","200","36000","52000","[1,3]"
"","canvas-keyboard-response","107","129693","0.0-6.0-5.16","5006","","","","","clear_screen","null","null","","","catch","l","sh","sw","258","162","195","162","216","167","trueblood","null","null","null","null","null","null","null","null","null","null","null","","180","200","260","200","36000","52000","[1,3]"
"","canvas-keyboard-response","108","129904","0.0-6.0-0.17","5006","","","","","pre trial waiting period","null","null","","","critical","d","c","t","164","240","240","164","164","240","spektor","0","h","164","240","240","164","164","240","39360","39360","39360","tc","null","null","null","null","null","null","[3,2]"
"","canvas-keyboard-response","109","130067","0.0-6.0-1.17","5006","","","","","clear_screen","null","null","","","critical","d","c","t","164","240","240","164","164","240","spektor","0","h","164","240","240","164","164","240","39360","39360","39360","tc","null","null","null","null","null","null","[3,2]"
"","canvas-keyboard-response","110","131407","0.0-6.0-2.17","5006","","","","","rectangles","null","null","","","critical","d","c","t","164","240","240","164","164","240","spektor","0","h","164","240","240","164","164","240","39360","39360","39360","tc","null","null","null","null","null","null","[3,2]"
"","canvas-keyboard-response","111","131574","0.0-6.0-3.17","5006","","","","","clear_screen","null","null","","","critical","d","c","t","164","240","240","164","164","240","spektor","0","h","164","240","240","164","164","240","39360","39360","39360","tc","null","null","null","null","null","null","[3,2]"
"","canvas-keyboard-response","112","131822","0.0-6.0-4.17","5006","","","","","make choice","231","3","","","critical","d","c","t","164","240","240","164","164","240","spektor","0","h","164","240","240","164","164","240","39360","39360","39360","tc","null","null","null","null","null","null","[3,2]"
"","canvas-keyboard-response","113","131986","0.0-6.0-5.17","5006","","","","","clear_screen","null","null","","","critical","d","c","t","164","240","240","164","164","240","spektor","0","h","164","240","240","164","164","240","39360","39360","39360","tc","null","null","null","null","null","null","[3,2]"
"","canvas-keyboard-response","114","132198","0.0-6.0-0.18","5006","","","","","pre trial waiting period","null","null","","","catch","sw","l","sh","180","200","237","272","180","215","spektor","null","null","null","null","null","null","null","null","null","null","null","","180","200","260","200","36000","52000","[1,2]"
"","canvas-keyboard-response","115","132358","0.0-6.0-1.18","5006","","","","","clear_screen","null","null","","","catch","sw","l","sh","180","200","237","272","180","215","spektor","null","null","null","null","null","null","null","null","null","null","null","","180","200","260","200","36000","52000","[1,2]"
"","canvas-keyboard-response","116","133699","0.0-6.0-2.18","5006","","","","","rectangles","null","null","","","catch","sw","l","sh","180","200","237","272","180","215","spektor","null","null","null","null","null","null","null","null","null","null","null","","180","200","260","200","36000","52000","[1,2]"
"","canvas-keyboard-response","117","133864","0.0-6.0-3.18","5006","","","","","clear_screen","null","null","","","catch","sw","l","sh","180","200","237","272","180","215","spektor","null","null","null","null","null","null","null","null","null","null","null","","180","200","260","200","36000","52000","[1,2]"
"","canvas-keyboard-response","118","134159","0.0-6.0-4.18","5006","","","","","make choice","280","2","","","catch","sw","l","sh","180","200","237","272","180","215","spektor","null","null","null","null","null","null","null","null","null","null","null","","180","200","260","200","36000","52000","[1,2]"
"","canvas-keyboard-response","119","134324","0.0-6.0-5.18","5006","","","","","clear_screen","null","null","","","catch","sw","l","sh","180","200","237","272","180","215","spektor","null","null","null","null","null","null","null","null","null","null","null","","180","200","260","200","36000","52000","[1,2]"
"","canvas-keyboard-response","120","134538","0.0-6.0-0.19","5006","","","","","pre trial waiting period","null","null","","","critical","t","d","c","240","164","237.1485","162.6685","164","240","trueblood","0.02","w","240","164","164","240","237.1485","162.6685","39360","39360","38576.5967","td","null","null","null","null","null","null","[1,2]"
"","canvas-keyboard-response","121","134699","0.0-6.0-1.19","5006","","","","","clear_screen","null","null","","","critical","t","d","c","240","164","237.1485","162.6685","164","240","trueblood","0.02","w","240","164","164","240","237.1485","162.6685","39360","39360","38576.5967","td","null","null","null","null","null","null","[1,2]"
"","canvas-keyboard-response","122","136038","0.0-6.0-2.19","5006","","","","","rectangles","null","null","","","critical","t","d","c","240","164","237.1485","162.6685","164","240","trueblood","0.02","w","240","164","164","240","237.1485","162.6685","39360","39360","38576.5967","td","null","null","null","null","null","null","[1,2]"
"","canvas-keyboard-response","123","136211","0.0-6.0-3.19","5006","","","","","clear_screen","null","null","","","critical","t","d","c","240","164","237.1485","162.6685","164","240","trueblood","0.02","w","240","164","164","240","237.1485","162.6685","39360","39360","38576.5967","td","null","null","null","null","null","null","[1,2]"
"","canvas-keyboard-response","124","136741","0.0-6.0-4.19","5006","","","","","make choice","523","2","","","critical","t","d","c","240","164","237.1485","162.6685","164","240","trueblood","0.02","w","240","164","164","240","237.1485","162.6685","39360","39360","38576.5967","td","null","null","null","null","null","null","[1,2]"
"","canvas-keyboard-response","125","136906","0.0-6.0-5.19","5006","","","","","clear_screen","null","null","","","critical","t","d","c","240","164","237.1485","162.6685","164","240","trueblood","0.02","w","240","164","164","240","237.1485","162.6685","39360","39360","38576.5967","td","null","null","null","null","null","null","[1,2]"
"","canvas-keyboard-response","126","137117","0.0-6.0-0.20","5006","","","","","pre trial waiting period","null","null","","","catch","sw","sh","l","180","200","204","165","253","185","spektor","null","null","null","null","null","null","null","null","null","null","null","","180","200","260","200","36000","52000","[2,3]"
"","canvas-keyboard-response","127","137277","0.0-6.0-1.20","5006","","","","","clear_screen","null","null","","","catch","sw","sh","l","180","200","204","165","253","185","spektor","null","null","null","null","null","null","null","null","null","null","null","","180","200","260","200","36000","52000","[2,3]"
"","canvas-keyboard-response","128","138611","0.0-6.0-2.20","5006","","","","","rectangles","null","null","","","catch","sw","sh","l","180","200","204","165","253","185","spektor","null","null","null","null","null","null","null","null","null","null","null","","180","200","260","200","36000","52000","[2,3]"
"","canvas-keyboard-response","129","138777","0.0-6.0-3.20","5006","","","","","clear_screen","null","null","","","catch","sw","sh","l","180","200","204","165","253","185","spektor","null","null","null","null","null","null","null","null","null","null","null","","180","200","260","200","36000","52000","[2,3]"
"","canvas-keyboard-response","130","139325","0.0-6.0-4.20","5006","","","","","make choice","534","3","","","catch","sw","sh","l","180","200","204","165","253","185","spektor","null","null","null","null","null","null","null","null","null","null","null","","180","200","260","200","36000","52000","[2,3]"
"","canvas-keyboard-response","131","139492","0.0-6.0-5.20","5006","","","","","clear_screen","null","null","","","catch","sw","sh","l","180","200","204","165","253","185","spektor","null","null","null","null","null","null","null","null","null","null","null","","180","200","260","200","36000","52000","[2,3]"
"","canvas-keyboard-response","132","139705","0.0-6.0-0.21","5006","","","","","pre trial waiting period","null","null","","","critical","t","c","d","240","164","164","240","227.1683","158.0083","trueblood","0.09","w","240","164","164","240","227.1683","158.0083","39360","39360","35894.4834","td","null","null","null","null","null","null","[1,3]"
"","canvas-keyboard-response","133","139866","0.0-6.0-1.21","5006","","","","","clear_screen","null","null","","","critical","t","c","d","240","164","164","240","227.1683","158.0083","trueblood","0.09","w","240","164","164","240","227.1683","158.0083","39360","39360","35894.4834","td","null","null","null","null","null","null","[1,3]"
"","canvas-keyboard-response","134","141206","0.0-6.0-2.21","5006","","","","","rectangles","null","null","","","critical","t","c","d","240","164","164","240","227.1683","158.0083","trueblood","0.09","w","240","164","164","240","227.1683","158.0083","39360","39360","35894.4834","td","null","null","null","null","null","null","[1,3]"
"","canvas-keyboard-response","135","141372","0.0-6.0-3.21","5006","","","","","clear_screen","null","null","","","critical","t","c","d","240","164","164","240","227.1683","158.0083","trueblood","0.09","w","240","164","164","240","227.1683","158.0083","39360","39360","35894.4834","td","null","null","null","null","null","null","[1,3]"
"","canvas-keyboard-response","136","142000","0.0-6.0-4.21","5006","","","","","make choice","609","3","","","critical","t","c","d","240","164","164","240","227.1683","158.0083","trueblood","0.09","w","240","164","164","240","227.1683","158.0083","39360","39360","35894.4834","td","null","null","null","null","null","null","[1,3]"
"","canvas-keyboard-response","137","142172","0.0-6.0-5.21","5006","","","","","clear_screen","null","null","","","critical","t","c","d","240","164","164","240","227.1683","158.0083","trueblood","0.09","w","240","164","164","240","227.1683","158.0083","39360","39360","35894.4834","td","null","null","null","null","null","null","[1,3]"
"","canvas-keyboard-response","138","142389","0.0-6.0-0.22","5006","","","","","pre trial waiting period","null","null","","","critical","d","t","c","162.6685","237.1485","164","240","240","164","trueblood","0.02","h","164","240","240","164","162.6685","237.1485","39360","39360","38576.5967","dc","null","null","null","null","null","null","[1,3]"
"","canvas-keyboard-response","139","142551","0.0-6.0-1.22","5006","","","","","clear_screen","null","null","","","critical","d","t","c","162.6685","237.1485","164","240","240","164","trueblood","0.02","h","164","240","240","164","162.6685","237.1485","39360","39360","38576.5967","dc","null","null","null","null","null","null","[1,3]"
"","canvas-keyboard-response","140","143898","0.0-6.0-2.22","5006","","","","","rectangles","null","null","","","critical","d","t","c","162.6685","237.1485","164","240","240","164","trueblood","0.02","h","164","240","240","164","162.6685","237.1485","39360","39360","38576.5967","dc","null","null","null","null","null","null","[1,3]"
"","canvas-keyboard-response","141","144070","0.0-6.0-3.22","5006","","","","","clear_screen","null","null","","","critical","d","t","c","162.6685","237.1485","164","240","240","164","trueblood","0.02","h","164","240","240","164","162.6685","237.1485","39360","39360","38576.5967","dc","null","null","null","null","null","null","[1,3]"
"","canvas-keyboard-response","142","144567","0.0-6.0-4.22","5006","","","","","make choice","482","3","","","critical","d","t","c","162.6685","237.1485","164","240","240","164","trueblood","0.02","h","164","240","240","164","162.6685","237.1485","39360","39360","38576.5967","dc","null","null","null","null","null","null","[1,3]"
"","canvas-keyboard-response","143","144725","0.0-6.0-5.22","5006","","","","","clear_screen","null","null","","","critical","d","t","c","162.6685","237.1485","164","240","240","164","trueblood","0.02","h","164","240","240","164","162.6685","237.1485","39360","39360","38576.5967","dc","null","null","null","null","null","null","[1,3]"
"","canvas-keyboard-response","144","144936","0.0-6.0-0.23","5006","","","","","pre trial waiting period","null","null","","","catch","l","sw","sh","235","193","145","169","180","170","spektor","null","null","null","null","null","null","null","null","null","null","null","","180","200","260","200","36000","52000","[1,2]"
"","canvas-keyboard-response","145","145095","0.0-6.0-1.23","5006","","","","","clear_screen","null","null","","","catch","l","sw","sh","235","193","145","169","180","170","spektor","null","null","null","null","null","null","null","null","null","null","null","","180","200","260","200","36000","52000","[1,2]"
"","canvas-keyboard-response","146","146440","0.0-6.0-2.23","5006","","","","","rectangles","null","null","","","catch","l","sw","sh","235","193","145","169","180","170","spektor","null","null","null","null","null","null","null","null","null","null","null","","180","200","260","200","36000","52000","[1,2]"
"","canvas-keyboard-response","147","146607","0.0-6.0-3.23","5006","","","","","clear_screen","null","null","","","catch","l","sw","sh","235","193","145","169","180","170","spektor","null","null","null","null","null","null","null","null","null","null","null","","180","200","260","200","36000","52000","[1,2]"
"","canvas-keyboard-response","148","146974","0.0-6.0-4.23","5006","","","","","make choice","350","1","","","catch","l","sw","sh","235","193","145","169","180","170","spektor","null","null","null","null","null","null","null","null","null","null","null","","180","200","260","200","36000","52000","[1,2]"
"","canvas-keyboard-response","149","147138","0.0-6.0-5.23","5006","","","","","clear_screen","null","null","","","catch","l","sw","sh","235","193","145","169","180","170","spektor","null","null","null","null","null","null","null","null","null","null","null","","180","200","260","200","36000","52000","[1,2]"
"","canvas-keyboard-response","150","147350","0.0-6.0-0.24","5006","","","","","pre trial waiting period","null","null","","","critical","c","d","t","240","164","160.6713","232.8713","164","240","trueblood","0.05","h","164","240","240","164","160.6713","232.8713","39360","39360","37415.7294","dc","null","null","null","null","null","null","[2,1]"
"","canvas-keyboard-response","151","147514","0.0-6.0-1.24","5006","","","","","clear_screen","null","null","","","critical","c","d","t","240","164","160.6713","232.8713","164","240","trueblood","0.05","h","164","240","240","164","160.6713","232.8713","39360","39360","37415.7294","dc","null","null","null","null","null","null","[2,1]"
"","canvas-keyboard-response","152","148857","0.0-6.0-2.24","5006","","","","","rectangles","null","null","","","critical","c","d","t","240","164","160.6713","232.8713","164","240","trueblood","0.05","h","164","240","240","164","160.6713","232.8713","39360","39360","37415.7294","dc","null","null","null","null","null","null","[2,1]"
"","canvas-keyboard-response","153","149023","0.0-6.0-3.24","5006","","","","","clear_screen","null","null","","","critical","c","d","t","240","164","160.6713","232.8713","164","240","trueblood","0.05","h","164","240","240","164","160.6713","232.8713","39360","39360","37415.7294","dc","null","null","null","null","null","null","[2,1]"
"","canvas-keyboard-response","154","149502","0.0-6.0-4.24","5006","","","","","make choice","463","2","","","critical","c","d","t","240","164","160.6713","232.8713","164","240","trueblood","0.05","h","164","240","240","164","160.6713","232.8713","39360","39360","37415.7294","dc","null","null","null","null","null","null","[2,1]"
"","canvas-keyboard-response","155","149667","0.0-6.0-5.24","5006","","","","","clear_screen","null","null","","","critical","c","d","t","240","164","160.6713","232.8713","164","240","trueblood","0.05","h","164","240","240","164","160.6713","232.8713","39360","39360","37415.7294","dc","null","null","null","null","null","null","[2,1]"
"","canvas-keyboard-response","156","149878","0.0-6.0-0.25","5006","","","","","pre trial waiting period","null","null","","","critical","c","d","t","164","240","232.8713","160.6713","240","164","trueblood","0.05","w","240","164","164","240","232.8713","160.6713","39360","39360","37415.7294","tc","null","null","null","null","null","null","[3,1]"
"","canvas-keyboard-response","157","150040","0.0-6.0-1.25","5006","","","","","clear_screen","null","null","","","critical","c","d","t","164","240","232.8713","160.6713","240","164","trueblood","0.05","w","240","164","164","240","232.8713","160.6713","39360","39360","37415.7294","tc","null","null","null","null","null","null","[3,1]"
"","canvas-keyboard-response","158","151382","0.0-6.0-2.25","5006","","","","","rectangles","null","null","","","critical","c","d","t","164","240","232.8713","160.6713","240","164","trueblood","0.05","w","240","164","164","240","232.8713","160.6713","39360","39360","37415.7294","tc","null","null","null","null","null","null","[3,1]"
"","canvas-keyboard-response","159","151554","0.0-6.0-3.25","5006","","","","","clear_screen","null","null","","","critical","c","d","t","164","240","232.8713","160.6713","240","164","trueblood","0.05","w","240","164","164","240","232.8713","160.6713","39360","39360","37415.7294","tc","null","null","null","null","null","null","[3,1]"
"","canvas-keyboard-response","160","152108","0.0-6.0-4.25","5006","","","","","make choice","540","1","","","critical","c","d","t","164","240","232.8713","160.6713","240","164","trueblood","0.05","w","240","164","164","240","232.8713","160.6713","39360","39360","37415.7294","tc","null","null","null","null","null","null","[3,1]"
"","canvas-keyboard-response","161","152275","0.0-6.0-5.25","5006","","","","","clear_screen","null","null","","","critical","c","d","t","164","240","232.8713","160.6713","240","164","trueblood","0.05","w","240","164","164","240","232.8713","160.6713","39360","39360","37415.7294","tc","null","null","null","null","null","null","[3,1]"
"","canvas-keyboard-response","162","152492","0.0-6.0-0.26","5006","","","","","pre trial waiting period","null","null","","","critical","d","t","c","237.1485","162.6685","240","164","164","240","spektor","0.02","w","240","164","164","240","237.1485","162.6685","39360","39360","38576.5967","td","null","null","null","null","null","null","[2,1]"
"","canvas-keyboard-response","163","152654","0.0-6.0-1.26","5006","","","","","clear_screen","null","null","","","critical","d","t","c","237.1485","162.6685","240","164","164","240","spektor","0.02","w","240","164","164","240","237.1485","162.6685","39360","39360","38576.5967","td","null","null","null","null","null","null","[2,1]"
"","canvas-keyboard-response","164","153997","0.0-6.0-2.26","5006","","","","","rectangles","null","null","","","critical","d","t","c","237.1485","162.6685","240","164","164","240","spektor","0.02","w","240","164","164","240","237.1485","162.6685","39360","39360","38576.5967","td","null","null","null","null","null","null","[2,1]"
"","canvas-keyboard-response","165","154164","0.0-6.0-3.26","5006","","","","","clear_screen","null","null","","","critical","d","t","c","237.1485","162.6685","240","164","164","240","spektor","0.02","w","240","164","164","240","237.1485","162.6685","39360","39360","38576.5967","td","null","null","null","null","null","null","[2,1]"
"","canvas-keyboard-response","166","156934","0.0-6.0-4.26","5006","","","","","make choice","2751","1","","","critical","d","t","c","237.1485","162.6685","240","164","164","240","spektor","0.02","w","240","164","164","240","237.1485","162.6685","39360","39360","38576.5967","td","null","null","null","null","null","null","[2,1]"
"","canvas-keyboard-response","167","157099","0.0-6.0-5.26","5006","","","","","clear_screen","null","null","","","critical","d","t","c","237.1485","162.6685","240","164","164","240","spektor","0.02","w","240","164","164","240","237.1485","162.6685","39360","39360","38576.5967","td","null","null","null","null","null","null","[2,1]"
"","canvas-keyboard-response","168","157311","0.0-6.0-0.27","5006","","","","","pre trial waiting period","null","null","","","catch","l","sh","sw","211","296","190","211","162","178","spektor","null","null","null","null","null","null","null","null","null","null","null","","180","200","260","200","36000","52000","[1,2]"
"","canvas-keyboard-response","169","157470","0.0-6.0-1.27","5006","","","","","clear_screen","null","null","","","catch","l","sh","sw","211","296","190","211","162","178","spektor","null","null","null","null","null","null","null","null","null","null","null","","180","200","260","200","36000","52000","[1,2]"
"","canvas-keyboard-response","170","158814","0.0-6.0-2.27","5006","","","","","rectangles","null","null","","","catch","l","sh","sw","211","296","190","211","162","178","spektor","null","null","null","null","null","null","null","null","null","null","null","","180","200","260","200","36000","52000","[1,2]"
"","canvas-keyboard-response","171","158980","0.0-6.0-3.27","5006","","","","","clear_screen","null","null","","","catch","l","sh","sw","211","296","190","211","162","178","spektor","null","null","null","null","null","null","null","null","null","null","null","","180","200","260","200","36000","52000","[1,2]"
"","canvas-keyboard-response","172","159390","0.0-6.0-4.27","5006","","","","","make choice","395","1","","","catch","l","sh","sw","211","296","190","211","162","178","spektor","null","null","null","null","null","null","null","null","null","null","null","","180","200","260","200","36000","52000","[1,2]"
"","canvas-keyboard-response","173","159555","0.0-6.0-5.27","5006","","","","","clear_screen","null","null","","","catch","l","sh","sw","211","296","190","211","162","178","spektor","null","null","null","null","null","null","null","null","null","null","null","","180","200","260","200","36000","52000","[1,2]"
"","canvas-keyboard-response","174","159763","0.0-6.0-0.28","5006","","","","","pre trial waiting period","null","null","","","critical","c","d","t","240","164","158.0083","227.1683","164","240","trueblood","0.09","h","164","240","240","164","158.0083","227.1683","39360","39360","35894.4834","dc","null","null","null","null","null","null","[2,1]"
"","canvas-keyboard-response","175","159922","0.0-6.0-1.28","5006","","","","","clear_screen","null","null","","","critical","c","d","t","240","164","158.0083","227.1683","164","240","trueblood","0.09","h","164","240","240","164","158.0083","227.1683","39360","39360","35894.4834","dc","null","null","null","null","null","null","[2,1]"
"","canvas-keyboard-response","176","161260","0.0-6.0-2.28","5006","","","","","rectangles","null","null","","","critical","c","d","t","240","164","158.0083","227.1683","164","240","trueblood","0.09","h","164","240","240","164","158.0083","227.1683","39360","39360","35894.4834","dc","null","null","null","null","null","null","[2,1]"
"","canvas-keyboard-response","177","161426","0.0-6.0-3.28","5006","","","","","clear_screen","null","null","","","critical","c","d","t","240","164","158.0083","227.1683","164","240","trueblood","0.09","h","164","240","240","164","158.0083","227.1683","39360","39360","35894.4834","dc","null","null","null","null","null","null","[2,1]"
"","canvas-keyboard-response","178","162078","0.0-6.0-4.28","5006","","","","","make choice","637","1","","","critical","c","d","t","240","164","158.0083","227.1683","164","240","trueblood","0.09","h","164","240","240","164","158.0083","227.1683","39360","39360","35894.4834","dc","null","null","null","null","null","null","[2,1]"
"","canvas-keyboard-response","179","162243","0.0-6.0-5.28","5006","","","","","clear_screen","null","null","","","critical","c","d","t","240","164","158.0083","227.1683","164","240","trueblood","0.09","h","164","240","240","164","158.0083","227.1683","39360","39360","35894.4834","dc","null","null","null","null","null","null","[2,1]"
"","canvas-keyboard-response","180","162457","0.0-6.0-0.29","5006","","","","","pre trial waiting period","null","null","","","catch","sw","l","sh","180","200","285","174","194","163","spektor","null","null","null","null","null","null","null","null","null","null","null","","180","200","260","200","36000","52000","[2,3]"
"","canvas-keyboard-response","181","162619","0.0-6.0-1.29","5006","","","","","clear_screen","null","null","","","catch","sw","l","sh","180","200","285","174","194","163","spektor","null","null","null","null","null","null","null","null","null","null","null","","180","200","260","200","36000","52000","[2,3]"
"","canvas-keyboard-response","182","163963","0.0-6.0-2.29","5006","","","","","rectangles","null","null","","","catch","sw","l","sh","180","200","285","174","194","163","spektor","null","null","null","null","null","null","null","null","null","null","null","","180","200","260","200","36000","52000","[2,3]"
"","canvas-keyboard-response","183","164135","0.0-6.0-3.29","5006","","","","","clear_screen","null","null","","","catch","sw","l","sh","180","200","285","174","194","163","spektor","null","null","null","null","null","null","null","null","null","null","null","","180","200","260","200","36000","52000","[2,3]"
"","canvas-keyboard-response","184","165566","0.0-6.0-4.29","5006","","","","","make choice","1422","2","","","catch","sw","l","sh","180","200","285","174","194","163","spektor","null","null","null","null","null","null","null","null","null","null","null","","180","200","260","200","36000","52000","[2,3]"
"","canvas-keyboard-response","185","165730","0.0-6.0-5.29","5006","","","","","clear_screen","null","null","","","catch","sw","l","sh","180","200","285","174","194","163","spektor","null","null","null","null","null","null","null","null","null","null","null","","180","200","260","200","36000","52000","[2,3]"
"","canvas-keyboard-response","186","165943","0.0-6.0-0.30","5006","","","","","pre trial waiting period","null","null","","","critical","t","c","d","164","240","240","164","162.6685","237.1485","spektor","0.02","h","164","240","240","164","162.6685","237.1485","39360","39360","38576.5967","dc","null","null","null","null","null","null","[3,2]"
"","canvas-keyboard-response","187","166104","0.0-6.0-1.30","5006","","","","","clear_screen","null","null","","","critical","t","c","d","164","240","240","164","162.6685","237.1485","spektor","0.02","h","164","240","240","164","162.6685","237.1485","39360","39360","38576.5967","dc","null","null","null","null","null","null","[3,2]"
"","canvas-keyboard-response","188","167446","0.0-6.0-2.30","5006","","","","","rectangles","null","null","","","critical","t","c","d","164","240","240","164","162.6685","237.1485","spektor","0.02","h","164","240","240","164","162.6685","237.1485","39360","39360","38576.5967","dc","null","null","null","null","null","null","[3,2]"
"","canvas-keyboard-response","189","167613","0.0-6.0-3.30","5006","","","","","clear_screen","null","null","","","critical","t","c","d","164","240","240","164","162.6685","237.1485","spektor","0.02","h","164","240","240","164","162.6685","237.1485","39360","39360","38576.5967","dc","null","null","null","null","null","null","[3,2]"
"","canvas-keyboard-response","190","168807","0.0-6.0-4.30","5006","","","","","make choice","1176","2","","","critical","t","c","d","164","240","240","164","162.6685","237.1485","spektor","0.02","h","164","240","240","164","162.6685","237.1485","39360","39360","38576.5967","dc","null","null","null","null","null","null","[3,2]"
"","canvas-keyboard-response","191","168972","0.0-6.0-5.30","5006","","","","","clear_screen","null","null","","","critical","t","c","d","164","240","240","164","162.6685","237.1485","spektor","0.02","h","164","240","240","164","162.6685","237.1485","39360","39360","38576.5967","dc","null","null","null","null","null","null","[3,2]"
"","canvas-keyboard-response","192","169187","0.0-6.0-0.31","5006","","","","","pre trial waiting period","null","null","","","catch","sh","l","sw","234","193","258","204","187","176","spektor","null","null","null","null","null","null","null","null","null","null","null","","180","200","260","200","36000","52000","[2,3]"
"","canvas-keyboard-response","193","169345","0.0-6.0-1.31","5006","","","","","clear_screen","null","null","","","catch","sh","l","sw","234","193","258","204","187","176","spektor","null","null","null","null","null","null","null","null","null","null","null","","180","200","260","200","36000","52000","[2,3]"
"","canvas-keyboard-response","194","170687","0.0-6.0-2.31","5006","","","","","rectangles","null","null","","","catch","sh","l","sw","234","193","258","204","187","176","spektor","null","null","null","null","null","null","null","null","null","null","null","","180","200","260","200","36000","52000","[2,3]"
"","canvas-keyboard-response","195","170857","0.0-6.0-3.31","5006","","","","","clear_screen","null","null","","","catch","sh","l","sw","234","193","258","204","187","176","spektor","null","null","null","null","null","null","null","null","null","null","null","","180","200","260","200","36000","52000","[2,3]"
"","canvas-keyboard-response","196","171870","0.0-6.0-4.31","5006","","","","","make choice","997","2","","","catch","sh","l","sw","234","193","258","204","187","176","spektor","null","null","null","null","null","null","null","null","null","null","null","","180","200","260","200","36000","52000","[2,3]"
"","canvas-keyboard-response","197","172036","0.0-6.0-5.31","5006","","","","","clear_screen","null","null","","","catch","sh","l","sw","234","193","258","204","187","176","spektor","null","null","null","null","null","null","null","null","null","null","null","","180","200","260","200","36000","52000","[2,3]"
"","canvas-keyboard-response","198","172253","0.0-6.0-0.32","5006","","","","","pre trial waiting period","null","null","","","critical","c","d","t","164","240","220.0396","154.6796","240","164","spektor","0.14","w","240","164","164","240","220.0396","154.6796","39360","39360","34035.6388","dc","null","null","null","null","null","null","[2,1]"
"","canvas-keyboard-response","199","172415","0.0-6.0-1.32","5006","","","","","clear_screen","null","null","","","critical","c","d","t","164","240","220.0396","154.6796","240","164","spektor","0.14","w","240","164","164","240","220.0396","154.6796","39360","39360","34035.6388","dc","null","null","null","null","null","null","[2,1]"
"","canvas-keyboard-response","200","173759","0.0-6.0-2.32","5006","","","","","rectangles","null","null","","","critical","c","d","t","164","240","220.0396","154.6796","240","164","spektor","0.14","w","240","164","164","240","220.0396","154.6796","39360","39360","34035.6388","dc","null","null","null","null","null","null","[2,1]"
"","canvas-keyboard-response","201","173931","0.0-6.0-3.32","5006","","","","","clear_screen","null","null","","","critical","c","d","t","164","240","220.0396","154.6796","240","164","spektor","0.14","w","240","164","164","240","220.0396","154.6796","39360","39360","34035.6388","dc","null","null","null","null","null","null","[2,1]"
"","canvas-keyboard-response","202","174431","0.0-6.0-4.32","5006","","","","","make choice","484","1","","","critical","c","d","t","164","240","220.0396","154.6796","240","164","spektor","0.14","w","240","164","164","240","220.0396","154.6796","39360","39360","34035.6388","dc","null","null","null","null","null","null","[2,1]"
"","canvas-keyboard-response","203","174591","0.0-6.0-5.32","5006","","","","","clear_screen","null","null","","","critical","c","d","t","164","240","220.0396","154.6796","240","164","spektor","0.14","w","240","164","164","240","220.0396","154.6796","39360","39360","34035.6388","dc","null","null","null","null","null","null","[2,1]"
"","canvas-keyboard-response","204","174804","0.0-6.0-0.33","5006","","","","","pre trial waiting period","null","null","","","critical","c","d","t","240","164","164","240","164","240","spektor","0","h","164","240","240","164","164","240","39360","39360","39360","dc","null","null","null","null","null","null","[2,1]"
"","canvas-keyboard-response","205","174958","0.0-6.0-1.33","5006","","","","","clear_screen","null","null","","","critical","c","d","t","240","164","164","240","164","240","spektor","0","h","164","240","240","164","164","240","39360","39360","39360","dc","null","null","null","null","null","null","[2,1]"
"","canvas-keyboard-response","206","176303","0.0-6.0-2.33","5006","","","","","rectangles","null","null","","","critical","c","d","t","240","164","164","240","164","240","spektor","0","h","164","240","240","164","164","240","39360","39360","39360","dc","null","null","null","null","null","null","[2,1]"
"","canvas-keyboard-response","207","176473","0.0-6.0-3.33","5006","","","","","clear_screen","null","null","","","critical","c","d","t","240","164","164","240","164","240","spektor","0","h","164","240","240","164","164","240","39360","39360","39360","dc","null","null","null","null","null","null","[2,1]"
"","canvas-keyboard-response","208","177558","0.0-6.0-4.33","5006","","","","","make choice","1058","1","","","critical","c","d","t","240","164","164","240","164","240","spektor","0","h","164","240","240","164","164","240","39360","39360","39360","dc","null","null","null","null","null","null","[2,1]"
"","canvas-keyboard-response","209","177733","0.0-6.0-5.33","5006","","","","","clear_screen","null","null","","","critical","c","d","t","240","164","164","240","164","240","spektor","0","h","164","240","240","164","164","240","39360","39360","39360","dc","null","null","null","null","null","null","[2,1]"
"","canvas-keyboard-response","210","177947","0.0-6.0-0.34","5006","","","","","pre trial waiting period","null","null","","","critical","d","c","t","154.6796","220.0396","240","164","164","240","trueblood","0.14","h","164","240","240","164","154.6796","220.0396","39360","39360","34035.6388","tc","null","null","null","null","null","null","[3,2]"
"","canvas-keyboard-response","211","178108","0.0-6.0-1.34","5006","","","","","clear_screen","null","null","","","critical","d","c","t","154.6796","220.0396","240","164","164","240","trueblood","0.14","h","164","240","240","164","154.6796","220.0396","39360","39360","34035.6388","tc","null","null","null","null","null","null","[3,2]"
"","canvas-keyboard-response","212","179455","0.0-6.0-2.34","5006","","","","","rectangles","null","null","","","critical","d","c","t","154.6796","220.0396","240","164","164","240","trueblood","0.14","h","164","240","240","164","154.6796","220.0396","39360","39360","34035.6388","tc","null","null","null","null","null","null","[3,2]"
"","canvas-keyboard-response","213","179625","0.0-6.0-3.34","5006","","","","","clear_screen","null","null","","","critical","d","c","t","154.6796","220.0396","240","164","164","240","trueblood","0.14","h","164","240","240","164","154.6796","220.0396","39360","39360","34035.6388","tc","null","null","null","null","null","null","[3,2]"
"","canvas-keyboard-response","214","180431","0.0-6.0-4.34","5006","","","","","make choice","788","2","","","critical","d","c","t","154.6796","220.0396","240","164","164","240","trueblood","0.14","h","164","240","240","164","154.6796","220.0396","39360","39360","34035.6388","tc","null","null","null","null","null","null","[3,2]"
"","canvas-keyboard-response","215","180599","0.0-6.0-5.34","5006","","","","","clear_screen","null","null","","","critical","d","c","t","154.6796","220.0396","240","164","164","240","trueblood","0.14","h","164","240","240","164","154.6796","220.0396","39360","39360","34035.6388","tc","null","null","null","null","null","null","[3,2]"
"","canvas-keyboard-response","216","180813","0.0-6.0-0.35","5006","","","","","pre trial waiting period","null","null","","","catch","sh","l","sw","188","213","164","268","148","208","spektor","null","null","null","null","null","null","null","null","null","null","null","","180","200","260","200","36000","52000","[2,3]"
"","canvas-keyboard-response","217","180974","0.0-6.0-1.35","5006","","","","","clear_screen","null","null","","","catch","sh","l","sw","188","213","164","268","148","208","spektor","null","null","null","null","null","null","null","null","null","null","null","","180","200","260","200","36000","52000","[2,3]"
"","canvas-keyboard-response","218","182314","0.0-6.0-2.35","5006","","","","","rectangles","null","null","","","catch","sh","l","sw","188","213","164","268","148","208","spektor","null","null","null","null","null","null","null","null","null","null","null","","180","200","260","200","36000","52000","[2,3]"
"","canvas-keyboard-response","219","182490","0.0-6.0-3.35","5006","","","","","clear_screen","null","null","","","catch","sh","l","sw","188","213","164","268","148","208","spektor","null","null","null","null","null","null","null","null","null","null","null","","180","200","260","200","36000","52000","[2,3]"
"","canvas-keyboard-response","220","183622","0.0-6.0-4.35","5006","","","","","make choice","1123","2","","","catch","sh","l","sw","188","213","164","268","148","208","spektor","null","null","null","null","null","null","null","null","null","null","null","","180","200","260","200","36000","52000","[2,3]"
"","canvas-keyboard-response","221","183788","0.0-6.0-5.35","5006","","","","","clear_screen","null","null","","","catch","sh","l","sw","188","213","164","268","148","208","spektor","null","null","null","null","null","null","null","null","null","null","null","","180","200","260","200","36000","52000","[2,3]"
"","canvas-keyboard-response","222","184003","0.0-6.0-0.36","5006","","","","","pre trial waiting period","null","null","","","catch","sh","l","sw","197","211","262","231","172","235","trueblood","null","null","null","null","null","null","null","null","null","null","null","","180","200","260","200","36000","52000","[2,3]"
"","canvas-keyboard-response","223","184162","0.0-6.0-1.36","5006","","","","","clear_screen","null","null","","","catch","sh","l","sw","197","211","262","231","172","235","trueblood","null","null","null","null","null","null","null","null","null","null","null","","180","200","260","200","36000","52000","[2,3]"
"","canvas-keyboard-response","224","185504","0.0-6.0-2.36","5006","","","","","rectangles","null","null","","","catch","sh","l","sw","197","211","262","231","172","235","trueblood","null","null","null","null","null","null","null","null","null","null","null","","180","200","260","200","36000","52000","[2,3]"
"","canvas-keyboard-response","225","185674","0.0-6.0-3.36","5006","","","","","clear_screen","null","null","","","catch","sh","l","sw","197","211","262","231","172","235","trueblood","null","null","null","null","null","null","null","null","null","null","null","","180","200","260","200","36000","52000","[2,3]"
"","canvas-keyboard-response","226","186342","0.0-6.0-4.36","5006","","","","","make choice","648","2","","","catch","sh","l","sw","197","211","262","231","172","235","trueblood","null","null","null","null","null","null","null","null","null","null","null","","180","200","260","200","36000","52000","[2,3]"
"","canvas-keyboard-response","227","186510","0.0-6.0-5.36","5006","","","","","clear_screen","null","null","","","catch","sh","l","sw","197","211","262","231","172","235","trueblood","null","null","null","null","null","null","null","null","null","null","null","","180","200","260","200","36000","52000","[2,3]"
"","canvas-keyboard-response","228","186723","0.0-6.0-0.37","5006","","","","","pre trial waiting period","null","null","","","critical","d","t","c","162.6685","237.1485","164","240","240","164","trueblood","0.02","h","164","240","240","164","162.6685","237.1485","39360","39360","38576.5967","td","null","null","null","null","null","null","[2,1]"
"","canvas-keyboard-response","229","186884","0.0-6.0-1.37","5006","","","","","clear_screen","null","null","","","critical","d","t","c","162.6685","237.1485","164","240","240","164","trueblood","0.02","h","164","240","240","164","162.6685","237.1485","39360","39360","38576.5967","td","null","null","null","null","null","null","[2,1]"
"","canvas-keyboard-response","230","188229","0.0-6.0-2.37","5006","","","","","rectangles","null","null","","","critical","d","t","c","162.6685","237.1485","164","240","240","164","trueblood","0.02","h","164","240","240","164","162.6685","237.1485","39360","39360","38576.5967","td","null","null","null","null","null","null","[2,1]"
"","canvas-keyboard-response","231","188400","0.0-6.0-3.37","5006","","","","","clear_screen","null","null","","","critical","d","t","c","162.6685","237.1485","164","240","240","164","trueblood","0.02","h","164","240","240","164","162.6685","237.1485","39360","39360","38576.5967","td","null","null","null","null","null","null","[2,1]"
"","canvas-keyboard-response","232","189351","0.0-6.0-4.37","5006","","","","","make choice","931","2","","","critical","d","t","c","162.6685","237.1485","164","240","240","164","trueblood","0.02","h","164","240","240","164","162.6685","237.1485","39360","39360","38576.5967","td","null","null","null","null","null","null","[2,1]"
"","canvas-keyboard-response","233","189518","0.0-6.0-5.37","5006","","","","","clear_screen","null","null","","","critical","d","t","c","162.6685","237.1485","164","240","240","164","trueblood","0.02","h","164","240","240","164","162.6685","237.1485","39360","39360","38576.5967","td","null","null","null","null","null","null","[2,1]"
"","canvas-keyboard-response","234","189735","0.0-6.0-0.38","5006","","","","","pre trial waiting period","null","null","","","critical","d","c","t","237.1485","162.6685","164","240","240","164","trueblood","0.02","w","240","164","164","240","237.1485","162.6685","39360","39360","38576.5967","tc","null","null","null","null","null","null","[3,2]"
"","canvas-keyboard-response","235","189894","0.0-6.0-1.38","5006","","","","","clear_screen","null","null","","","critical","d","c","t","237.1485","162.6685","164","240","240","164","trueblood","0.02","w","240","164","164","240","237.1485","162.6685","39360","39360","38576.5967","tc","null","null","null","null","null","null","[3,2]"
"","canvas-keyboard-response","236","191237","0.0-6.0-2.38","5006","","","","","rectangles","null","null","","","critical","d","c","t","237.1485","162.6685","164","240","240","164","trueblood","0.02","w","240","164","164","240","237.1485","162.6685","39360","39360","38576.5967","tc","null","null","null","null","null","null","[3,2]"
"","canvas-keyboard-response","237","191404","0.0-6.0-3.38","5006","","","","","clear_screen","null","null","","","critical","d","c","t","237.1485","162.6685","164","240","240","164","trueblood","0.02","w","240","164","164","240","237.1485","162.6685","39360","39360","38576.5967","tc","null","null","null","null","null","null","[3,2]"
"","canvas-keyboard-response","238","193894","0.0-6.0-4.38","5006","","","","","make choice","2471","2","","","critical","d","c","t","237.1485","162.6685","164","240","240","164","trueblood","0.02","w","240","164","164","240","237.1485","162.6685","39360","39360","38576.5967","tc","null","null","null","null","null","null","[3,2]"
"","canvas-keyboard-response","239","194061","0.0-6.0-5.38","5006","","","","","clear_screen","null","null","","","critical","d","c","t","237.1485","162.6685","164","240","240","164","trueblood","0.02","w","240","164","164","240","237.1485","162.6685","39360","39360","38576.5967","tc","null","null","null","null","null","null","[3,2]"
"","canvas-keyboard-response","240","194279","0.0-6.0-0.39","5006","","","","","pre trial waiting period","null","null","","","catch","l","sh","sw","237","228","203","155","148","181","spektor","null","null","null","null","null","null","null","null","null","null","null","","180","200","260","200","36000","52000","[1,3]"
"","canvas-keyboard-response","241","194443","0.0-6.0-1.39","5006","","","","","clear_screen","null","null","","","catch","l","sh","sw","237","228","203","155","148","181","spektor","null","null","null","null","null","null","null","null","null","null","null","","180","200","260","200","36000","52000","[1,3]"
"","canvas-keyboard-response","242","195786","0.0-6.0-2.39","5006","","","","","rectangles","null","null","","","catch","l","sh","sw","237","228","203","155","148","181","spektor","null","null","null","null","null","null","null","null","null","null","null","","180","200","260","200","36000","52000","[1,3]"
"","canvas-keyboard-response","243","195956","0.0-6.0-3.39","5006","","","","","clear_screen","null","null","","","catch","l","sh","sw","237","228","203","155","148","181","spektor","null","null","null","null","null","null","null","null","null","null","null","","180","200","260","200","36000","52000","[1,3]"
"","canvas-keyboard-response","244","196454","0.0-6.0-4.39","5006","","","","","make choice","482","1","","","catch","l","sh","sw","237","228","203","155","148","181","spektor","null","null","null","null","null","null","null","null","null","null","null","","180","200","260","200","36000","52000","[1,3]"
"","canvas-keyboard-response","245","196615","0.0-6.0-5.39","5006","","","","","clear_screen","null","null","","","catch","l","sh","sw","237","228","203","155","148","181","spektor","null","null","null","null","null","null","null","null","null","null","null","","180","200","260","200","36000","52000","[1,3]"
"","canvas-keyboard-response","246","196831","0.0-6.0-0.40","5006","","","","","pre trial waiting period","null","null","","","critical","t","c","d","240","164","164","240","237.1485","162.6685","spektor","0.02","w","240","164","164","240","237.1485","162.6685","39360","39360","38576.5967","tc","null","null","null","null","null","null","[1,2]"
"","canvas-keyboard-response","247","196987","0.0-6.0-1.40","5006","","","","","clear_screen","null","null","","","critical","t","c","d","240","164","164","240","237.1485","162.6685","spektor","0.02","w","240","164","164","240","237.1485","162.6685","39360","39360","38576.5967","tc","null","null","null","null","null","null","[1,2]"
"","canvas-keyboard-response","248","198334","0.0-6.0-2.40","5006","","","","","rectangles","null","null","","","critical","t","c","d","240","164","164","240","237.1485","162.6685","spektor","0.02","w","240","164","164","240","237.1485","162.6685","39360","39360","38576.5967","tc","null","null","null","null","null","null","[1,2]"
"","canvas-keyboard-response","249","198505","0.0-6.0-3.40","5006","","","","","clear_screen","null","null","","","critical","t","c","d","240","164","164","240","237.1485","162.6685","spektor","0.02","w","240","164","164","240","237.1485","162.6685","39360","39360","38576.5967","tc","null","null","null","null","null","null","[1,2]"
"","canvas-keyboard-response","250","198974","0.0-6.0-4.40","5006","","","","","make choice","448","2","","","critical","t","c","d","240","164","164","240","237.1485","162.6685","spektor","0.02","w","240","164","164","240","237.1485","162.6685","39360","39360","38576.5967","tc","null","null","null","null","null","null","[1,2]"
"","canvas-keyboard-response","251","199142","0.0-6.0-5.40","5006","","","","","clear_screen","null","null","","","critical","t","c","d","240","164","164","240","237.1485","162.6685","spektor","0.02","w","240","164","164","240","237.1485","162.6685","39360","39360","38576.5967","tc","null","null","null","null","null","null","[1,2]"
"","canvas-keyboard-response","252","199356","0.0-6.0-0.41","5006","","","","","pre trial waiting period","null","null","","","critical","t","c","d","164","240","240","164","164","240","trueblood","0","h","164","240","240","164","164","240","39360","39360","39360","td","null","null","null","null","null","null","[1,3]"
"","canvas-keyboard-response","253","199519","0.0-6.0-1.41","5006","","","","","clear_screen","null","null","","","critical","t","c","d","164","240","240","164","164","240","trueblood","0","h","164","240","240","164","164","240","39360","39360","39360","td","null","null","null","null","null","null","[1,3]"
"","canvas-keyboard-response","254","200863","0.0-6.0-2.41","5006","","","","","rectangles","null","null","","","critical","t","c","d","164","240","240","164","164","240","trueblood","0","h","164","240","240","164","164","240","39360","39360","39360","td","null","null","null","null","null","null","[1,3]"
"","canvas-keyboard-response","255","201033","0.0-6.0-3.41","5006","","","","","clear_screen","null","null","","","critical","t","c","d","164","240","240","164","164","240","trueblood","0","h","164","240","240","164","164","240","39360","39360","39360","td","null","null","null","null","null","null","[1,3]"
"","canvas-keyboard-response","256","202806","0.0-6.0-4.41","5006","","","","","make choice","1754","1","","","critical","t","c","d","164","240","240","164","164","240","trueblood","0","h","164","240","240","164","164","240","39360","39360","39360","td","null","null","null","null","null","null","[1,3]"
"","canvas-keyboard-response","257","202973","0.0-6.0-5.41","5006","","","","","clear_screen","null","null","","","critical","t","c","d","164","240","240","164","164","240","trueblood","0","h","164","240","240","164","164","240","39360","39360","39360","td","null","null","null","null","null","null","[1,3]"
"","canvas-keyboard-response","258","203191","0.0-6.0-0.42","5006","","","","","pre trial waiting period","null","null","","","critical","c","t","d","240","164","164","240","158.0083","227.1683","trueblood","0.09","h","164","240","240","164","158.0083","227.1683","39360","39360","35894.4834","tc","null","null","null","null","null","null","[2,1]"
"","canvas-keyboard-response","259","203345","0.0-6.0-1.42","5006","","","","","clear_screen","null","null","","","critical","c","t","d","240","164","164","240","158.0083","227.1683","trueblood","0.09","h","164","240","240","164","158.0083","227.1683","39360","39360","35894.4834","tc","null","null","null","null","null","null","[2,1]"
"","canvas-keyboard-response","260","204691","0.0-6.0-2.42","5006","","","","","rectangles","null","null","","","critical","c","t","d","240","164","164","240","158.0083","227.1683","trueblood","0.09","h","164","240","240","164","158.0083","227.1683","39360","39360","35894.4834","tc","null","null","null","null","null","null","[2,1]"
"","canvas-keyboard-response","261","204860","0.0-6.0-3.42","5006","","","","","clear_screen","null","null","","","critical","c","t","d","240","164","164","240","158.0083","227.1683","trueblood","0.09","h","164","240","240","164","158.0083","227.1683","39360","39360","35894.4834","tc","null","null","null","null","null","null","[2,1]"
"","canvas-keyboard-response","262","205470","0.0-6.0-4.42","5006","","","","","make choice","593","2","","","critical","c","t","d","240","164","164","240","158.0083","227.1683","trueblood","0.09","h","164","240","240","164","158.0083","227.1683","39360","39360","35894.4834","tc","null","null","null","null","null","null","[2,1]"
"","canvas-keyboard-response","263","205637","0.0-6.0-5.42","5006","","","","","clear_screen","null","null","","","critical","c","t","d","240","164","164","240","158.0083","227.1683","trueblood","0.09","h","164","240","240","164","158.0083","227.1683","39360","39360","35894.4834","tc","null","null","null","null","null","null","[2,1]"
"","canvas-keyboard-response","264","205850","0.0-6.0-0.43","5006","","","","","pre trial waiting period","null","null","","","catch","l","sh","sw","290","226","210","189","194","162","spektor","null","null","null","null","null","null","null","null","null","null","null","","180","200","260","200","36000","52000","[1,2]"
"","canvas-keyboard-response","265","206003","0.0-6.0-1.43","5006","","","","","clear_screen","null","null","","","catch","l","sh","sw","290","226","210","189","194","162","spektor","null","null","null","null","null","null","null","null","null","null","null","","180","200","260","200","36000","52000","[1,2]"
"","canvas-keyboard-response","266","207346","0.0-6.0-2.43","5006","","","","","rectangles","null","null","","","catch","l","sh","sw","290","226","210","189","194","162","spektor","null","null","null","null","null","null","null","null","null","null","null","","180","200","260","200","36000","52000","[1,2]"
"","canvas-keyboard-response","267","207516","0.0-6.0-3.43","5006","","","","","clear_screen","null","null","","","catch","l","sh","sw","290","226","210","189","194","162","spektor","null","null","null","null","null","null","null","null","null","null","null","","180","200","260","200","36000","52000","[1,2]"
"","canvas-keyboard-response","268","207960","0.0-6.0-4.43","5006","","","","","make choice","413","1","","","catch","l","sh","sw","290","226","210","189","194","162","spektor","null","null","null","null","null","null","null","null","null","null","null","","180","200","260","200","36000","52000","[1,2]"
"","canvas-keyboard-response","269","208135","0.0-6.0-5.43","5006","","","","","clear_screen","null","null","","","catch","l","sh","sw","290","226","210","189","194","162","spektor","null","null","null","null","null","null","null","null","null","null","null","","180","200","260","200","36000","52000","[1,2]"
"","canvas-keyboard-response","270","208353","0.0-6.0-0.44","5006","","","","","pre trial waiting period","null","null","","","critical","d","t","c","240","164","240","164","164","240","spektor","0","w","240","164","164","240","240","164","39360","39360","39360","dc","null","null","null","null","null","null","[1,3]"
"","canvas-keyboard-response","271","208518","0.0-6.0-1.44","5006","","","","","clear_screen","null","null","","","critical","d","t","c","240","164","240","164","164","240","spektor","0","w","240","164","164","240","240","164","39360","39360","39360","dc","null","null","null","null","null","null","[1,3]"
"","canvas-keyboard-response","272","209864","0.0-6.0-2.44","5006","","","","","rectangles","null","null","","","critical","d","t","c","240","164","240","164","164","240","spektor","0","w","240","164","164","240","240","164","39360","39360","39360","dc","null","null","null","null","null","null","[1,3]"
"","canvas-keyboard-response","273","210034","0.0-6.0-3.44","5006","","","","","clear_screen","null","null","","","critical","d","t","c","240","164","240","164","164","240","spektor","0","w","240","164","164","240","240","164","39360","39360","39360","dc","null","null","null","null","null","null","[1,3]"
"","canvas-keyboard-response","274","211423","0.0-6.0-4.44","5006","","","","","make choice","1367","3","","","critical","d","t","c","240","164","240","164","164","240","spektor","0","w","240","164","164","240","240","164","39360","39360","39360","dc","null","null","null","null","null","null","[1,3]"
"","canvas-keyboard-response","275","211592","0.0-6.0-5.44","5006","","","","","clear_screen","null","null","","","critical","d","t","c","240","164","240","164","164","240","spektor","0","w","240","164","164","240","240","164","39360","39360","39360","dc","null","null","null","null","null","null","[1,3]"
"","canvas-keyboard-response","276","211808","0.0-6.0-0.45","5006","","","","","pre trial waiting period","null","null","","","catch","l","sh","sw","242","196","208","159","163","180","spektor","null","null","null","null","null","null","null","null","null","null","null","","180","200","260","200","36000","52000","[1,2]"
"","canvas-keyboard-response","277","211971","0.0-6.0-1.45","5006","","","","","clear_screen","null","null","","","catch","l","sh","sw","242","196","208","159","163","180","spektor","null","null","null","null","null","null","null","null","null","null","null","","180","200","260","200","36000","52000","[1,2]"
"","canvas-keyboard-response","278","213319","0.0-6.0-2.45","5006","","","","","rectangles","null","null","","","catch","l","sh","sw","242","196","208","159","163","180","spektor","null","null","null","null","null","null","null","null","null","null","null","","180","200","260","200","36000","52000","[1,2]"
"","canvas-keyboard-response","279","213490","0.0-6.0-3.45","5006","","","","","clear_screen","null","null","","","catch","l","sh","sw","242","196","208","159","163","180","spektor","null","null","null","null","null","null","null","null","null","null","null","","180","200","260","200","36000","52000","[1,2]"
"","canvas-keyboard-response","280","214231","0.0-6.0-4.45","5006","","","","","make choice","723","1","","","catch","l","sh","sw","242","196","208","159","163","180","spektor","null","null","null","null","null","null","null","null","null","null","null","","180","200","260","200","36000","52000","[1,2]"
"","canvas-keyboard-response","281","214399","0.0-6.0-5.45","5006","","","","","clear_screen","null","null","","","catch","l","sh","sw","242","196","208","159","163","180","spektor","null","null","null","null","null","null","null","null","null","null","null","","180","200","260","200","36000","52000","[1,2]"
"","canvas-keyboard-response","282","214614","0.0-6.0-0.46","5006","","","","","pre trial waiting period","null","null","","","catch","sw","l","sh","180","200","211","288","166","143","trueblood","null","null","null","null","null","null","null","null","null","null","null","","180","200","260","200","36000","52000","[2,3]"
"","canvas-keyboard-response","283","214775","0.0-6.0-1.46","5006","","","","","clear_screen","null","null","","","catch","sw","l","sh","180","200","211","288","166","143","trueblood","null","null","null","null","null","null","null","null","null","null","null","","180","200","260","200","36000","52000","[2,3]"
"","canvas-keyboard-response","284","216120","0.0-6.0-2.46","5006","","","","","rectangles","null","null","","","catch","sw","l","sh","180","200","211","288","166","143","trueblood","null","null","null","null","null","null","null","null","null","null","null","","180","200","260","200","36000","52000","[2,3]"
"","canvas-keyboard-response","285","216290","0.0-6.0-3.46","5006","","","","","clear_screen","null","null","","","catch","sw","l","sh","180","200","211","288","166","143","trueblood","null","null","null","null","null","null","null","null","null","null","null","","180","200","260","200","36000","52000","[2,3]"
"","canvas-keyboard-response","286","216374","0.0-6.0-4.46","5006","","","","","make choice","63","2","","","catch","sw","l","sh","180","200","211","288","166","143","trueblood","null","null","null","null","null","null","null","null","null","null","null","","180","200","260","200","36000","52000","[2,3]"
"","canvas-keyboard-response","287","216542","0.0-6.0-5.46","5006","","","","","clear_screen","null","null","","","catch","sw","l","sh","180","200","211","288","166","143","trueblood","null","null","null","null","null","null","null","null","null","null","null","","180","200","260","200","36000","52000","[2,3]"
"","canvas-keyboard-response","288","216757","0.0-6.0-0.47","5006","","","","","pre trial waiting period","null","null","","","critical","c","t","d","240","164","164","240","158.0083","227.1683","spektor","0.09","h","164","240","240","164","158.0083","227.1683","39360","39360","35894.4834","dc","null","null","null","null","null","null","[3,1]"
"","canvas-keyboard-response","289","216914","0.0-6.0-1.47","5006","","","","","clear_screen","null","null","","","critical","c","t","d","240","164","164","240","158.0083","227.1683","spektor","0.09","h","164","240","240","164","158.0083","227.1683","39360","39360","35894.4834","dc","null","null","null","null","null","null","[3,1]"
"","canvas-keyboard-response","290","218262","0.0-6.0-2.47","5006","","","","","rectangles","null","null","","","critical","c","t","d","240","164","164","240","158.0083","227.1683","spektor","0.09","h","164","240","240","164","158.0083","227.1683","39360","39360","35894.4834","dc","null","null","null","null","null","null","[3,1]"
"","canvas-keyboard-response","291","218432","0.0-6.0-3.47","5006","","","","","clear_screen","null","null","","","critical","c","t","d","240","164","164","240","158.0083","227.1683","spektor","0.09","h","164","240","240","164","158.0083","227.1683","39360","39360","35894.4834","dc","null","null","null","null","null","null","[3,1]"
"","canvas-keyboard-response","292","219382","0.0-6.0-4.47","5006","","","","","make choice","931","3","","","critical","c","t","d","240","164","164","240","158.0083","227.1683","spektor","0.09","h","164","240","240","164","158.0083","227.1683","39360","39360","35894.4834","dc","null","null","null","null","null","null","[3,1]"
"","canvas-keyboard-response","293","219552","0.0-6.0-5.47","5006","","","","","clear_screen","null","null","","","critical","c","t","d","240","164","164","240","158.0083","227.1683","spektor","0.09","h","164","240","240","164","158.0083","227.1683","39360","39360","35894.4834","dc","null","null","null","null","null","null","[3,1]"
"","canvas-keyboard-response","294","219770","0.0-6.0-0.48","5006","","","","","pre trial waiting period","null","null","","","catch","l","sh","sw","214","255","230","178","162","188","trueblood","null","null","null","null","null","null","null","null","null","null","null","","180","200","260","200","36000","52000","[1,2]"
"","canvas-keyboard-response","295","219925","0.0-6.0-1.48","5006","","","","","clear_screen","null","null","","","catch","l","sh","sw","214","255","230","178","162","188","trueblood","null","null","null","null","null","null","null","null","null","null","null","","180","200","260","200","36000","52000","[1,2]"
"","canvas-keyboard-response","296","221272","0.0-6.0-2.48","5006","","","","","rectangles","null","null","","","catch","l","sh","sw","214","255","230","178","162","188","trueblood","null","null","null","null","null","null","null","null","null","null","null","","180","200","260","200","36000","52000","[1,2]"
"","canvas-keyboard-response","297","221442","0.0-6.0-3.48","5006","","","","","clear_screen","null","null","","","catch","l","sh","sw","214","255","230","178","162","188","trueblood","null","null","null","null","null","null","null","null","null","null","null","","180","200","260","200","36000","52000","[1,2]"
"","canvas-keyboard-response","298","221806","0.0-6.0-4.48","5006","","","","","make choice","343","1","","","catch","l","sh","sw","214","255","230","178","162","188","trueblood","null","null","null","null","null","null","null","null","null","null","null","","180","200","260","200","36000","52000","[1,2]"
"","canvas-keyboard-response","299","221974","0.0-6.0-5.48","5006","","","","","clear_screen","null","null","","","catch","l","sh","sw","214","255","230","178","162","188","trueblood","null","null","null","null","null","null","null","null","null","null","null","","180","200","260","200","36000","52000","[1,2]"
"","canvas-keyboard-response","300","222189","0.0-6.0-0.49","5006","","","","","pre trial waiting period","null","null","","","catch","sw","l","sh","180","200","236","236","179","177","trueblood","null","null","null","null","null","null","null","null","null","null","null","","180","200","260","200","36000","52000","[1,2]"
"","canvas-keyboard-response","301","222353","0.0-6.0-1.49","5006","","","","","clear_screen","null","null","","","catch","sw","l","sh","180","200","236","236","179","177","trueblood","null","null","null","null","null","null","null","null","null","null","null","","180","200","260","200","36000","52000","[1,2]"
"","canvas-keyboard-response","302","223700","0.0-6.0-2.49","5006","","","","","rectangles","null","null","","","catch","sw","l","sh","180","200","236","236","179","177","trueblood","null","null","null","null","null","null","null","null","null","null","null","","180","200","260","200","36000","52000","[1,2]"
"","canvas-keyboard-response","303","223870","0.0-6.0-3.49","5006","","","","","clear_screen","null","null","","","catch","sw","l","sh","180","200","236","236","179","177","trueblood","null","null","null","null","null","null","null","null","null","null","null","","180","200","260","200","36000","52000","[1,2]"
"","canvas-keyboard-response","304","224095","0.0-6.0-4.49","5006","","","","","make choice","204","2","","","catch","sw","l","sh","180","200","236","236","179","177","trueblood","null","null","null","null","null","null","null","null","null","null","null","","180","200","260","200","36000","52000","[1,2]"
"","canvas-keyboard-response","305","224266","0.0-6.0-5.49","5006","","","","","clear_screen","null","null","","","catch","sw","l","sh","180","200","236","236","179","177","trueblood","null","null","null","null","null","null","null","null","null","null","null","","180","200","260","200","36000","52000","[1,2]"
"","canvas-keyboard-response","306","224482","0.0-6.0-0.50","5006","","","","","pre trial waiting period","null","null","","","critical","c","t","d","164","240","240","164","227.1683","158.0083","spektor","0.09","w","240","164","164","240","227.1683","158.0083","39360","39360","35894.4834","dc","null","null","null","null","null","null","[3,1]"
"","canvas-keyboard-response","307","224642","0.0-6.0-1.50","5006","","","","","clear_screen","null","null","","","critical","c","t","d","164","240","240","164","227.1683","158.0083","spektor","0.09","w","240","164","164","240","227.1683","158.0083","39360","39360","35894.4834","dc","null","null","null","null","null","null","[3,1]"
