"success","trial_type","trial_index","time_elapsed","internal_node_id","sub_n","timeout","failed_images","failed_audio","failed_video","screen_id","rt","response","stimulus","view_history","trial","r1","r2","r3","w1","h1","w2","h2","w3","h3","display","tdd","tdo","tw","th","cw","ch","dw","dh","ta","ca","da","probe","csls","csss","clls","clss","sa","la","probe_rects"
"true","fullscreen","0","2689","0.0-0.0","5007","","","","","","","","","","","","","","","","","","","","","","","","","","","","","","","","","","","","","","",""
"true","preload","1","2714","0.0-1.0","5007","false","[]","[]","[]","img preload","","","","","","","","","","","","","","","","","","","","","","","","","","","","","","","","","",""
"","survey-html-form","2","4740","0.0-2.0","5007","","","","","enter-sub-number","1997","{""response"":""5007""}","","","","","","","","","","","","","","","","","","","","","","","","","","","","","","","",""
"","image-button-response","3","59414","0.0-3.0","5007","","","","","","54568","0","consent.png","","","","","","","","","","","","","","","","","","","","","","","","","","","","","","",""
"","html-button-response","4","68805","0.0-4.0","5007","","","","","intro mssg","9387","0","<div style= ""font-size:25px;"" <p> <strong> Welcome! </strong><br> <p style=""color:#8B0000; font-size:25px;""><strong> Please do NOT exit full screen until you are done with the experiment. </strong> </p><p style=""font-size:25px;color:#8B0000;""> <strong> Your data will be lost <br> if you try to go back or refresh the page after the experiment starts. Feel free to click ""previous"" during the instructions, however.</strong> </p><br><p> <strong> Thanks in advance for your contribution to our research! </strong></p>","","","","","","","","","","","","","","","","","","","","","","","","","","","","","","",""
"","instructions","5","130718","0.0-5.0","5007","","","","","instructions","61909","","","[{""page_index"":0,""viewing_time"":21476},{""page_index"":1,""viewing_time"":9769},{""page_index"":2,""viewing_time"":2870},{""page_index"":3,""viewing_time"":16008},{""page_index"":4,""viewing_time"":5001},{""page_index"":5,""viewing_time"":2951},{""page_index"":6,""viewing_time"":2360},{""page_index"":7,""viewing_time"":1473}]","","","","","","","","","","","","","","","","","","","","","","","","","","","","","",""
"","canvas-keyboard-response","6","130924","0.0-6.0-0.0","5007","","","","","pre trial waiting period","null","null","","","critical","d","t","c","240","164","240","164","164","240","spektor","0","w","240","164","164","240","240","164","39360","39360","39360","tc","null","null","null","null","null","null","[2,3]"
"","canvas-keyboard-response","7","131088","0.0-6.0-1.0","5007","","","","","clear_screen","null","null","","","critical","d","t","c","240","164","240","164","164","240","spektor","0","w","240","164","164","240","240","164","39360","39360","39360","tc","null","null","null","null","null","null","[2,3]"
"","canvas-keyboard-response","8","132434","0.0-6.0-2.0","5007","","","","","rectangles","null","null","","","critical","d","t","c","240","164","240","164","164","240","spektor","0","w","240","164","164","240","240","164","39360","39360","39360","tc","null","null","null","null","null","null","[2,3]"
"","canvas-keyboard-response","9","132597","0.0-6.0-3.0","5007","","","","","clear_screen","null","null","","","critical","d","t","c","240","164","240","164","164","240","spektor","0","w","240","164","164","240","240","164","39360","39360","39360","tc","null","null","null","null","null","null","[2,3]"
"","canvas-keyboard-response","10","133106","0.0-6.0-4.0","5007","","","","","make choice","495","3","","","critical","d","t","c","240","164","240","164","164","240","spektor","0","w","240","164","164","240","240","164","39360","39360","39360","tc","null","null","null","null","null","null","[2,3]"
"","canvas-keyboard-response","11","133266","0.0-6.0-5.0","5007","","","","","clear_screen","null","null","","","critical","d","t","c","240","164","240","164","164","240","spektor","0","w","240","164","164","240","240","164","39360","39360","39360","tc","null","null","null","null","null","null","[2,3]"
"","canvas-keyboard-response","12","133468","0.0-6.0-0.1","5007","","","","","pre trial waiting period","null","null","","","critical","c","d","t","164","240","240","164","240","164","spektor","0","w","240","164","164","240","240","164","39360","39360","39360","dc","null","null","null","null","null","null","[2,1]"
"","canvas-keyboard-response","13","133628","0.0-6.0-1.1","5007","","","","","clear_screen","null","null","","","critical","c","d","t","164","240","240","164","240","164","spektor","0","w","240","164","164","240","240","164","39360","39360","39360","dc","null","null","null","null","null","null","[2,1]"
"","canvas-keyboard-response","14","134965","0.0-6.0-2.1","5007","","","","","rectangles","null","null","","","critical","c","d","t","164","240","240","164","240","164","spektor","0","w","240","164","164","240","240","164","39360","39360","39360","dc","null","null","null","null","null","null","[2,1]"
"","canvas-keyboard-response","15","135125","0.0-6.0-3.1","5007","","","","","clear_screen","null","null","","","critical","c","d","t","164","240","240","164","240","164","spektor","0","w","240","164","164","240","240","164","39360","39360","39360","dc","null","null","null","null","null","null","[2,1]"
"","canvas-keyboard-response","16","136068","0.0-6.0-4.1","5007","","","","","make choice","930","1","","","critical","c","d","t","164","240","240","164","240","164","spektor","0","w","240","164","164","240","240","164","39360","39360","39360","dc","null","null","null","null","null","null","[2,1]"
"","canvas-keyboard-response","17","136230","0.0-6.0-5.1","5007","","","","","clear_screen","null","null","","","critical","c","d","t","164","240","240","164","240","164","spektor","0","w","240","164","164","240","240","164","39360","39360","39360","dc","null","null","null","null","null","null","[2,1]"
"","canvas-keyboard-response","18","136441","0.0-6.0-0.2","5007","","","","","pre trial waiting period","null","null","","","catch","l","sw","sh","273","163","210","238","209","174","trueblood","null","null","null","null","null","null","null","null","null","null","null","","180","200","260","200","36000","52000","[1,3]"
"","canvas-keyboard-response","19","136603","0.0-6.0-1.2","5007","","","","","clear_screen","null","null","","","catch","l","sw","sh","273","163","210","238","209","174","trueblood","null","null","null","null","null","null","null","null","null","null","null","","180","200","260","200","36000","52000","[1,3]"
"","canvas-keyboard-response","20","137946","0.0-6.0-2.2","5007","","","","","rectangles","null","null","","","catch","l","sw","sh","273","163","210","238","209","174","trueblood","null","null","null","null","null","null","null","null","null","null","null","","180","200","260","200","36000","52000","[1,3]"
"","canvas-keyboard-response","21","138108","0.0-6.0-3.2","5007","","","","","clear_screen","null","null","","","catch","l","sw","sh","273","163","210","238","209","174","trueblood","null","null","null","null","null","null","null","null","null","null","null","","180","200","260","200","36000","52000","[1,3]"
"","canvas-keyboard-response","22","139909","0.0-6.0-4.2","5007","","","","","make choice","1788","1","","","catch","l","sw","sh","273","163","210","238","209","174","trueblood","null","null","null","null","null","null","null","null","null","null","null","","180","200","260","200","36000","52000","[1,3]"
"","canvas-keyboard-response","23","140070","0.0-6.0-5.2","5007","","","","","clear_screen","null","null","","","catch","l","sw","sh","273","163","210","238","209","174","trueblood","null","null","null","null","null","null","null","null","null","null","null","","180","200","260","200","36000","52000","[1,3]"
"","canvas-keyboard-response","24","140274","0.0-6.0-0.3","5007","","","","","pre trial waiting period","null","null","","","critical","t","c","d","240","164","164","240","227.1683","158.0083","trueblood","0.09","w","240","164","164","240","227.1683","158.0083","39360","39360","35894.4834","tc","null","null","null","null","null","null","[1,2]"
"","canvas-keyboard-response","25","140433","0.0-6.0-1.3","5007","","","","","clear_screen","null","null","","","critical","t","c","d","240","164","164","240","227.1683","158.0083","trueblood","0.09","w","240","164","164","240","227.1683","158.0083","39360","39360","35894.4834","tc","null","null","null","null","null","null","[1,2]"
"","canvas-keyboard-response","26","141771","0.0-6.0-2.3","5007","","","","","rectangles","null","null","","","critical","t","c","d","240","164","164","240","227.1683","158.0083","trueblood","0.09","w","240","164","164","240","227.1683","158.0083","39360","39360","35894.4834","tc","null","null","null","null","null","null","[1,2]"
"","canvas-keyboard-response","27","141933","0.0-6.0-3.3","5007","","","","","clear_screen","null","null","","","critical","t","c","d","240","164","164","240","227.1683","158.0083","trueblood","0.09","w","240","164","164","240","227.1683","158.0083","39360","39360","35894.4834","tc","null","null","null","null","null","null","[1,2]"
"","canvas-keyboard-response","28","142965","0.0-6.0-4.3","5007","","","","","make choice","1021","1","","","critical","t","c","d","240","164","164","240","227.1683","158.0083","trueblood","0.09","w","240","164","164","240","227.1683","158.0083","39360","39360","35894.4834","tc","null","null","null","null","null","null","[1,2]"
"","canvas-keyboard-response","29","143125","0.0-6.0-5.3","5007","","","","","clear_screen","null","null","","","critical","t","c","d","240","164","164","240","227.1683","158.0083","trueblood","0.09","w","240","164","164","240","227.1683","158.0083","39360","39360","35894.4834","tc","null","null","null","null","null","null","[1,2]"
"","canvas-keyboard-response","30","143331","0.0-6.0-0.4","5007","","","","","pre trial waiting period","null","null","","","catch","sw","sh","l","180","200","192","208","200","288","spektor","null","null","null","null","null","null","null","null","null","null","null","","180","200","260","200","36000","52000","[2,3]"
"","canvas-keyboard-response","31","143493","0.0-6.0-1.4","5007","","","","","clear_screen","null","null","","","catch","sw","sh","l","180","200","192","208","200","288","spektor","null","null","null","null","null","null","null","null","null","null","null","","180","200","260","200","36000","52000","[2,3]"
"","canvas-keyboard-response","32","144831","0.0-6.0-2.4","5007","","","","","rectangles","null","null","","","catch","sw","sh","l","180","200","192","208","200","288","spektor","null","null","null","null","null","null","null","null","null","null","null","","180","200","260","200","36000","52000","[2,3]"
"","canvas-keyboard-response","33","144992","0.0-6.0-3.4","5007","","","","","clear_screen","null","null","","","catch","sw","sh","l","180","200","192","208","200","288","spektor","null","null","null","null","null","null","null","null","null","null","null","","180","200","260","200","36000","52000","[2,3]"
"","canvas-keyboard-response","34","145908","0.0-6.0-4.4","5007","","","","","make choice","904","3","","","catch","sw","sh","l","180","200","192","208","200","288","spektor","null","null","null","null","null","null","null","null","null","null","null","","180","200","260","200","36000","52000","[2,3]"
"","canvas-keyboard-response","35","146068","0.0-6.0-5.4","5007","","","","","clear_screen","null","null","","","catch","sw","sh","l","180","200","192","208","200","288","spektor","null","null","null","null","null","null","null","null","null","null","null","","180","200","260","200","36000","52000","[2,3]"
"","canvas-keyboard-response","36","146274","0.0-6.0-0.5","5007","","","","","pre trial waiting period","null","null","","","critical","c","d","t","240","164","154.6796","220.0396","164","240","trueblood","0.14","h","164","240","240","164","154.6796","220.0396","39360","39360","34035.6388","dc","null","null","null","null","null","null","[2,1]"
"","canvas-keyboard-response","37","146433","0.0-6.0-1.5","5007","","","","","clear_screen","null","null","","","critical","c","d","t","240","164","154.6796","220.0396","164","240","trueblood","0.14","h","164","240","240","164","154.6796","220.0396","39360","39360","34035.6388","dc","null","null","null","null","null","null","[2,1]"
"","canvas-keyboard-response","38","147772","0.0-6.0-2.5","5007","","","","","rectangles","null","null","","","critical","c","d","t","240","164","154.6796","220.0396","164","240","trueblood","0.14","h","164","240","240","164","154.6796","220.0396","39360","39360","34035.6388","dc","null","null","null","null","null","null","[2,1]"
"","canvas-keyboard-response","39","147932","0.0-6.0-3.5","5007","","","","","clear_screen","null","null","","","critical","c","d","t","240","164","154.6796","220.0396","164","240","trueblood","0.14","h","164","240","240","164","154.6796","220.0396","39360","39360","34035.6388","dc","null","null","null","null","null","null","[2,1]"
"","canvas-keyboard-response","40","148852","0.0-6.0-4.5","5007","","","","","make choice","909","1","","","critical","c","d","t","240","164","154.6796","220.0396","164","240","trueblood","0.14","h","164","240","240","164","154.6796","220.0396","39360","39360","34035.6388","dc","null","null","null","null","null","null","[2,1]"
"","canvas-keyboard-response","41","149014","0.0-6.0-5.5","5007","","","","","clear_screen","null","null","","","critical","c","d","t","240","164","154.6796","220.0396","164","240","trueblood","0.14","h","164","240","240","164","154.6796","220.0396","39360","39360","34035.6388","dc","null","null","null","null","null","null","[2,1]"
"","canvas-keyboard-response","42","149219","0.0-6.0-0.6","5007","","","","","pre trial waiting period","null","null","","","catch","sw","l","sh","180","200","240","225","163","219","trueblood","null","null","null","null","null","null","null","null","null","null","null","","180","200","260","200","36000","52000","[1,2]"
"","canvas-keyboard-response","43","149377","0.0-6.0-1.6","5007","","","","","clear_screen","null","null","","","catch","sw","l","sh","180","200","240","225","163","219","trueblood","null","null","null","null","null","null","null","null","null","null","null","","180","200","260","200","36000","52000","[1,2]"
"","canvas-keyboard-response","44","150715","0.0-6.0-2.6","5007","","","","","rectangles","null","null","","","catch","sw","l","sh","180","200","240","225","163","219","trueblood","null","null","null","null","null","null","null","null","null","null","null","","180","200","260","200","36000","52000","[1,2]"
"","canvas-keyboard-response","45","150878","0.0-6.0-3.6","5007","","","","","clear_screen","null","null","","","catch","sw","l","sh","180","200","240","225","163","219","trueblood","null","null","null","null","null","null","null","null","null","null","null","","180","200","260","200","36000","52000","[1,2]"
"","canvas-keyboard-response","46","151740","0.0-6.0-4.6","5007","","","","","make choice","852","2","","","catch","sw","l","sh","180","200","240","225","163","219","trueblood","null","null","null","null","null","null","null","null","null","null","null","","180","200","260","200","36000","52000","[1,2]"
"","canvas-keyboard-response","47","151900","0.0-6.0-5.6","5007","","","","","clear_screen","null","null","","","catch","sw","l","sh","180","200","240","225","163","219","trueblood","null","null","null","null","null","null","null","null","null","null","null","","180","200","260","200","36000","52000","[1,2]"
"","canvas-keyboard-response","48","152106","0.0-6.0-0.7","5007","","","","","pre trial waiting period","null","null","","","catch","l","sh","sw","208","282","239","181","151","236","trueblood","null","null","null","null","null","null","null","null","null","null","null","","180","200","260","200","36000","52000","[1,3]"
"","canvas-keyboard-response","49","152264","0.0-6.0-1.7","5007","","","","","clear_screen","null","null","","","catch","l","sh","sw","208","282","239","181","151","236","trueblood","null","null","null","null","null","null","null","null","null","null","null","","180","200","260","200","36000","52000","[1,3]"
"","canvas-keyboard-response","50","153603","0.0-6.0-2.7","5007","","","","","rectangles","null","null","","","catch","l","sh","sw","208","282","239","181","151","236","trueblood","null","null","null","null","null","null","null","null","null","null","null","","180","200","260","200","36000","52000","[1,3]"
"","canvas-keyboard-response","51","153765","0.0-6.0-3.7","5007","","","","","clear_screen","null","null","","","catch","l","sh","sw","208","282","239","181","151","236","trueblood","null","null","null","null","null","null","null","null","null","null","null","","180","200","260","200","36000","52000","[1,3]"
"","canvas-keyboard-response","52","154892","0.0-6.0-4.7","5007","","","","","make choice","1115","1","","","catch","l","sh","sw","208","282","239","181","151","236","trueblood","null","null","null","null","null","null","null","null","null","null","null","","180","200","260","200","36000","52000","[1,3]"
"","canvas-keyboard-response","53","155053","0.0-6.0-5.7","5007","","","","","clear_screen","null","null","","","catch","l","sh","sw","208","282","239","181","151","236","trueblood","null","null","null","null","null","null","null","null","null","null","null","","180","200","260","200","36000","52000","[1,3]"
"","canvas-keyboard-response","54","155259","0.0-6.0-0.8","5007","","","","","pre trial waiting period","null","null","","","catch","sw","l","sh","180","200","178","221","172","212","trueblood","null","null","null","null","null","null","null","null","null","null","null","","180","200","260","200","36000","52000","[1,2]"
"","canvas-keyboard-response","55","155418","0.0-6.0-1.8","5007","","","","","clear_screen","null","null","","","catch","sw","l","sh","180","200","178","221","172","212","trueblood","null","null","null","null","null","null","null","null","null","null","null","","180","200","260","200","36000","52000","[1,2]"
"","canvas-keyboard-response","56","156758","0.0-6.0-2.8","5007","","","","","rectangles","null","null","","","catch","sw","l","sh","180","200","178","221","172","212","trueblood","null","null","null","null","null","null","null","null","null","null","null","","180","200","260","200","36000","52000","[1,2]"
"","canvas-keyboard-response","57","156920","0.0-6.0-3.8","5007","","","","","clear_screen","null","null","","","catch","sw","l","sh","180","200","178","221","172","212","trueblood","null","null","null","null","null","null","null","null","null","null","null","","180","200","260","200","36000","52000","[1,2]"
"","canvas-keyboard-response","58","157772","0.0-6.0-4.8","5007","","","","","make choice","841","2","","","catch","sw","l","sh","180","200","178","221","172","212","trueblood","null","null","null","null","null","null","null","null","null","null","null","","180","200","260","200","36000","52000","[1,2]"
"","canvas-keyboard-response","59","157934","0.0-6.0-5.8","5007","","","","","clear_screen","null","null","","","catch","sw","l","sh","180","200","178","221","172","212","trueblood","null","null","null","null","null","null","null","null","null","null","null","","180","200","260","200","36000","52000","[1,2]"
"","canvas-keyboard-response","60","158141","0.0-6.0-0.9","5007","","","","","pre trial waiting period","null","null","","","critical","t","d","c","240","164","220.0396","154.6796","164","240","spektor","0.14","w","240","164","164","240","220.0396","154.6796","39360","39360","34035.6388","dc","null","null","null","null","null","null","[2,3]"
"","canvas-keyboard-response","61","158299","0.0-6.0-1.9","5007","","","","","clear_screen","null","null","","","critical","t","d","c","240","164","220.0396","154.6796","164","240","spektor","0.14","w","240","164","164","240","220.0396","154.6796","39360","39360","34035.6388","dc","null","null","null","null","null","null","[2,3]"
"","canvas-keyboard-response","62","159637","0.0-6.0-2.9","5007","","","","","rectangles","null","null","","","critical","t","d","c","240","164","220.0396","154.6796","164","240","spektor","0.14","w","240","164","164","240","220.0396","154.6796","39360","39360","34035.6388","dc","null","null","null","null","null","null","[2,3]"
"","canvas-keyboard-response","63","159799","0.0-6.0-3.9","5007","","","","","clear_screen","null","null","","","critical","t","d","c","240","164","220.0396","154.6796","164","240","spektor","0.14","w","240","164","164","240","220.0396","154.6796","39360","39360","34035.6388","dc","null","null","null","null","null","null","[2,3]"
"","canvas-keyboard-response","64","161093","0.0-6.0-4.9","5007","","","","","make choice","1281","3","","","critical","t","d","c","240","164","220.0396","154.6796","164","240","spektor","0.14","w","240","164","164","240","220.0396","154.6796","39360","39360","34035.6388","dc","null","null","null","null","null","null","[2,3]"
"","canvas-keyboard-response","65","161253","0.0-6.0-5.9","5007","","","","","clear_screen","null","null","","","critical","t","d","c","240","164","220.0396","154.6796","164","240","spektor","0.14","w","240","164","164","240","220.0396","154.6796","39360","39360","34035.6388","dc","null","null","null","null","null","null","[2,3]"
"","canvas-keyboard-response","66","161460","0.0-6.0-0.10","5007","","","","","pre trial waiting period","null","null","","","critical","d","c","t","220.0396","154.6796","164","240","240","164","trueblood","0.14","w","240","164","164","240","220.0396","154.6796","39360","39360","34035.6388","dc","null","null","null","null","null","null","[1,2]"
"","canvas-keyboard-response","67","161619","0.0-6.0-1.10","5007","","","","","clear_screen","null","null","","","critical","d","c","t","220.0396","154.6796","164","240","240","164","trueblood","0.14","w","240","164","164","240","220.0396","154.6796","39360","39360","34035.6388","dc","null","null","null","null","null","null","[1,2]"
"","canvas-keyboard-response","68","162959","0.0-6.0-2.10","5007","","","","","rectangles","null","null","","","critical","d","c","t","220.0396","154.6796","164","240","240","164","trueblood","0.14","w","240","164","164","240","220.0396","154.6796","39360","39360","34035.6388","dc","null","null","null","null","null","null","[1,2]"
"","canvas-keyboard-response","69","163123","0.0-6.0-3.10","5007","","","","","clear_screen","null","null","","","critical","d","c","t","220.0396","154.6796","164","240","240","164","trueblood","0.14","w","240","164","164","240","220.0396","154.6796","39360","39360","34035.6388","dc","null","null","null","null","null","null","[1,2]"
"","canvas-keyboard-response","70","164029","0.0-6.0-4.10","5007","","","","","make choice","894","2","","","critical","d","c","t","220.0396","154.6796","164","240","240","164","trueblood","0.14","w","240","164","164","240","220.0396","154.6796","39360","39360","34035.6388","dc","null","null","null","null","null","null","[1,2]"
"","canvas-keyboard-response","71","164191","0.0-6.0-5.10","5007","","","","","clear_screen","null","null","","","critical","d","c","t","220.0396","154.6796","164","240","240","164","trueblood","0.14","w","240","164","164","240","220.0396","154.6796","39360","39360","34035.6388","dc","null","null","null","null","null","null","[1,2]"
"","canvas-keyboard-response","72","164397","0.0-6.0-0.11","5007","","","","","pre trial waiting period","null","null","","","critical","d","c","t","158.0083","227.1683","240","164","164","240","spektor","0.09","h","164","240","240","164","158.0083","227.1683","39360","39360","35894.4834","td","null","null","null","null","null","null","[3,1]"
"","canvas-keyboard-response","73","164556","0.0-6.0-1.11","5007","","","","","clear_screen","null","null","","","critical","d","c","t","158.0083","227.1683","240","164","164","240","spektor","0.09","h","164","240","240","164","158.0083","227.1683","39360","39360","35894.4834","td","null","null","null","null","null","null","[3,1]"
"","canvas-keyboard-response","74","165895","0.0-6.0-2.11","5007","","","","","rectangles","null","null","","","critical","d","c","t","158.0083","227.1683","240","164","164","240","spektor","0.09","h","164","240","240","164","158.0083","227.1683","39360","39360","35894.4834","td","null","null","null","null","null","null","[3,1]"
"","canvas-keyboard-response","75","166057","0.0-6.0-3.11","5007","","","","","clear_screen","null","null","","","critical","d","c","t","158.0083","227.1683","240","164","164","240","spektor","0.09","h","164","240","240","164","158.0083","227.1683","39360","39360","35894.4834","td","null","null","null","null","null","null","[3,1]"
"","canvas-keyboard-response","76","166708","0.0-6.0-4.11","5007","","","","","make choice","639","3","","","critical","d","c","t","158.0083","227.1683","240","164","164","240","spektor","0.09","h","164","240","240","164","158.0083","227.1683","39360","39360","35894.4834","td","null","null","null","null","null","null","[3,1]"
"","canvas-keyboard-response","77","166870","0.0-6.0-5.11","5007","","","","","clear_screen","null","null","","","critical","d","c","t","158.0083","227.1683","240","164","164","240","spektor","0.09","h","164","240","240","164","158.0083","227.1683","39360","39360","35894.4834","td","null","null","null","null","null","null","[3,1]"
"","canvas-keyboard-response","78","167077","0.0-6.0-0.12","5007","","","","","pre trial waiting period","null","null","","","critical","d","c","t","227.1683","158.0083","164","240","240","164","spektor","0.09","w","240","164","164","240","227.1683","158.0083","39360","39360","35894.4834","td","null","null","null","null","null","null","[3,1]"
"","canvas-keyboard-response","79","167232","0.0-6.0-1.12","5007","","","","","clear_screen","null","null","","","critical","d","c","t","227.1683","158.0083","164","240","240","164","spektor","0.09","w","240","164","164","240","227.1683","158.0083","39360","39360","35894.4834","td","null","null","null","null","null","null","[3,1]"
"","canvas-keyboard-response","80","168573","0.0-6.0-2.12","5007","","","","","rectangles","null","null","","","critical","d","c","t","227.1683","158.0083","164","240","240","164","spektor","0.09","w","240","164","164","240","227.1683","158.0083","39360","39360","35894.4834","td","null","null","null","null","null","null","[3,1]"
"","canvas-keyboard-response","81","168735","0.0-6.0-3.12","5007","","","","","clear_screen","null","null","","","critical","d","c","t","227.1683","158.0083","164","240","240","164","spektor","0.09","w","240","164","164","240","227.1683","158.0083","39360","39360","35894.4834","td","null","null","null","null","null","null","[3,1]"
"","canvas-keyboard-response","82","169580","0.0-6.0-4.12","5007","","","","","make choice","831","3","","","critical","d","c","t","227.1683","158.0083","164","240","240","164","spektor","0.09","w","240","164","164","240","227.1683","158.0083","39360","39360","35894.4834","td","null","null","null","null","null","null","[3,1]"
"","canvas-keyboard-response","83","169745","0.0-6.0-5.12","5007","","","","","clear_screen","null","null","","","critical","d","c","t","227.1683","158.0083","164","240","240","164","spektor","0.09","w","240","164","164","240","227.1683","158.0083","39360","39360","35894.4834","td","null","null","null","null","null","null","[3,1]"
"","canvas-keyboard-response","84","169963","0.0-6.0-0.13","5007","","","","","pre trial waiting period","null","null","","","catch","l","sw","sh","226","291","166","174","184","154","spektor","null","null","null","null","null","null","null","null","null","null","null","","180","200","260","200","36000","52000","[1,3]"
"","canvas-keyboard-response","85","170124","0.0-6.0-1.13","5007","","","","","clear_screen","null","null","","","catch","l","sw","sh","226","291","166","174","184","154","spektor","null","null","null","null","null","null","null","null","null","null","null","","180","200","260","200","36000","52000","[1,3]"
"","canvas-keyboard-response","86","171470","0.0-6.0-2.13","5007","","","","","rectangles","null","null","","","catch","l","sw","sh","226","291","166","174","184","154","spektor","null","null","null","null","null","null","null","null","null","null","null","","180","200","260","200","36000","52000","[1,3]"
"","canvas-keyboard-response","87","171637","0.0-6.0-3.13","5007","","","","","clear_screen","null","null","","","catch","l","sw","sh","226","291","166","174","184","154","spektor","null","null","null","null","null","null","null","null","null","null","null","","180","200","260","200","36000","52000","[1,3]"
"","canvas-keyboard-response","88","172236","0.0-6.0-4.13","5007","","","","","make choice","582","1","","","catch","l","sw","sh","226","291","166","174","184","154","spektor","null","null","null","null","null","null","null","null","null","null","null","","180","200","260","200","36000","52000","[1,3]"
"","canvas-keyboard-response","89","172403","0.0-6.0-5.13","5007","","","","","clear_screen","null","null","","","catch","l","sw","sh","226","291","166","174","184","154","spektor","null","null","null","null","null","null","null","null","null","null","null","","180","200","260","200","36000","52000","[1,3]"
"","canvas-keyboard-response","90","172612","0.0-6.0-0.14","5007","","","","","pre trial waiting period","null","null","","","catch","sw","l","sh","180","200","231","276","166","164","spektor","null","null","null","null","null","null","null","null","null","null","null","","180","200","260","200","36000","52000","[1,2]"
"","canvas-keyboard-response","91","172771","0.0-6.0-1.14","5007","","","","","clear_screen","null","null","","","catch","sw","l","sh","180","200","231","276","166","164","spektor","null","null","null","null","null","null","null","null","null","null","null","","180","200","260","200","36000","52000","[1,2]"
"","canvas-keyboard-response","92","174112","0.0-6.0-2.14","5007","","","","","rectangles","null","null","","","catch","sw","l","sh","180","200","231","276","166","164","spektor","null","null","null","null","null","null","null","null","null","null","null","","180","200","260","200","36000","52000","[1,2]"
"","canvas-keyboard-response","93","174277","0.0-6.0-3.14","5007","","","","","clear_screen","null","null","","","catch","sw","l","sh","180","200","231","276","166","164","spektor","null","null","null","null","null","null","null","null","null","null","null","","180","200","260","200","36000","52000","[1,2]"
"","canvas-keyboard-response","94","174812","0.0-6.0-4.14","5007","","","","","make choice","514","2","","","catch","sw","l","sh","180","200","231","276","166","164","spektor","null","null","null","null","null","null","null","null","null","null","null","","180","200","260","200","36000","52000","[1,2]"
"","canvas-keyboard-response","95","174976","0.0-6.0-5.14","5007","","","","","clear_screen","null","null","","","catch","sw","l","sh","180","200","231","276","166","164","spektor","null","null","null","null","null","null","null","null","null","null","null","","180","200","260","200","36000","52000","[1,2]"
"","canvas-keyboard-response","96","175185","0.0-6.0-0.15","5007","","","","","pre trial waiting period","null","null","","","critical","d","t","c","160.6713","232.8713","164","240","240","164","trueblood","0.05","h","164","240","240","164","160.6713","232.8713","39360","39360","37415.7294","dc","null","null","null","null","null","null","[1,3]"
"","canvas-keyboard-response","97","175349","0.0-6.0-1.15","5007","","","","","clear_screen","null","null","","","critical","d","t","c","160.6713","232.8713","164","240","240","164","trueblood","0.05","h","164","240","240","164","160.6713","232.8713","39360","39360","37415.7294","dc","null","null","null","null","null","null","[1,3]"
"","canvas-keyboard-response","98","176685","0.0-6.0-2.15","5007","","","","","rectangles","null","null","","","critical","d","t","c","160.6713","232.8713","164","240","240","164","trueblood","0.05","h","164","240","240","164","160.6713","232.8713","39360","39360","37415.7294","dc","null","null","null","null","null","null","[1,3]"
"","canvas-keyboard-response","99","176849","0.0-6.0-3.15","5007","","","","","clear_screen","null","null","","","critical","d","t","c","160.6713","232.8713","164","240","240","164","trueblood","0.05","h","164","240","240","164","160.6713","232.8713","39360","39360","37415.7294","dc","null","null","null","null","null","null","[1,3]"
"","canvas-keyboard-response","100","179333","0.0-6.0-4.15","5007","","","","","make choice","2470","1","","","critical","d","t","c","160.6713","232.8713","164","240","240","164","trueblood","0.05","h","164","240","240","164","160.6713","232.8713","39360","39360","37415.7294","dc","null","null","null","null","null","null","[1,3]"
"","canvas-keyboard-response","101","179498","0.0-6.0-5.15","5007","","","","","clear_screen","null","null","","","critical","d","t","c","160.6713","232.8713","164","240","240","164","trueblood","0.05","h","164","240","240","164","160.6713","232.8713","39360","39360","37415.7294","dc","null","null","null","null","null","null","[1,3]"
"","canvas-keyboard-response","102","179705","0.0-6.0-0.16","5007","","","","","pre trial waiting period","null","null","","","critical","d","c","t","162.6685","237.1485","240","164","164","240","trueblood","0.02","h","164","240","240","164","162.6685","237.1485","39360","39360","38576.5967","td","null","null","null","null","null","null","[3,1]"
"","canvas-keyboard-response","103","179864","0.0-6.0-1.16","5007","","","","","clear_screen","null","null","","","critical","d","c","t","162.6685","237.1485","240","164","164","240","trueblood","0.02","h","164","240","240","164","162.6685","237.1485","39360","39360","38576.5967","td","null","null","null","null","null","null","[3,1]"
"","canvas-keyboard-response","104","181206","0.0-6.0-2.16","5007","","","","","rectangles","null","null","","","critical","d","c","t","162.6685","237.1485","240","164","164","240","trueblood","0.02","h","164","240","240","164","162.6685","237.1485","39360","39360","38576.5967","td","null","null","null","null","null","null","[3,1]"
"","canvas-keyboard-response","105","181371","0.0-6.0-3.16","5007","","","","","clear_screen","null","null","","","critical","d","c","t","162.6685","237.1485","240","164","164","240","trueblood","0.02","h","164","240","240","164","162.6685","237.1485","39360","39360","38576.5967","td","null","null","null","null","null","null","[3,1]"
"","canvas-keyboard-response","106","182228","0.0-6.0-4.16","5007","","","","","make choice","842","3","","","critical","d","c","t","162.6685","237.1485","240","164","164","240","trueblood","0.02","h","164","240","240","164","162.6685","237.1485","39360","39360","38576.5967","td","null","null","null","null","null","null","[3,1]"
"","canvas-keyboard-response","107","182392","0.0-6.0-5.16","5007","","","","","clear_screen","null","null","","","critical","d","c","t","162.6685","237.1485","240","164","164","240","trueblood","0.02","h","164","240","240","164","162.6685","237.1485","39360","39360","38576.5967","td","null","null","null","null","null","null","[3,1]"
"","canvas-keyboard-response","108","182600","0.0-6.0-0.17","5007","","","","","pre trial waiting period","null","null","","","critical","d","c","t","164","240","240","164","164","240","trueblood","0","h","164","240","240","164","164","240","39360","39360","39360","tc","null","null","null","null","null","null","[3,2]"
"","canvas-keyboard-response","109","182758","0.0-6.0-1.17","5007","","","","","clear_screen","null","null","","","critical","d","c","t","164","240","240","164","164","240","trueblood","0","h","164","240","240","164","164","240","39360","39360","39360","tc","null","null","null","null","null","null","[3,2]"
"","canvas-keyboard-response","110","184100","0.0-6.0-2.17","5007","","","","","rectangles","null","null","","","critical","d","c","t","164","240","240","164","164","240","trueblood","0","h","164","240","240","164","164","240","39360","39360","39360","tc","null","null","null","null","null","null","[3,2]"
"","canvas-keyboard-response","111","184264","0.0-6.0-3.17","5007","","","","","clear_screen","null","null","","","critical","d","c","t","164","240","240","164","164","240","trueblood","0","h","164","240","240","164","164","240","39360","39360","39360","tc","null","null","null","null","null","null","[3,2]"
"","canvas-keyboard-response","112","185365","0.0-6.0-4.17","5007","","","","","make choice","1085","2","","","critical","d","c","t","164","240","240","164","164","240","trueblood","0","h","164","240","240","164","164","240","39360","39360","39360","tc","null","null","null","null","null","null","[3,2]"
"","canvas-keyboard-response","113","185529","0.0-6.0-5.17","5007","","","","","clear_screen","null","null","","","critical","d","c","t","164","240","240","164","164","240","trueblood","0","h","164","240","240","164","164","240","39360","39360","39360","tc","null","null","null","null","null","null","[3,2]"
"","canvas-keyboard-response","114","185738","0.0-6.0-0.18","5007","","","","","pre trial waiting period","null","null","","","critical","d","c","t","158.0083","227.1683","240","164","164","240","spektor","0.09","h","164","240","240","164","158.0083","227.1683","39360","39360","35894.4834","tc","null","null","null","null","null","null","[3,2]"
"","canvas-keyboard-response","115","185896","0.0-6.0-1.18","5007","","","","","clear_screen","null","null","","","critical","d","c","t","158.0083","227.1683","240","164","164","240","spektor","0.09","h","164","240","240","164","158.0083","227.1683","39360","39360","35894.4834","tc","null","null","null","null","null","null","[3,2]"
"","canvas-keyboard-response","116","187236","0.0-6.0-2.18","5007","","","","","rectangles","null","null","","","critical","d","c","t","158.0083","227.1683","240","164","164","240","spektor","0.09","h","164","240","240","164","158.0083","227.1683","39360","39360","35894.4834","tc","null","null","null","null","null","null","[3,2]"
"","canvas-keyboard-response","117","187401","0.0-6.0-3.18","5007","","","","","clear_screen","null","null","","","critical","d","c","t","158.0083","227.1683","240","164","164","240","spektor","0.09","h","164","240","240","164","158.0083","227.1683","39360","39360","35894.4834","tc","null","null","null","null","null","null","[3,2]"
"","canvas-keyboard-response","118","188829","0.0-6.0-4.18","5007","","","","","make choice","1412","2","","","critical","d","c","t","158.0083","227.1683","240","164","164","240","spektor","0.09","h","164","240","240","164","158.0083","227.1683","39360","39360","35894.4834","tc","null","null","null","null","null","null","[3,2]"
"","canvas-keyboard-response","119","188993","0.0-6.0-5.18","5007","","","","","clear_screen","null","null","","","critical","d","c","t","158.0083","227.1683","240","164","164","240","spektor","0.09","h","164","240","240","164","158.0083","227.1683","39360","39360","35894.4834","tc","null","null","null","null","null","null","[3,2]"
"","canvas-keyboard-response","120","189202","0.0-6.0-0.19","5007","","","","","pre trial waiting period","null","null","","","critical","c","t","d","164","240","240","164","240","164","spektor","0","w","240","164","164","240","240","164","39360","39360","39360","td","null","null","null","null","null","null","[2,3]"
"","canvas-keyboard-response","121","189361","0.0-6.0-1.19","5007","","","","","clear_screen","null","null","","","critical","c","t","d","164","240","240","164","240","164","spektor","0","w","240","164","164","240","240","164","39360","39360","39360","td","null","null","null","null","null","null","[2,3]"
"","canvas-keyboard-response","122","190703","0.0-6.0-2.19","5007","","","","","rectangles","null","null","","","critical","c","t","d","164","240","240","164","240","164","spektor","0","w","240","164","164","240","240","164","39360","39360","39360","td","null","null","null","null","null","null","[2,3]"
"","canvas-keyboard-response","123","190871","0.0-6.0-3.19","5007","","","","","clear_screen","null","null","","","critical","c","t","d","164","240","240","164","240","164","spektor","0","w","240","164","164","240","240","164","39360","39360","39360","td","null","null","null","null","null","null","[2,3]"
"","canvas-keyboard-response","124","193252","0.0-6.0-4.19","5007","","","","","make choice","2370","3","","","critical","c","t","d","164","240","240","164","240","164","spektor","0","w","240","164","164","240","240","164","39360","39360","39360","td","null","null","null","null","null","null","[2,3]"
"","canvas-keyboard-response","125","193417","0.0-6.0-5.19","5007","","","","","clear_screen","null","null","","","critical","c","t","d","164","240","240","164","240","164","spektor","0","w","240","164","164","240","240","164","39360","39360","39360","td","null","null","null","null","null","null","[2,3]"
"","canvas-keyboard-response","126","193627","0.0-6.0-0.20","5007","","","","","pre trial waiting period","null","null","","","catch","l","sh","sw","218","281","179","168","209","213","trueblood","null","null","null","null","null","null","null","null","null","null","null","","180","200","260","200","36000","52000","[1,3]"
"","canvas-keyboard-response","127","193785","0.0-6.0-1.20","5007","","","","","clear_screen","null","null","","","catch","l","sh","sw","218","281","179","168","209","213","trueblood","null","null","null","null","null","null","null","null","null","null","null","","180","200","260","200","36000","52000","[1,3]"
"","canvas-keyboard-response","128","195125","0.0-6.0-2.20","5007","","","","","rectangles","null","null","","","catch","l","sh","sw","218","281","179","168","209","213","trueblood","null","null","null","null","null","null","null","null","null","null","null","","180","200","260","200","36000","52000","[1,3]"
"","canvas-keyboard-response","129","195292","0.0-6.0-3.20","5007","","","","","clear_screen","null","null","","","catch","l","sh","sw","218","281","179","168","209","213","trueblood","null","null","null","null","null","null","null","null","null","null","null","","180","200","260","200","36000","52000","[1,3]"
"","canvas-keyboard-response","130","195980","0.0-6.0-4.20","5007","","","","","make choice","674","1","","","catch","l","sh","sw","218","281","179","168","209","213","trueblood","null","null","null","null","null","null","null","null","null","null","null","","180","200","260","200","36000","52000","[1,3]"
"","canvas-keyboard-response","131","196147","0.0-6.0-5.20","5007","","","","","clear_screen","null","null","","","catch","l","sh","sw","218","281","179","168","209","213","trueblood","null","null","null","null","null","null","null","null","null","null","null","","180","200","260","200","36000","52000","[1,3]"
"","canvas-keyboard-response","132","196356","0.0-6.0-0.21","5007","","","","","pre trial waiting period","null","null","","","catch","sh","sw","l","201","165","193","220","229","194","spektor","null","null","null","null","null","null","null","null","null","null","null","","180","200","260","200","36000","52000","[1,3]"
"","canvas-keyboard-response","133","196515","0.0-6.0-1.21","5007","","","","","clear_screen","null","null","","","catch","sh","sw","l","201","165","193","220","229","194","spektor","null","null","null","null","null","null","null","null","null","null","null","","180","200","260","200","36000","52000","[1,3]"
"","canvas-keyboard-response","134","197858","0.0-6.0-2.21","5007","","","","","rectangles","null","null","","","catch","sh","sw","l","201","165","193","220","229","194","spektor","null","null","null","null","null","null","null","null","null","null","null","","180","200","260","200","36000","52000","[1,3]"
"","canvas-keyboard-response","135","198023","0.0-6.0-3.21","5007","","","","","clear_screen","null","null","","","catch","sh","sw","l","201","165","193","220","229","194","spektor","null","null","null","null","null","null","null","null","null","null","null","","180","200","260","200","36000","52000","[1,3]"
"","canvas-keyboard-response","136","199100","0.0-6.0-4.21","5007","","","","","make choice","1062","3","","","catch","sh","sw","l","201","165","193","220","229","194","spektor","null","null","null","null","null","null","null","null","null","null","null","","180","200","260","200","36000","52000","[1,3]"
"","canvas-keyboard-response","137","199264","0.0-6.0-5.21","5007","","","","","clear_screen","null","null","","","catch","sh","sw","l","201","165","193","220","229","194","spektor","null","null","null","null","null","null","null","null","null","null","null","","180","200","260","200","36000","52000","[1,3]"
"","canvas-keyboard-response","138","199474","0.0-6.0-0.22","5007","","","","","pre trial waiting period","null","null","","","catch","sw","l","sh","180","200","191","252","174","186","trueblood","null","null","null","null","null","null","null","null","null","null","null","","180","200","260","200","36000","52000","[2,3]"
"","canvas-keyboard-response","139","199632","0.0-6.0-1.22","5007","","","","","clear_screen","null","null","","","catch","sw","l","sh","180","200","191","252","174","186","trueblood","null","null","null","null","null","null","null","null","null","null","null","","180","200","260","200","36000","52000","[2,3]"
"","canvas-keyboard-response","140","200974","0.0-6.0-2.22","5007","","","","","rectangles","null","null","","","catch","sw","l","sh","180","200","191","252","174","186","trueblood","null","null","null","null","null","null","null","null","null","null","null","","180","200","260","200","36000","52000","[2,3]"
"","canvas-keyboard-response","141","201138","0.0-6.0-3.22","5007","","","","","clear_screen","null","null","","","catch","sw","l","sh","180","200","191","252","174","186","trueblood","null","null","null","null","null","null","null","null","null","null","null","","180","200","260","200","36000","52000","[2,3]"
"","canvas-keyboard-response","142","201820","0.0-6.0-4.22","5007","","","","","make choice","667","2","","","catch","sw","l","sh","180","200","191","252","174","186","trueblood","null","null","null","null","null","null","null","null","null","null","null","","180","200","260","200","36000","52000","[2,3]"
"","canvas-keyboard-response","143","201987","0.0-6.0-5.22","5007","","","","","clear_screen","null","null","","","catch","sw","l","sh","180","200","191","252","174","186","trueblood","null","null","null","null","null","null","null","null","null","null","null","","180","200","260","200","36000","52000","[2,3]"
"","canvas-keyboard-response","144","202197","0.0-6.0-0.23","5007","","","","","pre trial waiting period","null","null","","","catch","l","sw","sh","231","257","153","178","176","191","trueblood","null","null","null","null","null","null","null","null","null","null","null","","180","200","260","200","36000","52000","[1,3]"
"","canvas-keyboard-response","145","202355","0.0-6.0-1.23","5007","","","","","clear_screen","null","null","","","catch","l","sw","sh","231","257","153","178","176","191","trueblood","null","null","null","null","null","null","null","null","null","null","null","","180","200","260","200","36000","52000","[1,3]"
"","canvas-keyboard-response","146","203700","0.0-6.0-2.23","5007","","","","","rectangles","null","null","","","catch","l","sw","sh","231","257","153","178","176","191","trueblood","null","null","null","null","null","null","null","null","null","null","null","","180","200","260","200","36000","52000","[1,3]"
"","canvas-keyboard-response","147","203877","0.0-6.0-3.23","5007","","","","","clear_screen","null","null","","","catch","l","sw","sh","231","257","153","178","176","191","trueblood","null","null","null","null","null","null","null","null","null","null","null","","180","200","260","200","36000","52000","[1,3]"
"","canvas-keyboard-response","148","204421","0.0-6.0-4.23","5007","","","","","make choice","521","1","","","catch","l","sw","sh","231","257","153","178","176","191","trueblood","null","null","null","null","null","null","null","null","null","null","null","","180","200","260","200","36000","52000","[1,3]"
"","canvas-keyboard-response","149","204586","0.0-6.0-5.23","5007","","","","","clear_screen","null","null","","","catch","l","sw","sh","231","257","153","178","176","191","trueblood","null","null","null","null","null","null","null","null","null","null","null","","180","200","260","200","36000","52000","[1,3]"
"","canvas-keyboard-response","150","204797","0.0-6.0-0.24","5007","","","","","pre trial waiting period","null","null","","","critical","c","d","t","240","164","154.6796","220.0396","164","240","spektor","0.14","h","164","240","240","164","154.6796","220.0396","39360","39360","34035.6388","dc","null","null","null","null","null","null","[2,1]"
"","canvas-keyboard-response","151","204956","0.0-6.0-1.24","5007","","","","","clear_screen","null","null","","","critical","c","d","t","240","164","154.6796","220.0396","164","240","spektor","0.14","h","164","240","240","164","154.6796","220.0396","39360","39360","34035.6388","dc","null","null","null","null","null","null","[2,1]"
"","canvas-keyboard-response","152","206299","0.0-6.0-2.24","5007","","","","","rectangles","null","null","","","critical","c","d","t","240","164","154.6796","220.0396","164","240","spektor","0.14","h","164","240","240","164","154.6796","220.0396","39360","39360","34035.6388","dc","null","null","null","null","null","null","[2,1]"
"","canvas-keyboard-response","153","206466","0.0-6.0-3.24","5007","","","","","clear_screen","null","null","","","critical","c","d","t","240","164","154.6796","220.0396","164","240","spektor","0.14","h","164","240","240","164","154.6796","220.0396","39360","39360","34035.6388","dc","null","null","null","null","null","null","[2,1]"
"","canvas-keyboard-response","154","207180","0.0-6.0-4.24","5007","","","","","make choice","698","1","","","critical","c","d","t","240","164","154.6796","220.0396","164","240","spektor","0.14","h","164","240","240","164","154.6796","220.0396","39360","39360","34035.6388","dc","null","null","null","null","null","null","[2,1]"
"","canvas-keyboard-response","155","207346","0.0-6.0-5.24","5007","","","","","clear_screen","null","null","","","critical","c","d","t","240","164","154.6796","220.0396","164","240","spektor","0.14","h","164","240","240","164","154.6796","220.0396","39360","39360","34035.6388","dc","null","null","null","null","null","null","[2,1]"
"","canvas-keyboard-response","156","207558","0.0-6.0-0.25","5007","","","","","pre trial waiting period","null","null","","","catch","sh","sw","l","230","208","188","204","272","216","spektor","null","null","null","null","null","null","null","null","null","null","null","","180","200","260","200","36000","52000","[2,3]"
"","canvas-keyboard-response","157","207718","0.0-6.0-1.25","5007","","","","","clear_screen","null","null","","","catch","sh","sw","l","230","208","188","204","272","216","spektor","null","null","null","null","null","null","null","null","null","null","null","","180","200","260","200","36000","52000","[2,3]"
"","canvas-keyboard-response","158","209060","0.0-6.0-2.25","5007","","","","","rectangles","null","null","","","catch","sh","sw","l","230","208","188","204","272","216","spektor","null","null","null","null","null","null","null","null","null","null","null","","180","200","260","200","36000","52000","[2,3]"
"","canvas-keyboard-response","159","209231","0.0-6.0-3.25","5007","","","","","clear_screen","null","null","","","catch","sh","sw","l","230","208","188","204","272","216","spektor","null","null","null","null","null","null","null","null","null","null","null","","180","200","260","200","36000","52000","[2,3]"
"","canvas-keyboard-response","160","210187","0.0-6.0-4.25","5007","","","","","make choice","941","3","","","catch","sh","sw","l","230","208","188","204","272","216","spektor","null","null","null","null","null","null","null","null","null","null","null","","180","200","260","200","36000","52000","[2,3]"
"","canvas-keyboard-response","161","210353","0.0-6.0-5.25","5007","","","","","clear_screen","null","null","","","catch","sh","sw","l","230","208","188","204","272","216","spektor","null","null","null","null","null","null","null","null","null","null","null","","180","200","260","200","36000","52000","[2,3]"
"","canvas-keyboard-response","162","210564","0.0-6.0-0.26","5007","","","","","pre trial waiting period","null","null","","","critical","t","d","c","240","164","232.8713","160.6713","164","240","spektor","0.05","w","240","164","164","240","232.8713","160.6713","39360","39360","37415.7294","td","null","null","null","null","null","null","[1,2]"
"","canvas-keyboard-response","163","210723","0.0-6.0-1.26","5007","","","","","clear_screen","null","null","","","critical","t","d","c","240","164","232.8713","160.6713","164","240","spektor","0.05","w","240","164","164","240","232.8713","160.6713","39360","39360","37415.7294","td","null","null","null","null","null","null","[1,2]"
"","canvas-keyboard-response","164","212065","0.0-6.0-2.26","5007","","","","","rectangles","null","null","","","critical","t","d","c","240","164","232.8713","160.6713","164","240","spektor","0.05","w","240","164","164","240","232.8713","160.6713","39360","39360","37415.7294","td","null","null","null","null","null","null","[1,2]"
"","canvas-keyboard-response","165","212231","0.0-6.0-3.26","5007","","","","","clear_screen","null","null","","","critical","t","d","c","240","164","232.8713","160.6713","164","240","spektor","0.05","w","240","164","164","240","232.8713","160.6713","39360","39360","37415.7294","td","null","null","null","null","null","null","[1,2]"
"","canvas-keyboard-response","166","213403","0.0-6.0-4.26","5007","","","","","make choice","1156","1","","","critical","t","d","c","240","164","232.8713","160.6713","164","240","spektor","0.05","w","240","164","164","240","232.8713","160.6713","39360","39360","37415.7294","td","null","null","null","null","null","null","[1,2]"
"","canvas-keyboard-response","167","213571","0.0-6.0-5.26","5007","","","","","clear_screen","null","null","","","critical","t","d","c","240","164","232.8713","160.6713","164","240","spektor","0.05","w","240","164","164","240","232.8713","160.6713","39360","39360","37415.7294","td","null","null","null","null","null","null","[1,2]"
"","canvas-keyboard-response","168","213782","0.0-6.0-0.27","5007","","","","","pre trial waiting period","null","null","","","critical","d","c","t","232.8713","160.6713","164","240","240","164","trueblood","0.05","w","240","164","164","240","232.8713","160.6713","39360","39360","37415.7294","dc","null","null","null","null","null","null","[1,2]"
"","canvas-keyboard-response","169","213940","0.0-6.0-1.27","5007","","","","","clear_screen","null","null","","","critical","d","c","t","232.8713","160.6713","164","240","240","164","trueblood","0.05","w","240","164","164","240","232.8713","160.6713","39360","39360","37415.7294","dc","null","null","null","null","null","null","[1,2]"
"","canvas-keyboard-response","170","215283","0.0-6.0-2.27","5007","","","","","rectangles","null","null","","","critical","d","c","t","232.8713","160.6713","164","240","240","164","trueblood","0.05","w","240","164","164","240","232.8713","160.6713","39360","39360","37415.7294","dc","null","null","null","null","null","null","[1,2]"
"","canvas-keyboard-response","171","215451","0.0-6.0-3.27","5007","","","","","clear_screen","null","null","","","critical","d","c","t","232.8713","160.6713","164","240","240","164","trueblood","0.05","w","240","164","164","240","232.8713","160.6713","39360","39360","37415.7294","dc","null","null","null","null","null","null","[1,2]"
"","canvas-keyboard-response","172","216484","0.0-6.0-4.27","5007","","","","","make choice","1017","1","","","critical","d","c","t","232.8713","160.6713","164","240","240","164","trueblood","0.05","w","240","164","164","240","232.8713","160.6713","39360","39360","37415.7294","dc","null","null","null","null","null","null","[1,2]"
"","canvas-keyboard-response","173","216650","0.0-6.0-5.27","5007","","","","","clear_screen","null","null","","","critical","d","c","t","232.8713","160.6713","164","240","240","164","trueblood","0.05","w","240","164","164","240","232.8713","160.6713","39360","39360","37415.7294","dc","null","null","null","null","null","null","[1,2]"
"","canvas-keyboard-response","174","216861","0.0-6.0-0.28","5007","","","","","pre trial waiting period","null","null","","","critical","t","c","d","240","164","164","240","232.8713","160.6713","spektor","0.05","w","240","164","164","240","232.8713","160.6713","39360","39360","37415.7294","tc","null","null","null","null","null","null","[1,2]"
"","canvas-keyboard-response","175","217019","0.0-6.0-1.28","5007","","","","","clear_screen","null","null","","","critical","t","c","d","240","164","164","240","232.8713","160.6713","spektor","0.05","w","240","164","164","240","232.8713","160.6713","39360","39360","37415.7294","tc","null","null","null","null","null","null","[1,2]"
"","canvas-keyboard-response","176","218362","0.0-6.0-2.28","5007","","","","","rectangles","null","null","","","critical","t","c","d","240","164","164","240","232.8713","160.6713","spektor","0.05","w","240","164","164","240","232.8713","160.6713","39360","39360","37415.7294","tc","null","null","null","null","null","null","[1,2]"
"","canvas-keyboard-response","177","218530","0.0-6.0-3.28","5007","","","","","clear_screen","null","null","","","critical","t","c","d","240","164","164","240","232.8713","160.6713","spektor","0.05","w","240","164","164","240","232.8713","160.6713","39360","39360","37415.7294","tc","null","null","null","null","null","null","[1,2]"
"","canvas-keyboard-response","178","219092","0.0-6.0-4.28","5007","","","","","make choice","546","1","","","critical","t","c","d","240","164","164","240","232.8713","160.6713","spektor","0.05","w","240","164","164","240","232.8713","160.6713","39360","39360","37415.7294","tc","null","null","null","null","null","null","[1,2]"
"","canvas-keyboard-response","179","219259","0.0-6.0-5.28","5007","","","","","clear_screen","null","null","","","critical","t","c","d","240","164","164","240","232.8713","160.6713","spektor","0.05","w","240","164","164","240","232.8713","160.6713","39360","39360","37415.7294","tc","null","null","null","null","null","null","[1,2]"
"","canvas-keyboard-response","180","219471","0.0-6.0-0.29","5007","","","","","pre trial waiting period","null","null","","","catch","sh","l","sw","237","219","270","217","158","216","spektor","null","null","null","null","null","null","null","null","null","null","null","","180","200","260","200","36000","52000","[1,2]"
"","canvas-keyboard-response","181","219629","0.0-6.0-1.29","5007","","","","","clear_screen","null","null","","","catch","sh","l","sw","237","219","270","217","158","216","spektor","null","null","null","null","null","null","null","null","null","null","null","","180","200","260","200","36000","52000","[1,2]"
"","canvas-keyboard-response","182","220972","0.0-6.0-2.29","5007","","","","","rectangles","null","null","","","catch","sh","l","sw","237","219","270","217","158","216","spektor","null","null","null","null","null","null","null","null","null","null","null","","180","200","260","200","36000","52000","[1,2]"
"","canvas-keyboard-response","183","221146","0.0-6.0-3.29","5007","","","","","clear_screen","null","null","","","catch","sh","l","sw","237","219","270","217","158","216","spektor","null","null","null","null","null","null","null","null","null","null","null","","180","200","260","200","36000","52000","[1,2]"
"","canvas-keyboard-response","184","221669","0.0-6.0-4.29","5007","","","","","make choice","504","1","","","catch","sh","l","sw","237","219","270","217","158","216","spektor","null","null","null","null","null","null","null","null","null","null","null","","180","200","260","200","36000","52000","[1,2]"
"","canvas-keyboard-response","185","221832","0.0-6.0-5.29","5007","","","","","clear_screen","null","null","","","catch","sh","l","sw","237","219","270","217","158","216","spektor","null","null","null","null","null","null","null","null","null","null","null","","180","200","260","200","36000","52000","[1,2]"
"","canvas-keyboard-response","186","222044","0.0-6.0-0.30","5007","","","","","pre trial waiting period","null","null","","","critical","d","t","c","162.6685","237.1485","164","240","240","164","spektor","0.02","h","164","240","240","164","162.6685","237.1485","39360","39360","38576.5967","td","null","null","null","null","null","null","[2,1]"
"","canvas-keyboard-response","187","222203","0.0-6.0-1.30","5007","","","","","clear_screen","null","null","","","critical","d","t","c","162.6685","237.1485","164","240","240","164","spektor","0.02","h","164","240","240","164","162.6685","237.1485","39360","39360","38576.5967","td","null","null","null","null","null","null","[2,1]"
"","canvas-keyboard-response","188","223548","0.0-6.0-2.30","5007","","","","","rectangles","null","null","","","critical","d","t","c","162.6685","237.1485","164","240","240","164","spektor","0.02","h","164","240","240","164","162.6685","237.1485","39360","39360","38576.5967","td","null","null","null","null","null","null","[2,1]"
"","canvas-keyboard-response","189","223716","0.0-6.0-3.30","5007","","","","","clear_screen","null","null","","","critical","d","t","c","162.6685","237.1485","164","240","240","164","spektor","0.02","h","164","240","240","164","162.6685","237.1485","39360","39360","38576.5967","td","null","null","null","null","null","null","[2,1]"
"","canvas-keyboard-response","190","225380","0.0-6.0-4.30","5007","","","","","make choice","1647","1","","","critical","d","t","c","162.6685","237.1485","164","240","240","164","spektor","0.02","h","164","240","240","164","162.6685","237.1485","39360","39360","38576.5967","td","null","null","null","null","null","null","[2,1]"
"","canvas-keyboard-response","191","225546","0.0-6.0-5.30","5007","","","","","clear_screen","null","null","","","critical","d","t","c","162.6685","237.1485","164","240","240","164","spektor","0.02","h","164","240","240","164","162.6685","237.1485","39360","39360","38576.5967","td","null","null","null","null","null","null","[2,1]"
"","canvas-keyboard-response","192","225758","0.0-6.0-0.31","5007","","","","","pre trial waiting period","null","null","","","critical","t","c","d","240","164","164","240","227.1683","158.0083","spektor","0.09","w","240","164","164","240","227.1683","158.0083","39360","39360","35894.4834","tc","null","null","null","null","null","null","[1,2]"
"","canvas-keyboard-response","193","225915","0.0-6.0-1.31","5007","","","","","clear_screen","null","null","","","critical","t","c","d","240","164","164","240","227.1683","158.0083","spektor","0.09","w","240","164","164","240","227.1683","158.0083","39360","39360","35894.4834","tc","null","null","null","null","null","null","[1,2]"
"","canvas-keyboard-response","194","227261","0.0-6.0-2.31","5007","","","","","rectangles","null","null","","","critical","t","c","d","240","164","164","240","227.1683","158.0083","spektor","0.09","w","240","164","164","240","227.1683","158.0083","39360","39360","35894.4834","tc","null","null","null","null","null","null","[1,2]"
"","canvas-keyboard-response","195","227433","0.0-6.0-3.31","5007","","","","","clear_screen","null","null","","","critical","t","c","d","240","164","164","240","227.1683","158.0083","spektor","0.09","w","240","164","164","240","227.1683","158.0083","39360","39360","35894.4834","tc","null","null","null","null","null","null","[1,2]"
"","canvas-keyboard-response","196","228067","0.0-6.0-4.31","5007","","","","","make choice","618","1","","","critical","t","c","d","240","164","164","240","227.1683","158.0083","spektor","0.09","w","240","164","164","240","227.1683","158.0083","39360","39360","35894.4834","tc","null","null","null","null","null","null","[1,2]"
"","canvas-keyboard-response","197","228235","0.0-6.0-5.31","5007","","","","","clear_screen","null","null","","","critical","t","c","d","240","164","164","240","227.1683","158.0083","spektor","0.09","w","240","164","164","240","227.1683","158.0083","39360","39360","35894.4834","tc","null","null","null","null","null","null","[1,2]"
"","canvas-keyboard-response","198","228447","0.0-6.0-0.32","5007","","","","","pre trial waiting period","null","null","","","critical","c","t","d","164","240","240","164","227.1683","158.0083","trueblood","0.09","w","240","164","164","240","227.1683","158.0083","39360","39360","35894.4834","dc","null","null","null","null","null","null","[3,1]"
"","canvas-keyboard-response","199","228605","0.0-6.0-1.32","5007","","","","","clear_screen","null","null","","","critical","c","t","d","164","240","240","164","227.1683","158.0083","trueblood","0.09","w","240","164","164","240","227.1683","158.0083","39360","39360","35894.4834","dc","null","null","null","null","null","null","[3,1]"
"","canvas-keyboard-response","200","229950","0.0-6.0-2.32","5007","","","","","rectangles","null","null","","","critical","c","t","d","164","240","240","164","227.1683","158.0083","trueblood","0.09","w","240","164","164","240","227.1683","158.0083","39360","39360","35894.4834","dc","null","null","null","null","null","null","[3,1]"
"","canvas-keyboard-response","201","230118","0.0-6.0-3.32","5007","","","","","clear_screen","null","null","","","critical","c","t","d","164","240","240","164","227.1683","158.0083","trueblood","0.09","w","240","164","164","240","227.1683","158.0083","39360","39360","35894.4834","dc","null","null","null","null","null","null","[3,1]"
"","canvas-keyboard-response","202","231211","0.0-6.0-4.32","5007","","","","","make choice","1075","3","","","critical","c","t","d","164","240","240","164","227.1683","158.0083","trueblood","0.09","w","240","164","164","240","227.1683","158.0083","39360","39360","35894.4834","dc","null","null","null","null","null","null","[3,1]"
"","canvas-keyboard-response","203","231378","0.0-6.0-5.32","5007","","","","","clear_screen","null","null","","","critical","c","t","d","164","240","240","164","227.1683","158.0083","trueblood","0.09","w","240","164","164","240","227.1683","158.0083","39360","39360","35894.4834","dc","null","null","null","null","null","null","[3,1]"
"","canvas-keyboard-response","204","231591","0.0-6.0-0.33","5007","","","","","pre trial waiting period","null","null","","","critical","t","c","d","240","164","164","240","220.0396","154.6796","trueblood","0.14","w","240","164","164","240","220.0396","154.6796","39360","39360","34035.6388","td","null","null","null","null","null","null","[1,3]"
"","canvas-keyboard-response","205","231749","0.0-6.0-1.33","5007","","","","","clear_screen","null","null","","","critical","t","c","d","240","164","164","240","220.0396","154.6796","trueblood","0.14","w","240","164","164","240","220.0396","154.6796","39360","39360","34035.6388","td","null","null","null","null","null","null","[1,3]"
"","canvas-keyboard-response","206","233093","0.0-6.0-2.33","5007","","","","","rectangles","null","null","","","critical","t","c","d","240","164","164","240","220.0396","154.6796","trueblood","0.14","w","240","164","164","240","220.0396","154.6796","39360","39360","34035.6388","td","null","null","null","null","null","null","[1,3]"
"","canvas-keyboard-response","207","233262","0.0-6.0-3.33","5007","","","","","clear_screen","null","null","","","critical","t","c","d","240","164","164","240","220.0396","154.6796","trueblood","0.14","w","240","164","164","240","220.0396","154.6796","39360","39360","34035.6388","td","null","null","null","null","null","null","[1,3]"
"","canvas-keyboard-response","208","234628","0.0-6.0-4.33","5007","","","","","make choice","1334","1","","","critical","t","c","d","240","164","164","240","220.0396","154.6796","trueblood","0.14","w","240","164","164","240","220.0396","154.6796","39360","39360","34035.6388","td","null","null","null","null","null","null","[1,3]"
"","canvas-keyboard-response","209","234810","0.0-6.0-5.33","5007","","","","","clear_screen","null","null","","","critical","t","c","d","240","164","164","240","220.0396","154.6796","trueblood","0.14","w","240","164","164","240","220.0396","154.6796","39360","39360","34035.6388","td","null","null","null","null","null","null","[1,3]"
"","canvas-keyboard-response","210","235025","0.0-6.0-0.34","5007","","","","","pre trial waiting period","null","null","","","critical","c","t","d","164","240","240","164","232.8713","160.6713","trueblood","0.05","w","240","164","164","240","232.8713","160.6713","39360","39360","37415.7294","td","null","null","null","null","null","null","[2,3]"
"","canvas-keyboard-response","211","235185","0.0-6.0-1.34","5007","","","","","clear_screen","null","null","","","critical","c","t","d","164","240","240","164","232.8713","160.6713","trueblood","0.05","w","240","164","164","240","232.8713","160.6713","39360","39360","37415.7294","td","null","null","null","null","null","null","[2,3]"
"","canvas-keyboard-response","212","236532","0.0-6.0-2.34","5007","","","","","rectangles","null","null","","","critical","c","t","d","164","240","240","164","232.8713","160.6713","trueblood","0.05","w","240","164","164","240","232.8713","160.6713","39360","39360","37415.7294","td","null","null","null","null","null","null","[2,3]"
"","canvas-keyboard-response","213","236701","0.0-6.0-3.34","5007","","","","","clear_screen","null","null","","","critical","c","t","d","164","240","240","164","232.8713","160.6713","trueblood","0.05","w","240","164","164","240","232.8713","160.6713","39360","39360","37415.7294","td","null","null","null","null","null","null","[2,3]"
"","canvas-keyboard-response","214","237660","0.0-6.0-4.34","5007","","","","","make choice","942","2","","","critical","c","t","d","164","240","240","164","232.8713","160.6713","trueblood","0.05","w","240","164","164","240","232.8713","160.6713","39360","39360","37415.7294","td","null","null","null","null","null","null","[2,3]"
"","canvas-keyboard-response","215","237828","0.0-6.0-5.34","5007","","","","","clear_screen","null","null","","","critical","c","t","d","164","240","240","164","232.8713","160.6713","trueblood","0.05","w","240","164","164","240","232.8713","160.6713","39360","39360","37415.7294","td","null","null","null","null","null","null","[2,3]"
"","canvas-keyboard-response","216","238044","0.0-6.0-0.35","5007","","","","","pre trial waiting period","null","null","","","critical","t","d","c","240","164","240","164","164","240","trueblood","0","w","240","164","164","240","240","164","39360","39360","39360","tc","null","null","null","null","null","null","[1,3]"
"","canvas-keyboard-response","217","238203","0.0-6.0-1.35","5007","","","","","clear_screen","null","null","","","critical","t","d","c","240","164","240","164","164","240","trueblood","0","w","240","164","164","240","240","164","39360","39360","39360","tc","null","null","null","null","null","null","[1,3]"
"","canvas-keyboard-response","218","239548","0.0-6.0-2.35","5007","","","","","rectangles","null","null","","","critical","t","d","c","240","164","240","164","164","240","trueblood","0","w","240","164","164","240","240","164","39360","39360","39360","tc","null","null","null","null","null","null","[1,3]"
"","canvas-keyboard-response","219","239720","0.0-6.0-3.35","5007","","","","","clear_screen","null","null","","","critical","t","d","c","240","164","240","164","164","240","trueblood","0","w","240","164","164","240","240","164","39360","39360","39360","tc","null","null","null","null","null","null","[1,3]"
"","canvas-keyboard-response","220","241083","0.0-6.0-4.35","5007","","","","","make choice","1345","1","","","critical","t","d","c","240","164","240","164","164","240","trueblood","0","w","240","164","164","240","240","164","39360","39360","39360","tc","null","null","null","null","null","null","[1,3]"
"","canvas-keyboard-response","221","241252","0.0-6.0-5.35","5007","","","","","clear_screen","null","null","","","critical","t","d","c","240","164","240","164","164","240","trueblood","0","w","240","164","164","240","240","164","39360","39360","39360","tc","null","null","null","null","null","null","[1,3]"
"","canvas-keyboard-response","222","241466","0.0-6.0-0.36","5007","","","","","pre trial waiting period","null","null","","","catch","l","sw","sh","266","188","178","221","227","195","spektor","null","null","null","null","null","null","null","null","null","null","null","","180","200","260","200","36000","52000","[1,2]"
"","canvas-keyboard-response","223","241624","0.0-6.0-1.36","5007","","","","","clear_screen","null","null","","","catch","l","sw","sh","266","188","178","221","227","195","spektor","null","null","null","null","null","null","null","null","null","null","null","","180","200","260","200","36000","52000","[1,2]"
"","canvas-keyboard-response","224","242971","0.0-6.0-2.36","5007","","","","","rectangles","null","null","","","catch","l","sw","sh","266","188","178","221","227","195","spektor","null","null","null","null","null","null","null","null","null","null","null","","180","200","260","200","36000","52000","[1,2]"
"","canvas-keyboard-response","225","243140","0.0-6.0-3.36","5007","","","","","clear_screen","null","null","","","catch","l","sw","sh","266","188","178","221","227","195","spektor","null","null","null","null","null","null","null","null","null","null","null","","180","200","260","200","36000","52000","[1,2]"
"","canvas-keyboard-response","226","243739","0.0-6.0-4.36","5007","","","","","make choice","581","1","","","catch","l","sw","sh","266","188","178","221","227","195","spektor","null","null","null","null","null","null","null","null","null","null","null","","180","200","260","200","36000","52000","[1,2]"
"","canvas-keyboard-response","227","243908","0.0-6.0-5.36","5007","","","","","clear_screen","null","null","","","catch","l","sw","sh","266","188","178","221","227","195","spektor","null","null","null","null","null","null","null","null","null","null","null","","180","200","260","200","36000","52000","[1,2]"
"","canvas-keyboard-response","228","244122","0.0-6.0-0.37","5007","","","","","pre trial waiting period","null","null","","","catch","l","sh","sw","256","171","212","151","194","169","trueblood","null","null","null","null","null","null","null","null","null","null","null","","180","200","260","200","36000","52000","[1,2]"
"","canvas-keyboard-response","229","244282","0.0-6.0-1.37","5007","","","","","clear_screen","null","null","","","catch","l","sh","sw","256","171","212","151","194","169","trueblood","null","null","null","null","null","null","null","null","null","null","null","","180","200","260","200","36000","52000","[1,2]"
"","canvas-keyboard-response","230","245628","0.0-6.0-2.37","5007","","","","","rectangles","null","null","","","catch","l","sh","sw","256","171","212","151","194","169","trueblood","null","null","null","null","null","null","null","null","null","null","null","","180","200","260","200","36000","52000","[1,2]"
"","canvas-keyboard-response","231","245795","0.0-6.0-3.37","5007","","","","","clear_screen","null","null","","","catch","l","sh","sw","256","171","212","151","194","169","trueblood","null","null","null","null","null","null","null","null","null","null","null","","180","200","260","200","36000","52000","[1,2]"
"","canvas-keyboard-response","232","246796","0.0-6.0-4.37","5007","","","","","make choice","980","1","","","catch","l","sh","sw","256","171","212","151","194","169","trueblood","null","null","null","null","null","null","null","null","null","null","null","","180","200","260","200","36000","52000","[1,2]"
"","canvas-keyboard-response","233","246966","0.0-6.0-5.37","5007","","","","","clear_screen","null","null","","","catch","l","sh","sw","256","171","212","151","194","169","trueblood","null","null","null","null","null","null","null","null","null","null","null","","180","200","260","200","36000","52000","[1,2]"
"","canvas-keyboard-response","234","247180","0.0-6.0-0.38","5007","","","","","pre trial waiting period","null","null","","","catch","sh","sw","l","168","147","185","226","162","269","spektor","null","null","null","null","null","null","null","null","null","null","null","","180","200","260","200","36000","52000","[1,3]"
"","canvas-keyboard-response","235","247337","0.0-6.0-1.38","5007","","","","","clear_screen","null","null","","","catch","sh","sw","l","168","147","185","226","162","269","spektor","null","null","null","null","null","null","null","null","null","null","null","","180","200","260","200","36000","52000","[1,3]"
"","canvas-keyboard-response","236","248683","0.0-6.0-2.38","5007","","","","","rectangles","null","null","","","catch","sh","sw","l","168","147","185","226","162","269","spektor","null","null","null","null","null","null","null","null","null","null","null","","180","200","260","200","36000","52000","[1,3]"
"","canvas-keyboard-response","237","248853","0.0-6.0-3.38","5007","","","","","clear_screen","null","null","","","catch","sh","sw","l","168","147","185","226","162","269","spektor","null","null","null","null","null","null","null","null","null","null","null","","180","200","260","200","36000","52000","[1,3]"
"","canvas-keyboard-response","238","249244","0.0-6.0-4.38","5007","","","","","make choice","370","3","","","catch","sh","sw","l","168","147","185","226","162","269","spektor","null","null","null","null","null","null","null","null","null","null","null","","180","200","260","200","36000","52000","[1,3]"
"","canvas-keyboard-response","239","249414","0.0-6.0-5.38","5007","","","","","clear_screen","null","null","","","catch","sh","sw","l","168","147","185","226","162","269","spektor","null","null","null","null","null","null","null","null","null","null","null","","180","200","260","200","36000","52000","[1,3]"
"","canvas-keyboard-response","240","249629","0.0-6.0-0.39","5007","","","","","pre trial waiting period","null","null","","","critical","c","t","d","240","164","164","240","154.6796","220.0396","trueblood","0.14","h","164","240","240","164","154.6796","220.0396","39360","39360","34035.6388","td","null","null","null","null","null","null","[2,3]"
"","canvas-keyboard-response","241","249787","0.0-6.0-1.39","5007","","","","","clear_screen","null","null","","","critical","c","t","d","240","164","164","240","154.6796","220.0396","trueblood","0.14","h","164","240","240","164","154.6796","220.0396","39360","39360","34035.6388","td","null","null","null","null","null","null","[2,3]"
"","canvas-keyboard-response","242","251135","0.0-6.0-2.39","5007","","","","","rectangles","null","null","","","critical","c","t","d","240","164","164","240","154.6796","220.0396","trueblood","0.14","h","164","240","240","164","154.6796","220.0396","39360","39360","34035.6388","td","null","null","null","null","null","null","[2,3]"
"","canvas-keyboard-response","243","251305","0.0-6.0-3.39","5007","","","","","clear_screen","null","null","","","critical","c","t","d","240","164","164","240","154.6796","220.0396","trueblood","0.14","h","164","240","240","164","154.6796","220.0396","39360","39360","34035.6388","td","null","null","null","null","null","null","[2,3]"
"","canvas-keyboard-response","244","252212","0.0-6.0-4.39","5007","","","","","make choice","886","2","","","critical","c","t","d","240","164","164","240","154.6796","220.0396","trueblood","0.14","h","164","240","240","164","154.6796","220.0396","39360","39360","34035.6388","td","null","null","null","null","null","null","[2,3]"
"","canvas-keyboard-response","245","252383","0.0-6.0-5.39","5007","","","","","clear_screen","null","null","","","critical","c","t","d","240","164","164","240","154.6796","220.0396","trueblood","0.14","h","164","240","240","164","154.6796","220.0396","39360","39360","34035.6388","td","null","null","null","null","null","null","[2,3]"
"","canvas-keyboard-response","246","252598","0.0-6.0-0.40","5007","","","","","pre trial waiting period","null","null","","","critical","d","c","t","158.0083","227.1683","240","164","164","240","trueblood","0.09","h","164","240","240","164","158.0083","227.1683","39360","39360","35894.4834","dc","null","null","null","null","null","null","[1,2]"
"","canvas-keyboard-response","247","252756","0.0-6.0-1.40","5007","","","","","clear_screen","null","null","","","critical","d","c","t","158.0083","227.1683","240","164","164","240","trueblood","0.09","h","164","240","240","164","158.0083","227.1683","39360","39360","35894.4834","dc","null","null","null","null","null","null","[1,2]"
"","canvas-keyboard-response","248","254102","0.0-6.0-2.40","5007","","","","","rectangles","null","null","","","critical","d","c","t","158.0083","227.1683","240","164","164","240","trueblood","0.09","h","164","240","240","164","158.0083","227.1683","39360","39360","35894.4834","dc","null","null","null","null","null","null","[1,2]"
"","canvas-keyboard-response","249","254273","0.0-6.0-3.40","5007","","","","","clear_screen","null","null","","","critical","d","c","t","158.0083","227.1683","240","164","164","240","trueblood","0.09","h","164","240","240","164","158.0083","227.1683","39360","39360","35894.4834","dc","null","null","null","null","null","null","[1,2]"
"","canvas-keyboard-response","250","256564","0.0-6.0-4.40","5007","","","","","make choice","2272","2","","","critical","d","c","t","158.0083","227.1683","240","164","164","240","trueblood","0.09","h","164","240","240","164","158.0083","227.1683","39360","39360","35894.4834","dc","null","null","null","null","null","null","[1,2]"
"","canvas-keyboard-response","251","256740","0.0-6.0-5.40","5007","","","","","clear_screen","null","null","","","critical","d","c","t","158.0083","227.1683","240","164","164","240","trueblood","0.09","h","164","240","240","164","158.0083","227.1683","39360","39360","35894.4834","dc","null","null","null","null","null","null","[1,2]"
"","canvas-keyboard-response","252","256956","0.0-6.0-0.41","5007","","","","","pre trial waiting period","null","null","","","critical","c","d","t","164","240","240","164","240","164","trueblood","0","w","240","164","164","240","240","164","39360","39360","39360","dc","null","null","null","null","null","null","[2,1]"
"","canvas-keyboard-response","253","257114","0.0-6.0-1.41","5007","","","","","clear_screen","null","null","","","critical","c","d","t","164","240","240","164","240","164","trueblood","0","w","240","164","164","240","240","164","39360","39360","39360","dc","null","null","null","null","null","null","[2,1]"
"","canvas-keyboard-response","254","258462","0.0-6.0-2.41","5007","","","","","rectangles","null","null","","","critical","c","d","t","164","240","240","164","240","164","trueblood","0","w","240","164","164","240","240","164","39360","39360","39360","dc","null","null","null","null","null","null","[2,1]"
"","canvas-keyboard-response","255","258633","0.0-6.0-3.41","5007","","","","","clear_screen","null","null","","","critical","c","d","t","164","240","240","164","240","164","trueblood","0","w","240","164","164","240","240","164","39360","39360","39360","dc","null","null","null","null","null","null","[2,1]"
"","canvas-keyboard-response","256","259684","0.0-6.0-4.41","5007","","","","","make choice","1030","2","","","critical","c","d","t","164","240","240","164","240","164","trueblood","0","w","240","164","164","240","240","164","39360","39360","39360","dc","null","null","null","null","null","null","[2,1]"
"","canvas-keyboard-response","257","259853","0.0-6.0-5.41","5007","","","","","clear_screen","null","null","","","critical","c","d","t","164","240","240","164","240","164","trueblood","0","w","240","164","164","240","240","164","39360","39360","39360","dc","null","null","null","null","null","null","[2,1]"
"","canvas-keyboard-response","258","260068","0.0-6.0-0.42","5007","","","","","pre trial waiting period","null","null","","","catch","l","sh","sw","212","246","166","202","166","208","trueblood","null","null","null","null","null","null","null","null","null","null","null","","180","200","260","200","36000","52000","[1,2]"
"","canvas-keyboard-response","259","260227","0.0-6.0-1.42","5007","","","","","clear_screen","null","null","","","catch","l","sh","sw","212","246","166","202","166","208","trueblood","null","null","null","null","null","null","null","null","null","null","null","","180","200","260","200","36000","52000","[1,2]"
"","canvas-keyboard-response","260","261574","0.0-6.0-2.42","5007","","","","","rectangles","null","null","","","catch","l","sh","sw","212","246","166","202","166","208","trueblood","null","null","null","null","null","null","null","null","null","null","null","","180","200","260","200","36000","52000","[1,2]"
"","canvas-keyboard-response","261","261744","0.0-6.0-3.42","5007","","","","","clear_screen","null","null","","","catch","l","sh","sw","212","246","166","202","166","208","trueblood","null","null","null","null","null","null","null","null","null","null","null","","180","200","260","200","36000","52000","[1,2]"
"","canvas-keyboard-response","262","262748","0.0-6.0-4.42","5007","","","","","make choice","982","1","","","catch","l","sh","sw","212","246","166","202","166","208","trueblood","null","null","null","null","null","null","null","null","null","null","null","","180","200","260","200","36000","52000","[1,2]"
"","canvas-keyboard-response","263","262917","0.0-6.0-5.42","5007","","","","","clear_screen","null","null","","","catch","l","sh","sw","212","246","166","202","166","208","trueblood","null","null","null","null","null","null","null","null","null","null","null","","180","200","260","200","36000","52000","[1,2]"
"","canvas-keyboard-response","264","263133","0.0-6.0-0.43","5007","","","","","pre trial waiting period","null","null","","","critical","d","c","t","237.1485","162.6685","164","240","240","164","trueblood","0.02","w","240","164","164","240","237.1485","162.6685","39360","39360","38576.5967","tc","null","null","null","null","null","null","[3,2]"
"","canvas-keyboard-response","265","263292","0.0-6.0-1.43","5007","","","","","clear_screen","null","null","","","critical","d","c","t","237.1485","162.6685","164","240","240","164","trueblood","0.02","w","240","164","164","240","237.1485","162.6685","39360","39360","38576.5967","tc","null","null","null","null","null","null","[3,2]"
"","canvas-keyboard-response","266","264638","0.0-6.0-2.43","5007","","","","","rectangles","null","null","","","critical","d","c","t","237.1485","162.6685","164","240","240","164","trueblood","0.02","w","240","164","164","240","237.1485","162.6685","39360","39360","38576.5967","tc","null","null","null","null","null","null","[3,2]"
"","canvas-keyboard-response","267","264808","0.0-6.0-3.43","5007","","","","","clear_screen","null","null","","","critical","d","c","t","237.1485","162.6685","164","240","240","164","trueblood","0.02","w","240","164","164","240","237.1485","162.6685","39360","39360","38576.5967","tc","null","null","null","null","null","null","[3,2]"
"","canvas-keyboard-response","268","266523","0.0-6.0-4.43","5007","","","","","make choice","1694","2","","","critical","d","c","t","237.1485","162.6685","164","240","240","164","trueblood","0.02","w","240","164","164","240","237.1485","162.6685","39360","39360","38576.5967","tc","null","null","null","null","null","null","[3,2]"
"","canvas-keyboard-response","269","266697","0.0-6.0-5.43","5007","","","","","clear_screen","null","null","","","critical","d","c","t","237.1485","162.6685","164","240","240","164","trueblood","0.02","w","240","164","164","240","237.1485","162.6685","39360","39360","38576.5967","tc","null","null","null","null","null","null","[3,2]"
"","canvas-keyboard-response","270","266915","0.0-6.0-0.44","5007","","","","","pre trial waiting period","null","null","","","critical","c","d","t","240","164","164","240","164","240","trueblood","0","h","164","240","240","164","164","240","39360","39360","39360","td","null","null","null","null","null","null","[3,2]"
"","canvas-keyboard-response","271","267073","0.0-6.0-1.44","5007","","","","","clear_screen","null","null","","","critical","c","d","t","240","164","164","240","164","240","trueblood","0","h","164","240","240","164","164","240","39360","39360","39360","td","null","null","null","null","null","null","[3,2]"
"","canvas-keyboard-response","272","268420","0.0-6.0-2.44","5007","","","","","rectangles","null","null","","","critical","c","d","t","240","164","164","240","164","240","trueblood","0","h","164","240","240","164","164","240","39360","39360","39360","td","null","null","null","null","null","null","[3,2]"
"","canvas-keyboard-response","273","268591","0.0-6.0-3.44","5007","","","","","clear_screen","null","null","","","critical","c","d","t","240","164","164","240","164","240","trueblood","0","h","164","240","240","164","164","240","39360","39360","39360","td","null","null","null","null","null","null","[3,2]"
"","canvas-keyboard-response","274","270285","0.0-6.0-4.44","5007","","","","","make choice","1672","2","","","critical","c","d","t","240","164","164","240","164","240","trueblood","0","h","164","240","240","164","164","240","39360","39360","39360","td","null","null","null","null","null","null","[3,2]"
"","canvas-keyboard-response","275","270471","0.0-6.0-5.44","5007","","","","","clear_screen","null","null","","","critical","c","d","t","240","164","164","240","164","240","trueblood","0","h","164","240","240","164","164","240","39360","39360","39360","td","null","null","null","null","null","null","[3,2]"
"","canvas-keyboard-response","276","270702","0.0-6.0-0.45","5007","","","","","pre trial waiting period","null","null","","","critical","t","c","d","240","164","164","240","220.0396","154.6796","trueblood","0.14","w","240","164","164","240","220.0396","154.6796","39360","39360","34035.6388","tc","null","null","null","null","null","null","[1,2]"
"","canvas-keyboard-response","277","270862","0.0-6.0-1.45","5007","","","","","clear_screen","null","null","","","critical","t","c","d","240","164","164","240","220.0396","154.6796","trueblood","0.14","w","240","164","164","240","220.0396","154.6796","39360","39360","34035.6388","tc","null","null","null","null","null","null","[1,2]"
"","canvas-keyboard-response","278","272211","0.0-6.0-2.45","5007","","","","","rectangles","null","null","","","critical","t","c","d","240","164","164","240","220.0396","154.6796","trueblood","0.14","w","240","164","164","240","220.0396","154.6796","39360","39360","34035.6388","tc","null","null","null","null","null","null","[1,2]"
"","canvas-keyboard-response","279","272383","0.0-6.0-3.45","5007","","","","","clear_screen","null","null","","","critical","t","c","d","240","164","164","240","220.0396","154.6796","trueblood","0.14","w","240","164","164","240","220.0396","154.6796","39360","39360","34035.6388","tc","null","null","null","null","null","null","[1,2]"
"","canvas-keyboard-response","280","273803","0.0-6.0-4.45","5007","","","","","make choice","1399","1","","","critical","t","c","d","240","164","164","240","220.0396","154.6796","trueblood","0.14","w","240","164","164","240","220.0396","154.6796","39360","39360","34035.6388","tc","null","null","null","null","null","null","[1,2]"
"","canvas-keyboard-response","281","273975","0.0-6.0-5.45","5007","","","","","clear_screen","null","null","","","critical","t","c","d","240","164","164","240","220.0396","154.6796","trueblood","0.14","w","240","164","164","240","220.0396","154.6796","39360","39360","34035.6388","tc","null","null","null","null","null","null","[1,2]"
"","canvas-keyboard-response","282","274193","0.0-6.0-0.46","5007","","","","","pre trial waiting period","null","null","","","critical","d","c","t","237.1485","162.6685","164","240","240","164","trueblood","0.02","w","240","164","164","240","237.1485","162.6685","39360","39360","38576.5967","td","null","null","null","null","null","null","[3,1]"
"","canvas-keyboard-response","283","274351","0.0-6.0-1.46","5007","","","","","clear_screen","null","null","","","critical","d","c","t","237.1485","162.6685","164","240","240","164","trueblood","0.02","w","240","164","164","240","237.1485","162.6685","39360","39360","38576.5967","td","null","null","null","null","null","null","[3,1]"
"","canvas-keyboard-response","284","275700","0.0-6.0-2.46","5007","","","","","rectangles","null","null","","","critical","d","c","t","237.1485","162.6685","164","240","240","164","trueblood","0.02","w","240","164","164","240","237.1485","162.6685","39360","39360","38576.5967","td","null","null","null","null","null","null","[3,1]"
"","canvas-keyboard-response","285","275872","0.0-6.0-3.46","5007","","","","","clear_screen","null","null","","","critical","d","c","t","237.1485","162.6685","164","240","240","164","trueblood","0.02","w","240","164","164","240","237.1485","162.6685","39360","39360","38576.5967","td","null","null","null","null","null","null","[3,1]"
"","canvas-keyboard-response","286","277139","0.0-6.0-4.46","5007","","","","","make choice","1247","1","","","critical","d","c","t","237.1485","162.6685","164","240","240","164","trueblood","0.02","w","240","164","164","240","237.1485","162.6685","39360","39360","38576.5967","td","null","null","null","null","null","null","[3,1]"
"","canvas-keyboard-response","287","277311","0.0-6.0-5.46","5007","","","","","clear_screen","null","null","","","critical","d","c","t","237.1485","162.6685","164","240","240","164","trueblood","0.02","w","240","164","164","240","237.1485","162.6685","39360","39360","38576.5967","td","null","null","null","null","null","null","[3,1]"
"","canvas-keyboard-response","288","277530","0.0-6.0-0.47","5007","","","","","pre trial waiting period","null","null","","","critical","c","d","t","240","164","154.6796","220.0396","164","240","trueblood","0.14","h","164","240","240","164","154.6796","220.0396","39360","39360","34035.6388","tc","null","null","null","null","null","null","[3,1]"
"","canvas-keyboard-response","289","277689","0.0-6.0-1.47","5007","","","","","clear_screen","null","null","","","critical","c","d","t","240","164","154.6796","220.0396","164","240","trueblood","0.14","h","164","240","240","164","154.6796","220.0396","39360","39360","34035.6388","tc","null","null","null","null","null","null","[3,1]"
"","canvas-keyboard-response","290","279038","0.0-6.0-2.47","5007","","","","","rectangles","null","null","","","critical","c","d","t","240","164","154.6796","220.0396","164","240","trueblood","0.14","h","164","240","240","164","154.6796","220.0396","39360","39360","34035.6388","tc","null","null","null","null","null","null","[3,1]"
"","canvas-keyboard-response","291","279210","0.0-6.0-3.47","5007","","","","","clear_screen","null","null","","","critical","c","d","t","240","164","154.6796","220.0396","164","240","trueblood","0.14","h","164","240","240","164","154.6796","220.0396","39360","39360","34035.6388","tc","null","null","null","null","null","null","[3,1]"
"","canvas-keyboard-response","292","280619","0.0-6.0-4.47","5007","","","","","make choice","1385","1","","","critical","c","d","t","240","164","154.6796","220.0396","164","240","trueblood","0.14","h","164","240","240","164","154.6796","220.0396","39360","39360","34035.6388","tc","null","null","null","null","null","null","[3,1]"
"","canvas-keyboard-response","293","280791","0.0-6.0-5.47","5007","","","","","clear_screen","null","null","","","critical","c","d","t","240","164","154.6796","220.0396","164","240","trueblood","0.14","h","164","240","240","164","154.6796","220.0396","39360","39360","34035.6388","tc","null","null","null","null","null","null","[3,1]"
"","canvas-keyboard-response","294","281009","0.0-6.0-0.48","5007","","","","","pre trial waiting period","null","null","","","catch","sw","sh","l","180","200","171","207","242","230","spektor","null","null","null","null","null","null","null","null","null","null","null","","180","200","260","200","36000","52000","[1,3]"
"","canvas-keyboard-response","295","281169","0.0-6.0-1.48","5007","","","","","clear_screen","null","null","","","catch","sw","sh","l","180","200","171","207","242","230","spektor","null","null","null","null","null","null","null","null","null","null","null","","180","200","260","200","36000","52000","[1,3]"
"","canvas-keyboard-response","296","282516","0.0-6.0-2.48","5007","","","","","rectangles","null","null","","","catch","sw","sh","l","180","200","171","207","242","230","spektor","null","null","null","null","null","null","null","null","null","null","null","","180","200","260","200","36000","52000","[1,3]"
"","canvas-keyboard-response","297","282688","0.0-6.0-3.48","5007","","","","","clear_screen","null","null","","","catch","sw","sh","l","180","200","171","207","242","230","spektor","null","null","null","null","null","null","null","null","null","null","null","","180","200","260","200","36000","52000","[1,3]"
"","canvas-keyboard-response","298","283291","0.0-6.0-4.48","5007","","","","","make choice","580","3","","","catch","sw","sh","l","180","200","171","207","242","230","spektor","null","null","null","null","null","null","null","null","null","null","null","","180","200","260","200","36000","52000","[1,3]"
"","canvas-keyboard-response","299","283463","0.0-6.0-5.48","5007","","","","","clear_screen","null","null","","","catch","sw","sh","l","180","200","171","207","242","230","spektor","null","null","null","null","null","null","null","null","null","null","null","","180","200","260","200","36000","52000","[1,3]"
"","canvas-keyboard-response","300","283682","0.0-6.0-0.49","5007","","","","","pre trial waiting period","null","null","","","critical","c","d","t","240","164","154.6796","220.0396","164","240","spektor","0.14","h","164","240","240","164","154.6796","220.0396","39360","39360","34035.6388","tc","null","null","null","null","null","null","[3,1]"
"","canvas-keyboard-response","301","283841","0.0-6.0-1.49","5007","","","","","clear_screen","null","null","","","critical","c","d","t","240","164","154.6796","220.0396","164","240","spektor","0.14","h","164","240","240","164","154.6796","220.0396","39360","39360","34035.6388","tc","null","null","null","null","null","null","[3,1]"
"","canvas-keyboard-response","302","285191","0.0-6.0-2.49","5007","","","","","rectangles","null","null","","","critical","c","d","t","240","164","154.6796","220.0396","164","240","spektor","0.14","h","164","240","240","164","154.6796","220.0396","39360","39360","34035.6388","tc","null","null","null","null","null","null","[3,1]"
"","canvas-keyboard-response","303","285361","0.0-6.0-3.49","5007","","","","","clear_screen","null","null","","","critical","c","d","t","240","164","154.6796","220.0396","164","240","spektor","0.14","h","164","240","240","164","154.6796","220.0396","39360","39360","34035.6388","tc","null","null","null","null","null","null","[3,1]"
"","canvas-keyboard-response","304","285979","0.0-6.0-4.49","5007","","","","","make choice","597","3","","","critical","c","d","t","240","164","154.6796","220.0396","164","240","spektor","0.14","h","164","240","240","164","154.6796","220.0396","39360","39360","34035.6388","tc","null","null","null","null","null","null","[3,1]"
"","canvas-keyboard-response","305","286150","0.0-6.0-5.49","5007","","","","","clear_screen","null","null","","","critical","c","d","t","240","164","154.6796","220.0396","164","240","spektor","0.14","h","164","240","240","164","154.6796","220.0396","39360","39360","34035.6388","tc","null","null","null","null","null","null","[3,1]"
"","canvas-keyboard-response","306","286367","0.0-6.0-0.50","5007","","","","","pre trial waiting period","null","null","","","critical","c","d","t","240","164","160.6713","232.8713","164","240","trueblood","0.05","h","164","240","240","164","160.6713","232.8713","39360","39360","37415.7294","td","null","null","null","null","null","null","[3,2]"
