success,trial_type,trial_index,time_elapsed,internal_node_id,sub_n,timeout,failed_images,failed_audio,failed_video,screen_id,rt,response,stimulus,view_history,trial,r1,r2,r3,w1,h1,w2,h2,w3,h3,display,tdd,tdo,tw,th,cw,ch,dw,dh,ta,ca,da,probe,csls,csss,clls,clss,sa,la,probe_rects
TRUE,fullscreen,0,4109,0.0-0.0,5009,,,,,,,,,,,,,,,,,,,,,,,,,,,,,,,,,,,,,,,
TRUE,preload,1,4126,0.0-1.0,5009,FALSE,[],[],[],img preload,,,,,,,,,,,,,,,,,,,,,,,,,,,,,,,,,,
,survey-html-form,2,9025,0.0-2.0,5009,,,,,enter-sub-number,4893,"{""response"":""01""}",,,,,,,,,,,,,,,,,,,,,,,,,,,,,,,,
,image-button-response,3,37567,0.0-3.0,5009,,,,,,28465,0,consent.png,,,,,,,,,,,,,,,,,,,,,,,,,,,,,,,
,html-button-response,4,44614,0.0-4.0,5009,,,,,intro mssg,7037,0,"<div style= ""font-size:25px;"" <p> <strong> Welcome! </strong><br> <p style=""color:#8B0000; font-size:25px;""><strong> Please do NOT exit full screen until you are done with the experiment. </strong> </p><p style=""font-size:25px;color:#8B0000;""> <strong> Your data will be lost <br> if you try to go back or refresh the page after the experiment starts. Feel free to click ""previous"" during the instructions, however.</strong> </p><br><p> <strong> Thanks in advance for your contribution to our research! </strong></p>",,,,,,,,,,,,,,,,,,,,,,,,,,,,,,,
,instructions,5,124823,0.0-5.0,5009,,,,,instructions,80201,,,"[{""page_index"":0,""viewing_time"":13033},{""page_index"":1,""viewing_time"":7880},{""page_index"":0,""viewing_time"":6431},{""page_index"":1,""viewing_time"":2025},{""page_index"":2,""viewing_time"":3792},{""page_index"":3,""viewing_time"":30192},{""page_index"":4,""viewing_time"":7368},{""page_index"":5,""viewing_time"":2847},{""page_index"":6,""viewing_time"":3592},{""page_index"":7,""viewing_time"":3040}]",,,,,,,,,,,,,,,,,,,,,,,,,,,,,,
,canvas-keyboard-response,6,125030,0.0-6.0-0.0,5009,,,,,pre trial waiting period,null,null,,,critical,t,d,c,240,164,232.8713,160.6713,164,240,spektor,0.05,w,240,164,164,240,232.8713,160.6713,39360,39360,37415.7294,tc,null,null,null,null,null,null,"[1,3]"
,canvas-keyboard-response,7,125197,0.0-6.0-1.0,5009,,,,,clear_screen,null,null,,,critical,t,d,c,240,164,232.8713,160.6713,164,240,spektor,0.05,w,240,164,164,240,232.8713,160.6713,39360,39360,37415.7294,tc,null,null,null,null,null,null,"[1,3]"
,canvas-keyboard-response,8,126540,0.0-6.0-2.0,5009,,,,,rectangles,null,null,,,critical,t,d,c,240,164,232.8713,160.6713,164,240,spektor,0.05,w,240,164,164,240,232.8713,160.6713,39360,39360,37415.7294,tc,null,null,null,null,null,null,"[1,3]"
,canvas-keyboard-response,9,126704,0.0-6.0-3.0,5009,,,,,clear_screen,null,null,,,critical,t,d,c,240,164,232.8713,160.6713,164,240,spektor,0.05,w,240,164,164,240,232.8713,160.6713,39360,39360,37415.7294,tc,null,null,null,null,null,null,"[1,3]"
,canvas-keyboard-response,10,129498,0.0-6.0-4.0,5009,,,,,make choice,2780,3,,,critical,t,d,c,240,164,232.8713,160.6713,164,240,spektor,0.05,w,240,164,164,240,232.8713,160.6713,39360,39360,37415.7294,tc,null,null,null,null,null,null,"[1,3]"
,canvas-keyboard-response,11,129658,0.0-6.0-5.0,5009,,,,,clear_screen,null,null,,,critical,t,d,c,240,164,232.8713,160.6713,164,240,spektor,0.05,w,240,164,164,240,232.8713,160.6713,39360,39360,37415.7294,tc,null,null,null,null,null,null,"[1,3]"
,canvas-keyboard-response,12,129861,0.0-6.0-0.1,5009,,,,,pre trial waiting period,null,null,,,critical,d,t,c,154.6796,220.0396,164,240,240,164,spektor,0.14,h,164,240,240,164,154.6796,220.0396,39360,39360,34035.6388,td,null,null,null,null,null,null,"[2,1]"
,canvas-keyboard-response,13,130023,0.0-6.0-1.1,5009,,,,,clear_screen,null,null,,,critical,d,t,c,154.6796,220.0396,164,240,240,164,spektor,0.14,h,164,240,240,164,154.6796,220.0396,39360,39360,34035.6388,td,null,null,null,null,null,null,"[2,1]"
,canvas-keyboard-response,14,131360,0.0-6.0-2.1,5009,,,,,rectangles,null,null,,,critical,d,t,c,154.6796,220.0396,164,240,240,164,spektor,0.14,h,164,240,240,164,154.6796,220.0396,39360,39360,34035.6388,td,null,null,null,null,null,null,"[2,1]"
,canvas-keyboard-response,15,131524,0.0-6.0-3.1,5009,,,,,clear_screen,null,null,,,critical,d,t,c,154.6796,220.0396,164,240,240,164,spektor,0.14,h,164,240,240,164,154.6796,220.0396,39360,39360,34035.6388,td,null,null,null,null,null,null,"[2,1]"
,canvas-keyboard-response,16,132817,0.0-6.0-4.1,5009,,,,,make choice,1282,2,,,critical,d,t,c,154.6796,220.0396,164,240,240,164,spektor,0.14,h,164,240,240,164,154.6796,220.0396,39360,39360,34035.6388,td,null,null,null,null,null,null,"[2,1]"
,canvas-keyboard-response,17,132978,0.0-6.0-5.1,5009,,,,,clear_screen,null,null,,,critical,d,t,c,154.6796,220.0396,164,240,240,164,spektor,0.14,h,164,240,240,164,154.6796,220.0396,39360,39360,34035.6388,td,null,null,null,null,null,null,"[2,1]"
,canvas-keyboard-response,18,133180,0.0-6.0-0.2,5009,,,,,pre trial waiting period,null,null,,,critical,t,d,c,164,240,160.6713,232.8713,240,164,trueblood,0.05,h,164,240,240,164,160.6713,232.8713,39360,39360,37415.7294,tc,null,null,null,null,null,null,"[1,3]"
,canvas-keyboard-response,19,133340,0.0-6.0-1.2,5009,,,,,clear_screen,null,null,,,critical,t,d,c,164,240,160.6713,232.8713,240,164,trueblood,0.05,h,164,240,240,164,160.6713,232.8713,39360,39360,37415.7294,tc,null,null,null,null,null,null,"[1,3]"
,canvas-keyboard-response,20,134680,0.0-6.0-2.2,5009,,,,,rectangles,null,null,,,critical,t,d,c,164,240,160.6713,232.8713,240,164,trueblood,0.05,h,164,240,240,164,160.6713,232.8713,39360,39360,37415.7294,tc,null,null,null,null,null,null,"[1,3]"
,canvas-keyboard-response,21,134842,0.0-6.0-3.2,5009,,,,,clear_screen,null,null,,,critical,t,d,c,164,240,160.6713,232.8713,240,164,trueblood,0.05,h,164,240,240,164,160.6713,232.8713,39360,39360,37415.7294,tc,null,null,null,null,null,null,"[1,3]"
,canvas-keyboard-response,22,135721,0.0-6.0-4.2,5009,,,,,make choice,867,3,,,critical,t,d,c,164,240,160.6713,232.8713,240,164,trueblood,0.05,h,164,240,240,164,160.6713,232.8713,39360,39360,37415.7294,tc,null,null,null,null,null,null,"[1,3]"
,canvas-keyboard-response,23,135882,0.0-6.0-5.2,5009,,,,,clear_screen,null,null,,,critical,t,d,c,164,240,160.6713,232.8713,240,164,trueblood,0.05,h,164,240,240,164,160.6713,232.8713,39360,39360,37415.7294,tc,null,null,null,null,null,null,"[1,3]"
,canvas-keyboard-response,24,136086,0.0-6.0-0.3,5009,,,,,pre trial waiting period,null,null,,,catch,sh,l,sw,187,161,264,235,208,213,spektor,null,null,null,null,null,null,null,null,null,null,null,,180,200,260,200,36000,52000,"[2,3]"
,canvas-keyboard-response,25,136247,0.0-6.0-1.3,5009,,,,,clear_screen,null,null,,,catch,sh,l,sw,187,161,264,235,208,213,spektor,null,null,null,null,null,null,null,null,null,null,null,,180,200,260,200,36000,52000,"[2,3]"
,canvas-keyboard-response,26,137585,0.0-6.0-2.3,5009,,,,,rectangles,null,null,,,catch,sh,l,sw,187,161,264,235,208,213,spektor,null,null,null,null,null,null,null,null,null,null,null,,180,200,260,200,36000,52000,"[2,3]"
,canvas-keyboard-response,27,137747,0.0-6.0-3.3,5009,,,,,clear_screen,null,null,,,catch,sh,l,sw,187,161,264,235,208,213,spektor,null,null,null,null,null,null,null,null,null,null,null,,180,200,260,200,36000,52000,"[2,3]"
,canvas-keyboard-response,28,139393,0.0-6.0-4.3,5009,,,,,make choice,1637,2,,,catch,sh,l,sw,187,161,264,235,208,213,spektor,null,null,null,null,null,null,null,null,null,null,null,,180,200,260,200,36000,52000,"[2,3]"
,canvas-keyboard-response,29,139554,0.0-6.0-5.3,5009,,,,,clear_screen,null,null,,,catch,sh,l,sw,187,161,264,235,208,213,spektor,null,null,null,null,null,null,null,null,null,null,null,,180,200,260,200,36000,52000,"[2,3]"
,canvas-keyboard-response,30,139760,0.0-6.0-0.4,5009,,,,,pre trial waiting period,null,null,,,catch,sh,sw,l,191,192,173,217,269,189,spektor,null,null,null,null,null,null,null,null,null,null,null,,180,200,260,200,36000,52000,"[1,3]"
,canvas-keyboard-response,31,139919,0.0-6.0-1.4,5009,,,,,clear_screen,null,null,,,catch,sh,sw,l,191,192,173,217,269,189,spektor,null,null,null,null,null,null,null,null,null,null,null,,180,200,260,200,36000,52000,"[1,3]"
,canvas-keyboard-response,32,141255,0.0-6.0-2.4,5009,,,,,rectangles,null,null,,,catch,sh,sw,l,191,192,173,217,269,189,spektor,null,null,null,null,null,null,null,null,null,null,null,,180,200,260,200,36000,52000,"[1,3]"
,canvas-keyboard-response,33,141416,0.0-6.0-3.4,5009,,,,,clear_screen,null,null,,,catch,sh,sw,l,191,192,173,217,269,189,spektor,null,null,null,null,null,null,null,null,null,null,null,,180,200,260,200,36000,52000,"[1,3]"
,canvas-keyboard-response,34,143370,0.0-6.0-4.4,5009,,,,,make choice,1940,3,,,catch,sh,sw,l,191,192,173,217,269,189,spektor,null,null,null,null,null,null,null,null,null,null,null,,180,200,260,200,36000,52000,"[1,3]"
,canvas-keyboard-response,35,143529,0.0-6.0-5.4,5009,,,,,clear_screen,null,null,,,catch,sh,sw,l,191,192,173,217,269,189,spektor,null,null,null,null,null,null,null,null,null,null,null,,180,200,260,200,36000,52000,"[1,3]"
,canvas-keyboard-response,36,143735,0.0-6.0-0.5,5009,,,,,pre trial waiting period,null,null,,,critical,t,c,d,164,240,240,164,162.6685,237.1485,trueblood,0.02,h,164,240,240,164,162.6685,237.1485,39360,39360,38576.5967,tc,null,null,null,null,null,null,"[1,2]"
,canvas-keyboard-response,37,143895,0.0-6.0-1.5,5009,,,,,clear_screen,null,null,,,critical,t,c,d,164,240,240,164,162.6685,237.1485,trueblood,0.02,h,164,240,240,164,162.6685,237.1485,39360,39360,38576.5967,tc,null,null,null,null,null,null,"[1,2]"
,canvas-keyboard-response,38,145234,0.0-6.0-2.5,5009,,,,,rectangles,null,null,,,critical,t,c,d,164,240,240,164,162.6685,237.1485,trueblood,0.02,h,164,240,240,164,162.6685,237.1485,39360,39360,38576.5967,tc,null,null,null,null,null,null,"[1,2]"
,canvas-keyboard-response,39,145397,0.0-6.0-3.5,5009,,,,,clear_screen,null,null,,,critical,t,c,d,164,240,240,164,162.6685,237.1485,trueblood,0.02,h,164,240,240,164,162.6685,237.1485,39360,39360,38576.5967,tc,null,null,null,null,null,null,"[1,2]"
,canvas-keyboard-response,40,146785,0.0-6.0-4.5,5009,,,,,make choice,1377,2,,,critical,t,c,d,164,240,240,164,162.6685,237.1485,trueblood,0.02,h,164,240,240,164,162.6685,237.1485,39360,39360,38576.5967,tc,null,null,null,null,null,null,"[1,2]"
,canvas-keyboard-response,41,146947,0.0-6.0-5.5,5009,,,,,clear_screen,null,null,,,critical,t,c,d,164,240,240,164,162.6685,237.1485,trueblood,0.02,h,164,240,240,164,162.6685,237.1485,39360,39360,38576.5967,tc,null,null,null,null,null,null,"[1,2]"
,canvas-keyboard-response,42,147152,0.0-6.0-0.6,5009,,,,,pre trial waiting period,null,null,,,critical,c,t,d,240,164,164,240,154.6796,220.0396,spektor,0.14,h,164,240,240,164,154.6796,220.0396,39360,39360,34035.6388,tc,null,null,null,null,null,null,"[2,1]"
,canvas-keyboard-response,43,147313,0.0-6.0-1.6,5009,,,,,clear_screen,null,null,,,critical,c,t,d,240,164,164,240,154.6796,220.0396,spektor,0.14,h,164,240,240,164,154.6796,220.0396,39360,39360,34035.6388,tc,null,null,null,null,null,null,"[2,1]"
,canvas-keyboard-response,44,148653,0.0-6.0-2.6,5009,,,,,rectangles,null,null,,,critical,c,t,d,240,164,164,240,154.6796,220.0396,spektor,0.14,h,164,240,240,164,154.6796,220.0396,39360,39360,34035.6388,tc,null,null,null,null,null,null,"[2,1]"
,canvas-keyboard-response,45,148817,0.0-6.0-3.6,5009,,,,,clear_screen,null,null,,,critical,c,t,d,240,164,164,240,154.6796,220.0396,spektor,0.14,h,164,240,240,164,154.6796,220.0396,39360,39360,34035.6388,tc,null,null,null,null,null,null,"[2,1]"
,canvas-keyboard-response,46,151313,0.0-6.0-4.6,5009,,,,,make choice,2482,2,,,critical,c,t,d,240,164,164,240,154.6796,220.0396,spektor,0.14,h,164,240,240,164,154.6796,220.0396,39360,39360,34035.6388,tc,null,null,null,null,null,null,"[2,1]"
,canvas-keyboard-response,47,151474,0.0-6.0-5.6,5009,,,,,clear_screen,null,null,,,critical,c,t,d,240,164,164,240,154.6796,220.0396,spektor,0.14,h,164,240,240,164,154.6796,220.0396,39360,39360,34035.6388,tc,null,null,null,null,null,null,"[2,1]"
,canvas-keyboard-response,48,151680,0.0-6.0-0.7,5009,,,,,pre trial waiting period,null,null,,,critical,d,c,t,162.6685,237.1485,240,164,164,240,trueblood,0.02,h,164,240,240,164,162.6685,237.1485,39360,39360,38576.5967,dc,null,null,null,null,null,null,"[1,2]"
,canvas-keyboard-response,49,151843,0.0-6.0-1.7,5009,,,,,clear_screen,null,null,,,critical,d,c,t,162.6685,237.1485,240,164,164,240,trueblood,0.02,h,164,240,240,164,162.6685,237.1485,39360,39360,38576.5967,dc,null,null,null,null,null,null,"[1,2]"
,canvas-keyboard-response,50,153184,0.0-6.0-2.7,5009,,,,,rectangles,null,null,,,critical,d,c,t,162.6685,237.1485,240,164,164,240,trueblood,0.02,h,164,240,240,164,162.6685,237.1485,39360,39360,38576.5967,dc,null,null,null,null,null,null,"[1,2]"
,canvas-keyboard-response,51,153349,0.0-6.0-3.7,5009,,,,,clear_screen,null,null,,,critical,d,c,t,162.6685,237.1485,240,164,164,240,trueblood,0.02,h,164,240,240,164,162.6685,237.1485,39360,39360,38576.5967,dc,null,null,null,null,null,null,"[1,2]"
,canvas-keyboard-response,52,155033,0.0-6.0-4.7,5009,,,,,make choice,1673,2,,,critical,d,c,t,162.6685,237.1485,240,164,164,240,trueblood,0.02,h,164,240,240,164,162.6685,237.1485,39360,39360,38576.5967,dc,null,null,null,null,null,null,"[1,2]"
,canvas-keyboard-response,53,155197,0.0-6.0-5.7,5009,,,,,clear_screen,null,null,,,critical,d,c,t,162.6685,237.1485,240,164,164,240,trueblood,0.02,h,164,240,240,164,162.6685,237.1485,39360,39360,38576.5967,dc,null,null,null,null,null,null,"[1,2]"
,canvas-keyboard-response,54,155403,0.0-6.0-0.8,5009,,,,,pre trial waiting period,null,null,,,critical,c,t,d,164,240,240,164,237.1485,162.6685,trueblood,0.02,w,240,164,164,240,237.1485,162.6685,39360,39360,38576.5967,td,null,null,null,null,null,null,"[2,3]"
,canvas-keyboard-response,55,155567,0.0-6.0-1.8,5009,,,,,clear_screen,null,null,,,critical,c,t,d,164,240,240,164,237.1485,162.6685,trueblood,0.02,w,240,164,164,240,237.1485,162.6685,39360,39360,38576.5967,td,null,null,null,null,null,null,"[2,3]"
,canvas-keyboard-response,56,156906,0.0-6.0-2.8,5009,,,,,rectangles,null,null,,,critical,c,t,d,164,240,240,164,237.1485,162.6685,trueblood,0.02,w,240,164,164,240,237.1485,162.6685,39360,39360,38576.5967,td,null,null,null,null,null,null,"[2,3]"
,canvas-keyboard-response,57,157068,0.0-6.0-3.8,5009,,,,,clear_screen,null,null,,,critical,c,t,d,164,240,240,164,237.1485,162.6685,trueblood,0.02,w,240,164,164,240,237.1485,162.6685,39360,39360,38576.5967,td,null,null,null,null,null,null,"[2,3]"
,canvas-keyboard-response,58,159313,0.0-6.0-4.8,5009,,,,,make choice,2234,3,,,critical,c,t,d,164,240,240,164,237.1485,162.6685,trueblood,0.02,w,240,164,164,240,237.1485,162.6685,39360,39360,38576.5967,td,null,null,null,null,null,null,"[2,3]"
,canvas-keyboard-response,59,159475,0.0-6.0-5.8,5009,,,,,clear_screen,null,null,,,critical,c,t,d,164,240,240,164,237.1485,162.6685,trueblood,0.02,w,240,164,164,240,237.1485,162.6685,39360,39360,38576.5967,td,null,null,null,null,null,null,"[2,3]"
,canvas-keyboard-response,60,159684,0.0-6.0-0.9,5009,,,,,pre trial waiting period,null,null,,,critical,t,d,c,240,164,237.1485,162.6685,164,240,trueblood,0.02,w,240,164,164,240,237.1485,162.6685,39360,39360,38576.5967,tc,null,null,null,null,null,null,"[1,3]"
,canvas-keyboard-response,61,159844,0.0-6.0-1.9,5009,,,,,clear_screen,null,null,,,critical,t,d,c,240,164,237.1485,162.6685,164,240,trueblood,0.02,w,240,164,164,240,237.1485,162.6685,39360,39360,38576.5967,tc,null,null,null,null,null,null,"[1,3]"
,canvas-keyboard-response,62,161183,0.0-6.0-2.9,5009,,,,,rectangles,null,null,,,critical,t,d,c,240,164,237.1485,162.6685,164,240,trueblood,0.02,w,240,164,164,240,237.1485,162.6685,39360,39360,38576.5967,tc,null,null,null,null,null,null,"[1,3]"
,canvas-keyboard-response,63,161351,0.0-6.0-3.9,5009,,,,,clear_screen,null,null,,,critical,t,d,c,240,164,237.1485,162.6685,164,240,trueblood,0.02,w,240,164,164,240,237.1485,162.6685,39360,39360,38576.5967,tc,null,null,null,null,null,null,"[1,3]"
,canvas-keyboard-response,64,163657,0.0-6.0-4.9,5009,,,,,make choice,2292,1,,,critical,t,d,c,240,164,237.1485,162.6685,164,240,trueblood,0.02,w,240,164,164,240,237.1485,162.6685,39360,39360,38576.5967,tc,null,null,null,null,null,null,"[1,3]"
,canvas-keyboard-response,65,163821,0.0-6.0-5.9,5009,,,,,clear_screen,null,null,,,critical,t,d,c,240,164,237.1485,162.6685,164,240,trueblood,0.02,w,240,164,164,240,237.1485,162.6685,39360,39360,38576.5967,tc,null,null,null,null,null,null,"[1,3]"
,canvas-keyboard-response,66,164029,0.0-6.0-0.10,5009,,,,,pre trial waiting period,null,null,,,critical,d,t,c,162.6685,237.1485,164,240,240,164,spektor,0.02,h,164,240,240,164,162.6685,237.1485,39360,39360,38576.5967,td,null,null,null,null,null,null,"[2,1]"
,canvas-keyboard-response,67,164191,0.0-6.0-1.10,5009,,,,,clear_screen,null,null,,,critical,d,t,c,162.6685,237.1485,164,240,240,164,spektor,0.02,h,164,240,240,164,162.6685,237.1485,39360,39360,38576.5967,td,null,null,null,null,null,null,"[2,1]"
,canvas-keyboard-response,68,165533,0.0-6.0-2.10,5009,,,,,rectangles,null,null,,,critical,d,t,c,162.6685,237.1485,164,240,240,164,spektor,0.02,h,164,240,240,164,162.6685,237.1485,39360,39360,38576.5967,td,null,null,null,null,null,null,"[2,1]"
,canvas-keyboard-response,69,165700,0.0-6.0-3.10,5009,,,,,clear_screen,null,null,,,critical,d,t,c,162.6685,237.1485,164,240,240,164,spektor,0.02,h,164,240,240,164,162.6685,237.1485,39360,39360,38576.5967,td,null,null,null,null,null,null,"[2,1]"
,canvas-keyboard-response,70,168321,0.0-6.0-4.10,5009,,,,,make choice,2610,2,,,critical,d,t,c,162.6685,237.1485,164,240,240,164,spektor,0.02,h,164,240,240,164,162.6685,237.1485,39360,39360,38576.5967,td,null,null,null,null,null,null,"[2,1]"
,canvas-keyboard-response,71,168486,0.0-6.0-5.10,5009,,,,,clear_screen,null,null,,,critical,d,t,c,162.6685,237.1485,164,240,240,164,spektor,0.02,h,164,240,240,164,162.6685,237.1485,39360,39360,38576.5967,td,null,null,null,null,null,null,"[2,1]"
,canvas-keyboard-response,72,168693,0.0-6.0-0.11,5009,,,,,pre trial waiting period,null,null,,,critical,d,c,t,154.6796,220.0396,240,164,164,240,trueblood,0.14,h,164,240,240,164,154.6796,220.0396,39360,39360,34035.6388,tc,null,null,null,null,null,null,"[3,2]"
,canvas-keyboard-response,73,168857,0.0-6.0-1.11,5009,,,,,clear_screen,null,null,,,critical,d,c,t,154.6796,220.0396,240,164,164,240,trueblood,0.14,h,164,240,240,164,154.6796,220.0396,39360,39360,34035.6388,tc,null,null,null,null,null,null,"[3,2]"
,canvas-keyboard-response,74,170197,0.0-6.0-2.11,5009,,,,,rectangles,null,null,,,critical,d,c,t,154.6796,220.0396,240,164,164,240,trueblood,0.14,h,164,240,240,164,154.6796,220.0396,39360,39360,34035.6388,tc,null,null,null,null,null,null,"[3,2]"
,canvas-keyboard-response,75,170361,0.0-6.0-3.11,5009,,,,,clear_screen,null,null,,,critical,d,c,t,154.6796,220.0396,240,164,164,240,trueblood,0.14,h,164,240,240,164,154.6796,220.0396,39360,39360,34035.6388,tc,null,null,null,null,null,null,"[3,2]"
,canvas-keyboard-response,76,171793,0.0-6.0-4.11,5009,,,,,make choice,1414,2,,,critical,d,c,t,154.6796,220.0396,240,164,164,240,trueblood,0.14,h,164,240,240,164,154.6796,220.0396,39360,39360,34035.6388,tc,null,null,null,null,null,null,"[3,2]"
,canvas-keyboard-response,77,171955,0.0-6.0-5.11,5009,,,,,clear_screen,null,null,,,critical,d,c,t,154.6796,220.0396,240,164,164,240,trueblood,0.14,h,164,240,240,164,154.6796,220.0396,39360,39360,34035.6388,tc,null,null,null,null,null,null,"[3,2]"
,canvas-keyboard-response,78,172164,0.0-6.0-0.12,5009,,,,,pre trial waiting period,null,null,,,catch,sh,l,sw,233,172,194,286,170,210,trueblood,null,null,null,null,null,null,null,null,null,null,null,,180,200,260,200,36000,52000,"[2,3]"
,canvas-keyboard-response,79,172325,0.0-6.0-1.12,5009,,,,,clear_screen,null,null,,,catch,sh,l,sw,233,172,194,286,170,210,trueblood,null,null,null,null,null,null,null,null,null,null,null,,180,200,260,200,36000,52000,"[2,3]"
,canvas-keyboard-response,80,173663,0.0-6.0-2.12,5009,,,,,rectangles,null,null,,,catch,sh,l,sw,233,172,194,286,170,210,trueblood,null,null,null,null,null,null,null,null,null,null,null,,180,200,260,200,36000,52000,"[2,3]"
,canvas-keyboard-response,81,173829,0.0-6.0-3.12,5009,,,,,clear_screen,null,null,,,catch,sh,l,sw,233,172,194,286,170,210,trueblood,null,null,null,null,null,null,null,null,null,null,null,,180,200,260,200,36000,52000,"[2,3]"
,canvas-keyboard-response,82,175240,0.0-6.0-4.12,5009,,,,,make choice,1398,2,,,catch,sh,l,sw,233,172,194,286,170,210,trueblood,null,null,null,null,null,null,null,null,null,null,null,,180,200,260,200,36000,52000,"[2,3]"
,canvas-keyboard-response,83,175403,0.0-6.0-5.12,5009,,,,,clear_screen,null,null,,,catch,sh,l,sw,233,172,194,286,170,210,trueblood,null,null,null,null,null,null,null,null,null,null,null,,180,200,260,200,36000,52000,"[2,3]"
,canvas-keyboard-response,84,175607,0.0-6.0-0.13,5009,,,,,pre trial waiting period,null,null,,,critical,c,d,t,164,240,227.1683,158.0083,240,164,trueblood,0.09,w,240,164,164,240,227.1683,158.0083,39360,39360,35894.4834,tc,null,null,null,null,null,null,"[3,1]"
,canvas-keyboard-response,85,175768,0.0-6.0-1.13,5009,,,,,clear_screen,null,null,,,critical,c,d,t,164,240,227.1683,158.0083,240,164,trueblood,0.09,w,240,164,164,240,227.1683,158.0083,39360,39360,35894.4834,tc,null,null,null,null,null,null,"[3,1]"
,canvas-keyboard-response,86,177107,0.0-6.0-2.13,5009,,,,,rectangles,null,null,,,critical,c,d,t,164,240,227.1683,158.0083,240,164,trueblood,0.09,w,240,164,164,240,227.1683,158.0083,39360,39360,35894.4834,tc,null,null,null,null,null,null,"[3,1]"
,canvas-keyboard-response,87,177274,0.0-6.0-3.13,5009,,,,,clear_screen,null,null,,,critical,c,d,t,164,240,227.1683,158.0083,240,164,trueblood,0.09,w,240,164,164,240,227.1683,158.0083,39360,39360,35894.4834,tc,null,null,null,null,null,null,"[3,1]"
,canvas-keyboard-response,88,178745,0.0-6.0-4.13,5009,,,,,make choice,1459,3,,,critical,c,d,t,164,240,227.1683,158.0083,240,164,trueblood,0.09,w,240,164,164,240,227.1683,158.0083,39360,39360,35894.4834,tc,null,null,null,null,null,null,"[3,1]"
,canvas-keyboard-response,89,178907,0.0-6.0-5.13,5009,,,,,clear_screen,null,null,,,critical,c,d,t,164,240,227.1683,158.0083,240,164,trueblood,0.09,w,240,164,164,240,227.1683,158.0083,39360,39360,35894.4834,tc,null,null,null,null,null,null,"[3,1]"
,canvas-keyboard-response,90,179118,0.0-6.0-0.14,5009,,,,,pre trial waiting period,null,null,,,catch,sw,l,sh,180,200,238,211,210,152,trueblood,null,null,null,null,null,null,null,null,null,null,null,,180,200,260,200,36000,52000,"[1,2]"
,canvas-keyboard-response,91,179279,0.0-6.0-1.14,5009,,,,,clear_screen,null,null,,,catch,sw,l,sh,180,200,238,211,210,152,trueblood,null,null,null,null,null,null,null,null,null,null,null,,180,200,260,200,36000,52000,"[1,2]"
,canvas-keyboard-response,92,180619,0.0-6.0-2.14,5009,,,,,rectangles,null,null,,,catch,sw,l,sh,180,200,238,211,210,152,trueblood,null,null,null,null,null,null,null,null,null,null,null,,180,200,260,200,36000,52000,"[1,2]"
,canvas-keyboard-response,93,180783,0.0-6.0-3.14,5009,,,,,clear_screen,null,null,,,catch,sw,l,sh,180,200,238,211,210,152,trueblood,null,null,null,null,null,null,null,null,null,null,null,,180,200,260,200,36000,52000,"[1,2]"
,canvas-keyboard-response,94,182281,0.0-6.0-4.14,5009,,,,,make choice,1486,2,,,catch,sw,l,sh,180,200,238,211,210,152,trueblood,null,null,null,null,null,null,null,null,null,null,null,,180,200,260,200,36000,52000,"[1,2]"
,canvas-keyboard-response,95,182442,0.0-6.0-5.14,5009,,,,,clear_screen,null,null,,,catch,sw,l,sh,180,200,238,211,210,152,trueblood,null,null,null,null,null,null,null,null,null,null,null,,180,200,260,200,36000,52000,"[1,2]"
,canvas-keyboard-response,96,182651,0.0-6.0-0.15,5009,,,,,pre trial waiting period,null,null,,,catch,sh,sw,l,179,186,194,214,200,226,trueblood,null,null,null,null,null,null,null,null,null,null,null,,180,200,260,200,36000,52000,"[1,3]"
,canvas-keyboard-response,97,182807,0.0-6.0-1.15,5009,,,,,clear_screen,null,null,,,catch,sh,sw,l,179,186,194,214,200,226,trueblood,null,null,null,null,null,null,null,null,null,null,null,,180,200,260,200,36000,52000,"[1,3]"
,canvas-keyboard-response,98,184147,0.0-6.0-2.15,5009,,,,,rectangles,null,null,,,catch,sh,sw,l,179,186,194,214,200,226,trueblood,null,null,null,null,null,null,null,null,null,null,null,,180,200,260,200,36000,52000,"[1,3]"
,canvas-keyboard-response,99,184311,0.0-6.0-3.15,5009,,,,,clear_screen,null,null,,,catch,sh,sw,l,179,186,194,214,200,226,trueblood,null,null,null,null,null,null,null,null,null,null,null,,180,200,260,200,36000,52000,"[1,3]"
,canvas-keyboard-response,100,185944,0.0-6.0-4.15,5009,,,,,make choice,1620,3,,,catch,sh,sw,l,179,186,194,214,200,226,trueblood,null,null,null,null,null,null,null,null,null,null,null,,180,200,260,200,36000,52000,"[1,3]"
,canvas-keyboard-response,101,186105,0.0-6.0-5.15,5009,,,,,clear_screen,null,null,,,catch,sh,sw,l,179,186,194,214,200,226,trueblood,null,null,null,null,null,null,null,null,null,null,null,,180,200,260,200,36000,52000,"[1,3]"
,canvas-keyboard-response,102,186318,0.0-6.0-0.16,5009,,,,,pre trial waiting period,null,null,,,critical,t,c,d,164,240,240,164,160.6713,232.8713,spektor,0.05,h,164,240,240,164,160.6713,232.8713,39360,39360,37415.7294,td,null,null,null,null,null,null,"[1,3]"
,canvas-keyboard-response,103,186480,0.0-6.0-1.16,5009,,,,,clear_screen,null,null,,,critical,t,c,d,164,240,240,164,160.6713,232.8713,spektor,0.05,h,164,240,240,164,160.6713,232.8713,39360,39360,37415.7294,td,null,null,null,null,null,null,"[1,3]"
,canvas-keyboard-response,104,187822,0.0-6.0-2.16,5009,,,,,rectangles,null,null,,,critical,t,c,d,164,240,240,164,160.6713,232.8713,spektor,0.05,h,164,240,240,164,160.6713,232.8713,39360,39360,37415.7294,td,null,null,null,null,null,null,"[1,3]"
,canvas-keyboard-response,105,187989,0.0-6.0-3.16,5009,,,,,clear_screen,null,null,,,critical,t,c,d,164,240,240,164,160.6713,232.8713,spektor,0.05,h,164,240,240,164,160.6713,232.8713,39360,39360,37415.7294,td,null,null,null,null,null,null,"[1,3]"
,canvas-keyboard-response,106,189026,0.0-6.0-4.16,5009,,,,,make choice,1017,1,,,critical,t,c,d,164,240,240,164,160.6713,232.8713,spektor,0.05,h,164,240,240,164,160.6713,232.8713,39360,39360,37415.7294,td,null,null,null,null,null,null,"[1,3]"
,canvas-keyboard-response,107,189189,0.0-6.0-5.16,5009,,,,,clear_screen,null,null,,,critical,t,c,d,164,240,240,164,160.6713,232.8713,spektor,0.05,h,164,240,240,164,160.6713,232.8713,39360,39360,37415.7294,td,null,null,null,null,null,null,"[1,3]"
,canvas-keyboard-response,108,189403,0.0-6.0-0.17,5009,,,,,pre trial waiting period,null,null,,,critical,t,d,c,164,240,164,240,240,164,trueblood,0,h,164,240,240,164,164,240,39360,39360,39360,td,null,null,null,null,null,null,"[1,2]"
,canvas-keyboard-response,109,189564,0.0-6.0-1.17,5009,,,,,clear_screen,null,null,,,critical,t,d,c,164,240,164,240,240,164,trueblood,0,h,164,240,240,164,164,240,39360,39360,39360,td,null,null,null,null,null,null,"[1,2]"
,canvas-keyboard-response,110,190906,0.0-6.0-2.17,5009,,,,,rectangles,null,null,,,critical,t,d,c,164,240,164,240,240,164,trueblood,0,h,164,240,240,164,164,240,39360,39360,39360,td,null,null,null,null,null,null,"[1,2]"
,canvas-keyboard-response,111,191071,0.0-6.0-3.17,5009,,,,,clear_screen,null,null,,,critical,t,d,c,164,240,164,240,240,164,trueblood,0,h,164,240,240,164,164,240,39360,39360,39360,td,null,null,null,null,null,null,"[1,2]"
,canvas-keyboard-response,112,193875,0.0-6.0-4.17,5009,,,,,make choice,2788,2,,,critical,t,d,c,164,240,164,240,240,164,trueblood,0,h,164,240,240,164,164,240,39360,39360,39360,td,null,null,null,null,null,null,"[1,2]"
,canvas-keyboard-response,113,194046,0.0-6.0-5.17,5009,,,,,clear_screen,null,null,,,critical,t,d,c,164,240,164,240,240,164,trueblood,0,h,164,240,240,164,164,240,39360,39360,39360,td,null,null,null,null,null,null,"[1,2]"
,canvas-keyboard-response,114,194264,0.0-6.0-0.18,5009,,,,,pre trial waiting period,null,null,,,critical,c,d,t,164,240,232.8713,160.6713,240,164,trueblood,0.05,w,240,164,164,240,232.8713,160.6713,39360,39360,37415.7294,td,null,null,null,null,null,null,"[3,2]"
,canvas-keyboard-response,115,194424,0.0-6.0-1.18,5009,,,,,clear_screen,null,null,,,critical,c,d,t,164,240,232.8713,160.6713,240,164,trueblood,0.05,w,240,164,164,240,232.8713,160.6713,39360,39360,37415.7294,td,null,null,null,null,null,null,"[3,2]"
,canvas-keyboard-response,116,195765,0.0-6.0-2.18,5009,,,,,rectangles,null,null,,,critical,c,d,t,164,240,232.8713,160.6713,240,164,trueblood,0.05,w,240,164,164,240,232.8713,160.6713,39360,39360,37415.7294,td,null,null,null,null,null,null,"[3,2]"
,canvas-keyboard-response,117,195932,0.0-6.0-3.18,5009,,,,,clear_screen,null,null,,,critical,c,d,t,164,240,232.8713,160.6713,240,164,trueblood,0.05,w,240,164,164,240,232.8713,160.6713,39360,39360,37415.7294,td,null,null,null,null,null,null,"[3,2]"
,canvas-keyboard-response,118,197538,0.0-6.0-4.18,5009,,,,,make choice,1589,3,,,critical,c,d,t,164,240,232.8713,160.6713,240,164,trueblood,0.05,w,240,164,164,240,232.8713,160.6713,39360,39360,37415.7294,td,null,null,null,null,null,null,"[3,2]"
,canvas-keyboard-response,119,197702,0.0-6.0-5.18,5009,,,,,clear_screen,null,null,,,critical,c,d,t,164,240,232.8713,160.6713,240,164,trueblood,0.05,w,240,164,164,240,232.8713,160.6713,39360,39360,37415.7294,td,null,null,null,null,null,null,"[3,2]"
,canvas-keyboard-response,120,197917,0.0-6.0-0.19,5009,,,,,pre trial waiting period,null,null,,,critical,t,d,c,240,164,227.1683,158.0083,164,240,spektor,0.09,w,240,164,164,240,227.1683,158.0083,39360,39360,35894.4834,dc,null,null,null,null,null,null,"[2,3]"
,canvas-keyboard-response,121,198080,0.0-6.0-1.19,5009,,,,,clear_screen,null,null,,,critical,t,d,c,240,164,227.1683,158.0083,164,240,spektor,0.09,w,240,164,164,240,227.1683,158.0083,39360,39360,35894.4834,dc,null,null,null,null,null,null,"[2,3]"
,canvas-keyboard-response,122,199424,0.0-6.0-2.19,5009,,,,,rectangles,null,null,,,critical,t,d,c,240,164,227.1683,158.0083,164,240,spektor,0.09,w,240,164,164,240,227.1683,158.0083,39360,39360,35894.4834,dc,null,null,null,null,null,null,"[2,3]"
,canvas-keyboard-response,123,199593,0.0-6.0-3.19,5009,,,,,clear_screen,null,null,,,critical,t,d,c,240,164,227.1683,158.0083,164,240,spektor,0.09,w,240,164,164,240,227.1683,158.0083,39360,39360,35894.4834,dc,null,null,null,null,null,null,"[2,3]"
,canvas-keyboard-response,124,200985,0.0-6.0-4.19,5009,,,,,make choice,1374,3,,,critical,t,d,c,240,164,227.1683,158.0083,164,240,spektor,0.09,w,240,164,164,240,227.1683,158.0083,39360,39360,35894.4834,dc,null,null,null,null,null,null,"[2,3]"
,canvas-keyboard-response,125,201153,0.0-6.0-5.19,5009,,,,,clear_screen,null,null,,,critical,t,d,c,240,164,227.1683,158.0083,164,240,spektor,0.09,w,240,164,164,240,227.1683,158.0083,39360,39360,35894.4834,dc,null,null,null,null,null,null,"[2,3]"
,canvas-keyboard-response,126,201363,0.0-6.0-0.20,5009,,,,,pre trial waiting period,null,null,,,critical,t,d,c,240,164,240,164,164,240,trueblood,0,w,240,164,164,240,240,164,39360,39360,39360,tc,null,null,null,null,null,null,"[1,3]"
,canvas-keyboard-response,127,201526,0.0-6.0-1.20,5009,,,,,clear_screen,null,null,,,critical,t,d,c,240,164,240,164,164,240,trueblood,0,w,240,164,164,240,240,164,39360,39360,39360,tc,null,null,null,null,null,null,"[1,3]"
,canvas-keyboard-response,128,202871,0.0-6.0-2.20,5009,,,,,rectangles,null,null,,,critical,t,d,c,240,164,240,164,164,240,trueblood,0,w,240,164,164,240,240,164,39360,39360,39360,tc,null,null,null,null,null,null,"[1,3]"
,canvas-keyboard-response,129,203038,0.0-6.0-3.20,5009,,,,,clear_screen,null,null,,,critical,t,d,c,240,164,240,164,164,240,trueblood,0,w,240,164,164,240,240,164,39360,39360,39360,tc,null,null,null,null,null,null,"[1,3]"
,canvas-keyboard-response,130,204945,0.0-6.0-4.20,5009,,,,,make choice,1889,1,,,critical,t,d,c,240,164,240,164,164,240,trueblood,0,w,240,164,164,240,240,164,39360,39360,39360,tc,null,null,null,null,null,null,"[1,3]"
,canvas-keyboard-response,131,205110,0.0-6.0-5.20,5009,,,,,clear_screen,null,null,,,critical,t,d,c,240,164,240,164,164,240,trueblood,0,w,240,164,164,240,240,164,39360,39360,39360,tc,null,null,null,null,null,null,"[1,3]"
,canvas-keyboard-response,132,205321,0.0-6.0-0.21,5009,,,,,pre trial waiting period,null,null,,,catch,l,sh,sw,293,181,205,213,212,191,trueblood,null,null,null,null,null,null,null,null,null,null,null,,180,200,260,200,36000,52000,"[1,3]"
,canvas-keyboard-response,133,205480,0.0-6.0-1.21,5009,,,,,clear_screen,null,null,,,catch,l,sh,sw,293,181,205,213,212,191,trueblood,null,null,null,null,null,null,null,null,null,null,null,,180,200,260,200,36000,52000,"[1,3]"
,canvas-keyboard-response,134,206822,0.0-6.0-2.21,5009,,,,,rectangles,null,null,,,catch,l,sh,sw,293,181,205,213,212,191,trueblood,null,null,null,null,null,null,null,null,null,null,null,,180,200,260,200,36000,52000,"[1,3]"
,canvas-keyboard-response,135,206990,0.0-6.0-3.21,5009,,,,,clear_screen,null,null,,,catch,l,sh,sw,293,181,205,213,212,191,trueblood,null,null,null,null,null,null,null,null,null,null,null,,180,200,260,200,36000,52000,"[1,3]"
,canvas-keyboard-response,136,208105,0.0-6.0-4.21,5009,,,,,make choice,1099,1,,,catch,l,sh,sw,293,181,205,213,212,191,trueblood,null,null,null,null,null,null,null,null,null,null,null,,180,200,260,200,36000,52000,"[1,3]"
,canvas-keyboard-response,137,208271,0.0-6.0-5.21,5009,,,,,clear_screen,null,null,,,catch,l,sh,sw,293,181,205,213,212,191,trueblood,null,null,null,null,null,null,null,null,null,null,null,,180,200,260,200,36000,52000,"[1,3]"
,canvas-keyboard-response,138,208483,0.0-6.0-0.22,5009,,,,,pre trial waiting period,null,null,,,critical,t,c,d,164,240,240,164,158.0083,227.1683,spektor,0.09,h,164,240,240,164,158.0083,227.1683,39360,39360,35894.4834,td,null,null,null,null,null,null,"[1,3]"
,canvas-keyboard-response,139,208643,0.0-6.0-1.22,5009,,,,,clear_screen,null,null,,,critical,t,c,d,164,240,240,164,158.0083,227.1683,spektor,0.09,h,164,240,240,164,158.0083,227.1683,39360,39360,35894.4834,td,null,null,null,null,null,null,"[1,3]"
,canvas-keyboard-response,140,209984,0.0-6.0-2.22,5009,,,,,rectangles,null,null,,,critical,t,c,d,164,240,240,164,158.0083,227.1683,spektor,0.09,h,164,240,240,164,158.0083,227.1683,39360,39360,35894.4834,td,null,null,null,null,null,null,"[1,3]"
,canvas-keyboard-response,141,210150,0.0-6.0-3.22,5009,,,,,clear_screen,null,null,,,critical,t,c,d,164,240,240,164,158.0083,227.1683,spektor,0.09,h,164,240,240,164,158.0083,227.1683,39360,39360,35894.4834,td,null,null,null,null,null,null,"[1,3]"
,canvas-keyboard-response,142,213049,0.0-6.0-4.22,5009,,,,,make choice,2884,3,,,critical,t,c,d,164,240,240,164,158.0083,227.1683,spektor,0.09,h,164,240,240,164,158.0083,227.1683,39360,39360,35894.4834,td,null,null,null,null,null,null,"[1,3]"
,canvas-keyboard-response,143,213216,0.0-6.0-5.22,5009,,,,,clear_screen,null,null,,,critical,t,c,d,164,240,240,164,158.0083,227.1683,spektor,0.09,h,164,240,240,164,158.0083,227.1683,39360,39360,35894.4834,td,null,null,null,null,null,null,"[1,3]"
,canvas-keyboard-response,144,213428,0.0-6.0-0.23,5009,,,,,pre trial waiting period,null,null,,,critical,t,c,d,164,240,240,164,154.6796,220.0396,spektor,0.14,h,164,240,240,164,154.6796,220.0396,39360,39360,34035.6388,dc,null,null,null,null,null,null,"[3,2]"
,canvas-keyboard-response,145,213591,0.0-6.0-1.23,5009,,,,,clear_screen,null,null,,,critical,t,c,d,164,240,240,164,154.6796,220.0396,spektor,0.14,h,164,240,240,164,154.6796,220.0396,39360,39360,34035.6388,dc,null,null,null,null,null,null,"[3,2]"
,canvas-keyboard-response,146,214936,0.0-6.0-2.23,5009,,,,,rectangles,null,null,,,critical,t,c,d,164,240,240,164,154.6796,220.0396,spektor,0.14,h,164,240,240,164,154.6796,220.0396,39360,39360,34035.6388,dc,null,null,null,null,null,null,"[3,2]"
,canvas-keyboard-response,147,215102,0.0-6.0-3.23,5009,,,,,clear_screen,null,null,,,critical,t,c,d,164,240,240,164,154.6796,220.0396,spektor,0.14,h,164,240,240,164,154.6796,220.0396,39360,39360,34035.6388,dc,null,null,null,null,null,null,"[3,2]"
,canvas-keyboard-response,148,217657,0.0-6.0-4.23,5009,,,,,make choice,2541,2,,,critical,t,c,d,164,240,240,164,154.6796,220.0396,spektor,0.14,h,164,240,240,164,154.6796,220.0396,39360,39360,34035.6388,dc,null,null,null,null,null,null,"[3,2]"
,canvas-keyboard-response,149,217823,0.0-6.0-5.23,5009,,,,,clear_screen,null,null,,,critical,t,c,d,164,240,240,164,154.6796,220.0396,spektor,0.14,h,164,240,240,164,154.6796,220.0396,39360,39360,34035.6388,dc,null,null,null,null,null,null,"[3,2]"
,canvas-keyboard-response,150,218037,0.0-6.0-0.24,5009,,,,,pre trial waiting period,null,null,,,critical,c,t,d,240,164,164,240,158.0083,227.1683,trueblood,0.09,h,164,240,240,164,158.0083,227.1683,39360,39360,35894.4834,tc,null,null,null,null,null,null,"[2,1]"
,canvas-keyboard-response,151,218197,0.0-6.0-1.24,5009,,,,,clear_screen,null,null,,,critical,c,t,d,240,164,164,240,158.0083,227.1683,trueblood,0.09,h,164,240,240,164,158.0083,227.1683,39360,39360,35894.4834,tc,null,null,null,null,null,null,"[2,1]"
,canvas-keyboard-response,152,219542,0.0-6.0-2.24,5009,,,,,rectangles,null,null,,,critical,c,t,d,240,164,164,240,158.0083,227.1683,trueblood,0.09,h,164,240,240,164,158.0083,227.1683,39360,39360,35894.4834,tc,null,null,null,null,null,null,"[2,1]"
,canvas-keyboard-response,153,219711,0.0-6.0-3.24,5009,,,,,clear_screen,null,null,,,critical,c,t,d,240,164,164,240,158.0083,227.1683,trueblood,0.09,h,164,240,240,164,158.0083,227.1683,39360,39360,35894.4834,tc,null,null,null,null,null,null,"[2,1]"
,canvas-keyboard-response,154,223321,0.0-6.0-4.24,5009,,,,,make choice,3592,1,,,critical,c,t,d,240,164,164,240,158.0083,227.1683,trueblood,0.09,h,164,240,240,164,158.0083,227.1683,39360,39360,35894.4834,tc,null,null,null,null,null,null,"[2,1]"
,canvas-keyboard-response,155,223488,0.0-6.0-5.24,5009,,,,,clear_screen,null,null,,,critical,c,t,d,240,164,164,240,158.0083,227.1683,trueblood,0.09,h,164,240,240,164,158.0083,227.1683,39360,39360,35894.4834,tc,null,null,null,null,null,null,"[2,1]"
,canvas-keyboard-response,156,223700,0.0-6.0-0.25,5009,,,,,pre trial waiting period,null,null,,,catch,sh,l,sw,199,181,223,276,212,227,spektor,null,null,null,null,null,null,null,null,null,null,null,,180,200,260,200,36000,52000,"[2,3]"
,canvas-keyboard-response,157,223860,0.0-6.0-1.25,5009,,,,,clear_screen,null,null,,,catch,sh,l,sw,199,181,223,276,212,227,spektor,null,null,null,null,null,null,null,null,null,null,null,,180,200,260,200,36000,52000,"[2,3]"
,canvas-keyboard-response,158,225204,0.0-6.0-2.25,5009,,,,,rectangles,null,null,,,catch,sh,l,sw,199,181,223,276,212,227,spektor,null,null,null,null,null,null,null,null,null,null,null,,180,200,260,200,36000,52000,"[2,3]"
,canvas-keyboard-response,159,225371,0.0-6.0-3.25,5009,,,,,clear_screen,null,null,,,catch,sh,l,sw,199,181,223,276,212,227,spektor,null,null,null,null,null,null,null,null,null,null,null,,180,200,260,200,36000,52000,"[2,3]"
,canvas-keyboard-response,160,227209,0.0-6.0-4.25,5009,,,,,make choice,1822,2,,,catch,sh,l,sw,199,181,223,276,212,227,spektor,null,null,null,null,null,null,null,null,null,null,null,,180,200,260,200,36000,52000,"[2,3]"
,canvas-keyboard-response,161,227374,0.0-6.0-5.25,5009,,,,,clear_screen,null,null,,,catch,sh,l,sw,199,181,223,276,212,227,spektor,null,null,null,null,null,null,null,null,null,null,null,,180,200,260,200,36000,52000,"[2,3]"
,canvas-keyboard-response,162,227587,0.0-6.0-0.26,5009,,,,,pre trial waiting period,null,null,,,catch,sw,l,sh,180,200,277,165,161,189,trueblood,null,null,null,null,null,null,null,null,null,null,null,,180,200,260,200,36000,52000,"[1,2]"
,canvas-keyboard-response,163,227750,0.0-6.0-1.26,5009,,,,,clear_screen,null,null,,,catch,sw,l,sh,180,200,277,165,161,189,trueblood,null,null,null,null,null,null,null,null,null,null,null,,180,200,260,200,36000,52000,"[1,2]"
,canvas-keyboard-response,164,229093,0.0-6.0-2.26,5009,,,,,rectangles,null,null,,,catch,sw,l,sh,180,200,277,165,161,189,trueblood,null,null,null,null,null,null,null,null,null,null,null,,180,200,260,200,36000,52000,"[1,2]"
,canvas-keyboard-response,165,229260,0.0-6.0-3.26,5009,,,,,clear_screen,null,null,,,catch,sw,l,sh,180,200,277,165,161,189,trueblood,null,null,null,null,null,null,null,null,null,null,null,,180,200,260,200,36000,52000,"[1,2]"
,canvas-keyboard-response,166,230729,0.0-6.0-4.26,5009,,,,,make choice,1449,2,,,catch,sw,l,sh,180,200,277,165,161,189,trueblood,null,null,null,null,null,null,null,null,null,null,null,,180,200,260,200,36000,52000,"[1,2]"
,canvas-keyboard-response,167,230893,0.0-6.0-5.26,5009,,,,,clear_screen,null,null,,,catch,sw,l,sh,180,200,277,165,161,189,trueblood,null,null,null,null,null,null,null,null,null,null,null,,180,200,260,200,36000,52000,"[1,2]"
,canvas-keyboard-response,168,231106,0.0-6.0-0.27,5009,,,,,pre trial waiting period,null,null,,,catch,sw,sh,l,180,200,232,155,228,212,spektor,null,null,null,null,null,null,null,null,null,null,null,,180,200,260,200,36000,52000,"[1,3]"
,canvas-keyboard-response,169,231268,0.0-6.0-1.27,5009,,,,,clear_screen,null,null,,,catch,sw,sh,l,180,200,232,155,228,212,spektor,null,null,null,null,null,null,null,null,null,null,null,,180,200,260,200,36000,52000,"[1,3]"
,canvas-keyboard-response,170,232609,0.0-6.0-2.27,5009,,,,,rectangles,null,null,,,catch,sw,sh,l,180,200,232,155,228,212,spektor,null,null,null,null,null,null,null,null,null,null,null,,180,200,260,200,36000,52000,"[1,3]"
,canvas-keyboard-response,171,232773,0.0-6.0-3.27,5009,,,,,clear_screen,null,null,,,catch,sw,sh,l,180,200,232,155,228,212,spektor,null,null,null,null,null,null,null,null,null,null,null,,180,200,260,200,36000,52000,"[1,3]"
,canvas-keyboard-response,172,234186,0.0-6.0-4.27,5009,,,,,make choice,1397,3,,,catch,sw,sh,l,180,200,232,155,228,212,spektor,null,null,null,null,null,null,null,null,null,null,null,,180,200,260,200,36000,52000,"[1,3]"
,canvas-keyboard-response,173,234352,0.0-6.0-5.27,5009,,,,,clear_screen,null,null,,,catch,sw,sh,l,180,200,232,155,228,212,spektor,null,null,null,null,null,null,null,null,null,null,null,,180,200,260,200,36000,52000,"[1,3]"
,canvas-keyboard-response,174,234564,0.0-6.0-0.28,5009,,,,,pre trial waiting period,null,null,,,critical,d,t,c,154.6796,220.0396,164,240,240,164,trueblood,0.14,h,164,240,240,164,154.6796,220.0396,39360,39360,34035.6388,td,null,null,null,null,null,null,"[2,1]"
,canvas-keyboard-response,175,234725,0.0-6.0-1.28,5009,,,,,clear_screen,null,null,,,critical,d,t,c,154.6796,220.0396,164,240,240,164,trueblood,0.14,h,164,240,240,164,154.6796,220.0396,39360,39360,34035.6388,td,null,null,null,null,null,null,"[2,1]"
,canvas-keyboard-response,176,236068,0.0-6.0-2.28,5009,,,,,rectangles,null,null,,,critical,d,t,c,154.6796,220.0396,164,240,240,164,trueblood,0.14,h,164,240,240,164,154.6796,220.0396,39360,39360,34035.6388,td,null,null,null,null,null,null,"[2,1]"
,canvas-keyboard-response,177,236234,0.0-6.0-3.28,5009,,,,,clear_screen,null,null,,,critical,d,t,c,154.6796,220.0396,164,240,240,164,trueblood,0.14,h,164,240,240,164,154.6796,220.0396,39360,39360,34035.6388,td,null,null,null,null,null,null,"[2,1]"
,canvas-keyboard-response,178,237321,0.0-6.0-4.28,5009,,,,,make choice,1069,2,,,critical,d,t,c,154.6796,220.0396,164,240,240,164,trueblood,0.14,h,164,240,240,164,154.6796,220.0396,39360,39360,34035.6388,td,null,null,null,null,null,null,"[2,1]"
,canvas-keyboard-response,179,237487,0.0-6.0-5.28,5009,,,,,clear_screen,null,null,,,critical,d,t,c,154.6796,220.0396,164,240,240,164,trueblood,0.14,h,164,240,240,164,154.6796,220.0396,39360,39360,34035.6388,td,null,null,null,null,null,null,"[2,1]"
,canvas-keyboard-response,180,237699,0.0-6.0-0.29,5009,,,,,pre trial waiting period,null,null,,,critical,d,c,t,240,164,164,240,240,164,trueblood,0,w,240,164,164,240,240,164,39360,39360,39360,td,null,null,null,null,null,null,"[3,1]"
,canvas-keyboard-response,181,237861,0.0-6.0-1.29,5009,,,,,clear_screen,null,null,,,critical,d,c,t,240,164,164,240,240,164,trueblood,0,w,240,164,164,240,240,164,39360,39360,39360,td,null,null,null,null,null,null,"[3,1]"
,canvas-keyboard-response,182,239202,0.0-6.0-2.29,5009,,,,,rectangles,null,null,,,critical,d,c,t,240,164,164,240,240,164,trueblood,0,w,240,164,164,240,240,164,39360,39360,39360,td,null,null,null,null,null,null,"[3,1]"
,canvas-keyboard-response,183,239371,0.0-6.0-3.29,5009,,,,,clear_screen,null,null,,,critical,d,c,t,240,164,164,240,240,164,trueblood,0,w,240,164,164,240,240,164,39360,39360,39360,td,null,null,null,null,null,null,"[3,1]"
,canvas-keyboard-response,184,241073,0.0-6.0-4.29,5009,,,,,make choice,1684,3,,,critical,d,c,t,240,164,164,240,240,164,trueblood,0,w,240,164,164,240,240,164,39360,39360,39360,td,null,null,null,null,null,null,"[3,1]"
,canvas-keyboard-response,185,241241,0.0-6.0-5.29,5009,,,,,clear_screen,null,null,,,critical,d,c,t,240,164,164,240,240,164,trueblood,0,w,240,164,164,240,240,164,39360,39360,39360,td,null,null,null,null,null,null,"[3,1]"
,canvas-keyboard-response,186,241453,0.0-6.0-0.30,5009,,,,,pre trial waiting period,null,null,,,critical,c,d,t,240,164,154.6796,220.0396,164,240,trueblood,0.14,h,164,240,240,164,154.6796,220.0396,39360,39360,34035.6388,dc,null,null,null,null,null,null,"[2,1]"
,canvas-keyboard-response,187,241612,0.0-6.0-1.30,5009,,,,,clear_screen,null,null,,,critical,c,d,t,240,164,154.6796,220.0396,164,240,trueblood,0.14,h,164,240,240,164,154.6796,220.0396,39360,39360,34035.6388,dc,null,null,null,null,null,null,"[2,1]"
,canvas-keyboard-response,188,242955,0.0-6.0-2.30,5009,,,,,rectangles,null,null,,,critical,c,d,t,240,164,154.6796,220.0396,164,240,trueblood,0.14,h,164,240,240,164,154.6796,220.0396,39360,39360,34035.6388,dc,null,null,null,null,null,null,"[2,1]"
,canvas-keyboard-response,189,243125,0.0-6.0-3.30,5009,,,,,clear_screen,null,null,,,critical,c,d,t,240,164,154.6796,220.0396,164,240,trueblood,0.14,h,164,240,240,164,154.6796,220.0396,39360,39360,34035.6388,dc,null,null,null,null,null,null,"[2,1]"
,canvas-keyboard-response,190,246192,0.0-6.0-4.30,5009,,,,,make choice,3050,2,,,critical,c,d,t,240,164,154.6796,220.0396,164,240,trueblood,0.14,h,164,240,240,164,154.6796,220.0396,39360,39360,34035.6388,dc,null,null,null,null,null,null,"[2,1]"
,canvas-keyboard-response,191,246361,0.0-6.0-5.30,5009,,,,,clear_screen,null,null,,,critical,c,d,t,240,164,154.6796,220.0396,164,240,trueblood,0.14,h,164,240,240,164,154.6796,220.0396,39360,39360,34035.6388,dc,null,null,null,null,null,null,"[2,1]"
,canvas-keyboard-response,192,246573,0.0-6.0-0.31,5009,,,,,pre trial waiting period,null,null,,,critical,t,c,d,164,240,240,164,160.6713,232.8713,trueblood,0.05,h,164,240,240,164,160.6713,232.8713,39360,39360,37415.7294,td,null,null,null,null,null,null,"[1,3]"
,canvas-keyboard-response,193,246734,0.0-6.0-1.31,5009,,,,,clear_screen,null,null,,,critical,t,c,d,164,240,240,164,160.6713,232.8713,trueblood,0.05,h,164,240,240,164,160.6713,232.8713,39360,39360,37415.7294,td,null,null,null,null,null,null,"[1,3]"
,canvas-keyboard-response,194,248079,0.0-6.0-2.31,5009,,,,,rectangles,null,null,,,critical,t,c,d,164,240,240,164,160.6713,232.8713,trueblood,0.05,h,164,240,240,164,160.6713,232.8713,39360,39360,37415.7294,td,null,null,null,null,null,null,"[1,3]"
,canvas-keyboard-response,195,248248,0.0-6.0-3.31,5009,,,,,clear_screen,null,null,,,critical,t,c,d,164,240,240,164,160.6713,232.8713,trueblood,0.05,h,164,240,240,164,160.6713,232.8713,39360,39360,37415.7294,td,null,null,null,null,null,null,"[1,3]"
,canvas-keyboard-response,196,252681,0.0-6.0-4.31,5009,,,,,make choice,4415,3,,,critical,t,c,d,164,240,240,164,160.6713,232.8713,trueblood,0.05,h,164,240,240,164,160.6713,232.8713,39360,39360,37415.7294,td,null,null,null,null,null,null,"[1,3]"
,canvas-keyboard-response,197,252849,0.0-6.0-5.31,5009,,,,,clear_screen,null,null,,,critical,t,c,d,164,240,240,164,160.6713,232.8713,trueblood,0.05,h,164,240,240,164,160.6713,232.8713,39360,39360,37415.7294,td,null,null,null,null,null,null,"[1,3]"
,canvas-keyboard-response,198,253067,0.0-6.0-0.32,5009,,,,,pre trial waiting period,null,null,,,catch,l,sw,sh,232,189,185,167,186,145,spektor,null,null,null,null,null,null,null,null,null,null,null,,180,200,260,200,36000,52000,"[1,3]"
,canvas-keyboard-response,199,253229,0.0-6.0-1.32,5009,,,,,clear_screen,null,null,,,catch,l,sw,sh,232,189,185,167,186,145,spektor,null,null,null,null,null,null,null,null,null,null,null,,180,200,260,200,36000,52000,"[1,3]"
,canvas-keyboard-response,200,254571,0.0-6.0-2.32,5009,,,,,rectangles,null,null,,,catch,l,sw,sh,232,189,185,167,186,145,spektor,null,null,null,null,null,null,null,null,null,null,null,,180,200,260,200,36000,52000,"[1,3]"
,canvas-keyboard-response,201,254738,0.0-6.0-3.32,5009,,,,,clear_screen,null,null,,,catch,l,sw,sh,232,189,185,167,186,145,spektor,null,null,null,null,null,null,null,null,null,null,null,,180,200,260,200,36000,52000,"[1,3]"
,canvas-keyboard-response,202,256137,0.0-6.0-4.32,5009,,,,,make choice,1378,1,,,catch,l,sw,sh,232,189,185,167,186,145,spektor,null,null,null,null,null,null,null,null,null,null,null,,180,200,260,200,36000,52000,"[1,3]"
,canvas-keyboard-response,203,256304,0.0-6.0-5.32,5009,,,,,clear_screen,null,null,,,catch,l,sw,sh,232,189,185,167,186,145,spektor,null,null,null,null,null,null,null,null,null,null,null,,180,200,260,200,36000,52000,"[1,3]"
,canvas-keyboard-response,204,256520,0.0-6.0-0.33,5009,,,,,pre trial waiting period,null,null,,,critical,t,c,d,240,164,164,240,237.1485,162.6685,spektor,0.02,w,240,164,164,240,237.1485,162.6685,39360,39360,38576.5967,tc,null,null,null,null,null,null,"[1,2]"
,canvas-keyboard-response,205,256683,0.0-6.0-1.33,5009,,,,,clear_screen,null,null,,,critical,t,c,d,240,164,164,240,237.1485,162.6685,spektor,0.02,w,240,164,164,240,237.1485,162.6685,39360,39360,38576.5967,tc,null,null,null,null,null,null,"[1,2]"
,canvas-keyboard-response,206,258027,0.0-6.0-2.33,5009,,,,,rectangles,null,null,,,critical,t,c,d,240,164,164,240,237.1485,162.6685,spektor,0.02,w,240,164,164,240,237.1485,162.6685,39360,39360,38576.5967,tc,null,null,null,null,null,null,"[1,2]"
,canvas-keyboard-response,207,258200,0.0-6.0-3.33,5009,,,,,clear_screen,null,null,,,critical,t,c,d,240,164,164,240,237.1485,162.6685,spektor,0.02,w,240,164,164,240,237.1485,162.6685,39360,39360,38576.5967,tc,null,null,null,null,null,null,"[1,2]"
,canvas-keyboard-response,208,260537,0.0-6.0-4.33,5009,,,,,make choice,2320,1,,,critical,t,c,d,240,164,164,240,237.1485,162.6685,spektor,0.02,w,240,164,164,240,237.1485,162.6685,39360,39360,38576.5967,tc,null,null,null,null,null,null,"[1,2]"
,canvas-keyboard-response,209,260704,0.0-6.0-5.33,5009,,,,,clear_screen,null,null,,,critical,t,c,d,240,164,164,240,237.1485,162.6685,spektor,0.02,w,240,164,164,240,237.1485,162.6685,39360,39360,38576.5967,tc,null,null,null,null,null,null,"[1,2]"
,canvas-keyboard-response,210,260919,0.0-6.0-0.34,5009,,,,,pre trial waiting period,null,null,,,catch,l,sw,sh,276,219,186,186,192,153,spektor,null,null,null,null,null,null,null,null,null,null,null,,180,200,260,200,36000,52000,"[1,2]"
,canvas-keyboard-response,211,261081,0.0-6.0-1.34,5009,,,,,clear_screen,null,null,,,catch,l,sw,sh,276,219,186,186,192,153,spektor,null,null,null,null,null,null,null,null,null,null,null,,180,200,260,200,36000,52000,"[1,2]"
,canvas-keyboard-response,212,262425,0.0-6.0-2.34,5009,,,,,rectangles,null,null,,,catch,l,sw,sh,276,219,186,186,192,153,spektor,null,null,null,null,null,null,null,null,null,null,null,,180,200,260,200,36000,52000,"[1,2]"
,canvas-keyboard-response,213,262594,0.0-6.0-3.34,5009,,,,,clear_screen,null,null,,,catch,l,sw,sh,276,219,186,186,192,153,spektor,null,null,null,null,null,null,null,null,null,null,null,,180,200,260,200,36000,52000,"[1,2]"
,canvas-keyboard-response,214,263897,0.0-6.0-4.34,5009,,,,,make choice,1285,1,,,catch,l,sw,sh,276,219,186,186,192,153,spektor,null,null,null,null,null,null,null,null,null,null,null,,180,200,260,200,36000,52000,"[1,2]"
,canvas-keyboard-response,215,264065,0.0-6.0-5.34,5009,,,,,clear_screen,null,null,,,catch,l,sw,sh,276,219,186,186,192,153,spektor,null,null,null,null,null,null,null,null,null,null,null,,180,200,260,200,36000,52000,"[1,2]"
,canvas-keyboard-response,216,264280,0.0-6.0-0.35,5009,,,,,pre trial waiting period,null,null,,,critical,t,c,d,240,164,164,240,220.0396,154.6796,spektor,0.14,w,240,164,164,240,220.0396,154.6796,39360,39360,34035.6388,dc,null,null,null,null,null,null,"[3,2]"
,canvas-keyboard-response,217,264444,0.0-6.0-1.35,5009,,,,,clear_screen,null,null,,,critical,t,c,d,240,164,164,240,220.0396,154.6796,spektor,0.14,w,240,164,164,240,220.0396,154.6796,39360,39360,34035.6388,dc,null,null,null,null,null,null,"[3,2]"
,canvas-keyboard-response,218,265787,0.0-6.0-2.35,5009,,,,,rectangles,null,null,,,critical,t,c,d,240,164,164,240,220.0396,154.6796,spektor,0.14,w,240,164,164,240,220.0396,154.6796,39360,39360,34035.6388,dc,null,null,null,null,null,null,"[3,2]"
,canvas-keyboard-response,219,265955,0.0-6.0-3.35,5009,,,,,clear_screen,null,null,,,critical,t,c,d,240,164,164,240,220.0396,154.6796,spektor,0.14,w,240,164,164,240,220.0396,154.6796,39360,39360,34035.6388,dc,null,null,null,null,null,null,"[3,2]"
,canvas-keyboard-response,220,267776,0.0-6.0-4.35,5009,,,,,make choice,1801,2,,,critical,t,c,d,240,164,164,240,220.0396,154.6796,spektor,0.14,w,240,164,164,240,220.0396,154.6796,39360,39360,34035.6388,dc,null,null,null,null,null,null,"[3,2]"
,canvas-keyboard-response,221,267939,0.0-6.0-5.35,5009,,,,,clear_screen,null,null,,,critical,t,c,d,240,164,164,240,220.0396,154.6796,spektor,0.14,w,240,164,164,240,220.0396,154.6796,39360,39360,34035.6388,dc,null,null,null,null,null,null,"[3,2]"
,canvas-keyboard-response,222,268155,0.0-6.0-0.36,5009,,,,,pre trial waiting period,null,null,,,critical,c,d,t,164,240,240,164,240,164,trueblood,0,w,240,164,164,240,240,164,39360,39360,39360,dc,null,null,null,null,null,null,"[2,1]"
,canvas-keyboard-response,223,268316,0.0-6.0-1.36,5009,,,,,clear_screen,null,null,,,critical,c,d,t,164,240,240,164,240,164,trueblood,0,w,240,164,164,240,240,164,39360,39360,39360,dc,null,null,null,null,null,null,"[2,1]"
,canvas-keyboard-response,224,269659,0.0-6.0-2.36,5009,,,,,rectangles,null,null,,,critical,c,d,t,164,240,240,164,240,164,trueblood,0,w,240,164,164,240,240,164,39360,39360,39360,dc,null,null,null,null,null,null,"[2,1]"
,canvas-keyboard-response,225,269825,0.0-6.0-3.36,5009,,,,,clear_screen,null,null,,,critical,c,d,t,164,240,240,164,240,164,trueblood,0,w,240,164,164,240,240,164,39360,39360,39360,dc,null,null,null,null,null,null,"[2,1]"
,canvas-keyboard-response,226,272681,0.0-6.0-4.36,5009,,,,,make choice,2840,1,,,critical,c,d,t,164,240,240,164,240,164,trueblood,0,w,240,164,164,240,240,164,39360,39360,39360,dc,null,null,null,null,null,null,"[2,1]"
,canvas-keyboard-response,227,272847,0.0-6.0-5.36,5009,,,,,clear_screen,null,null,,,critical,c,d,t,164,240,240,164,240,164,trueblood,0,w,240,164,164,240,240,164,39360,39360,39360,dc,null,null,null,null,null,null,"[2,1]"
,canvas-keyboard-response,228,273061,0.0-6.0-0.37,5009,,,,,pre trial waiting period,null,null,,,critical,t,d,c,164,240,158.0083,227.1683,240,164,trueblood,0.09,h,164,240,240,164,158.0083,227.1683,39360,39360,35894.4834,td,null,null,null,null,null,null,"[1,2]"
,canvas-keyboard-response,229,273221,0.0-6.0-1.37,5009,,,,,clear_screen,null,null,,,critical,t,d,c,164,240,158.0083,227.1683,240,164,trueblood,0.09,h,164,240,240,164,158.0083,227.1683,39360,39360,35894.4834,td,null,null,null,null,null,null,"[1,2]"
,canvas-keyboard-response,230,274567,0.0-6.0-2.37,5009,,,,,rectangles,null,null,,,critical,t,d,c,164,240,158.0083,227.1683,240,164,trueblood,0.09,h,164,240,240,164,158.0083,227.1683,39360,39360,35894.4834,td,null,null,null,null,null,null,"[1,2]"
,canvas-keyboard-response,231,274737,0.0-6.0-3.37,5009,,,,,clear_screen,null,null,,,critical,t,d,c,164,240,158.0083,227.1683,240,164,trueblood,0.09,h,164,240,240,164,158.0083,227.1683,39360,39360,35894.4834,td,null,null,null,null,null,null,"[1,2]"
,canvas-keyboard-response,232,280713,0.0-6.0-4.37,5009,,,,,make choice,5958,2,,,critical,t,d,c,164,240,158.0083,227.1683,240,164,trueblood,0.09,h,164,240,240,164,158.0083,227.1683,39360,39360,35894.4834,td,null,null,null,null,null,null,"[1,2]"
,canvas-keyboard-response,233,280881,0.0-6.0-5.37,5009,,,,,clear_screen,null,null,,,critical,t,d,c,164,240,158.0083,227.1683,240,164,trueblood,0.09,h,164,240,240,164,158.0083,227.1683,39360,39360,35894.4834,td,null,null,null,null,null,null,"[1,2]"
,canvas-keyboard-response,234,281094,0.0-6.0-0.38,5009,,,,,pre trial waiting period,null,null,,,critical,d,t,c,227.1683,158.0083,240,164,164,240,trueblood,0.09,w,240,164,164,240,227.1683,158.0083,39360,39360,35894.4834,td,null,null,null,null,null,null,"[2,1]"
,canvas-keyboard-response,235,281253,0.0-6.0-1.38,5009,,,,,clear_screen,null,null,,,critical,d,t,c,227.1683,158.0083,240,164,164,240,trueblood,0.09,w,240,164,164,240,227.1683,158.0083,39360,39360,35894.4834,td,null,null,null,null,null,null,"[2,1]"
,canvas-keyboard-response,236,282601,0.0-6.0-2.38,5009,,,,,rectangles,null,null,,,critical,d,t,c,227.1683,158.0083,240,164,164,240,trueblood,0.09,w,240,164,164,240,227.1683,158.0083,39360,39360,35894.4834,td,null,null,null,null,null,null,"[2,1]"
,canvas-keyboard-response,237,282769,0.0-6.0-3.38,5009,,,,,clear_screen,null,null,,,critical,d,t,c,227.1683,158.0083,240,164,164,240,trueblood,0.09,w,240,164,164,240,227.1683,158.0083,39360,39360,35894.4834,td,null,null,null,null,null,null,"[2,1]"
,canvas-keyboard-response,238,284345,0.0-6.0-4.38,5009,,,,,make choice,1557,2,,,critical,d,t,c,227.1683,158.0083,240,164,164,240,trueblood,0.09,w,240,164,164,240,227.1683,158.0083,39360,39360,35894.4834,td,null,null,null,null,null,null,"[2,1]"
,canvas-keyboard-response,239,284511,0.0-6.0-5.38,5009,,,,,clear_screen,null,null,,,critical,d,t,c,227.1683,158.0083,240,164,164,240,trueblood,0.09,w,240,164,164,240,227.1683,158.0083,39360,39360,35894.4834,td,null,null,null,null,null,null,"[2,1]"
,canvas-keyboard-response,240,284728,0.0-6.0-0.39,5009,,,,,pre trial waiting period,null,null,,,catch,sh,sw,l,229,154,213,234,222,224,trueblood,null,null,null,null,null,null,null,null,null,null,null,,180,200,260,200,36000,52000,"[1,3]"
,canvas-keyboard-response,241,284887,0.0-6.0-1.39,5009,,,,,clear_screen,null,null,,,catch,sh,sw,l,229,154,213,234,222,224,trueblood,null,null,null,null,null,null,null,null,null,null,null,,180,200,260,200,36000,52000,"[1,3]"
,canvas-keyboard-response,242,286230,0.0-6.0-2.39,5009,,,,,rectangles,null,null,,,catch,sh,sw,l,229,154,213,234,222,224,trueblood,null,null,null,null,null,null,null,null,null,null,null,,180,200,260,200,36000,52000,"[1,3]"
,canvas-keyboard-response,243,286400,0.0-6.0-3.39,5009,,,,,clear_screen,null,null,,,catch,sh,sw,l,229,154,213,234,222,224,trueblood,null,null,null,null,null,null,null,null,null,null,null,,180,200,260,200,36000,52000,"[1,3]"
,canvas-keyboard-response,244,289913,0.0-6.0-4.39,5009,,,,,make choice,3497,3,,,catch,sh,sw,l,229,154,213,234,222,224,trueblood,null,null,null,null,null,null,null,null,null,null,null,,180,200,260,200,36000,52000,"[1,3]"
,canvas-keyboard-response,245,290079,0.0-6.0-5.39,5009,,,,,clear_screen,null,null,,,catch,sh,sw,l,229,154,213,234,222,224,trueblood,null,null,null,null,null,null,null,null,null,null,null,,180,200,260,200,36000,52000,"[1,3]"
,canvas-keyboard-response,246,290296,0.0-6.0-0.40,5009,,,,,pre trial waiting period,null,null,,,critical,d,c,t,158.0083,227.1683,240,164,164,240,spektor,0.09,h,164,240,240,164,158.0083,227.1683,39360,39360,35894.4834,dc,null,null,null,null,null,null,"[1,2]"
,canvas-keyboard-response,247,290459,0.0-6.0-1.40,5009,,,,,clear_screen,null,null,,,critical,d,c,t,158.0083,227.1683,240,164,164,240,spektor,0.09,h,164,240,240,164,158.0083,227.1683,39360,39360,35894.4834,dc,null,null,null,null,null,null,"[1,2]"
,canvas-keyboard-response,248,291806,0.0-6.0-2.40,5009,,,,,rectangles,null,null,,,critical,d,c,t,158.0083,227.1683,240,164,164,240,spektor,0.09,h,164,240,240,164,158.0083,227.1683,39360,39360,35894.4834,dc,null,null,null,null,null,null,"[1,2]"
,canvas-keyboard-response,249,291976,0.0-6.0-3.40,5009,,,,,clear_screen,null,null,,,critical,d,c,t,158.0083,227.1683,240,164,164,240,spektor,0.09,h,164,240,240,164,158.0083,227.1683,39360,39360,35894.4834,dc,null,null,null,null,null,null,"[1,2]"
,canvas-keyboard-response,250,294729,0.0-6.0-4.40,5009,,,,,make choice,2733,2,,,critical,d,c,t,158.0083,227.1683,240,164,164,240,spektor,0.09,h,164,240,240,164,158.0083,227.1683,39360,39360,35894.4834,dc,null,null,null,null,null,null,"[1,2]"
,canvas-keyboard-response,251,294897,0.0-6.0-5.40,5009,,,,,clear_screen,null,null,,,critical,d,c,t,158.0083,227.1683,240,164,164,240,spektor,0.09,h,164,240,240,164,158.0083,227.1683,39360,39360,35894.4834,dc,null,null,null,null,null,null,"[1,2]"
,canvas-keyboard-response,252,295112,0.0-6.0-0.41,5009,,,,,pre trial waiting period,null,null,,,catch,sw,sh,l,180,200,223,187,235,202,trueblood,null,null,null,null,null,null,null,null,null,null,null,,180,200,260,200,36000,52000,"[2,3]"
,canvas-keyboard-response,253,295273,0.0-6.0-1.41,5009,,,,,clear_screen,null,null,,,catch,sw,sh,l,180,200,223,187,235,202,trueblood,null,null,null,null,null,null,null,null,null,null,null,,180,200,260,200,36000,52000,"[2,3]"
,canvas-keyboard-response,254,296617,0.0-6.0-2.41,5009,,,,,rectangles,null,null,,,catch,sw,sh,l,180,200,223,187,235,202,trueblood,null,null,null,null,null,null,null,null,null,null,null,,180,200,260,200,36000,52000,"[2,3]"
,canvas-keyboard-response,255,296785,0.0-6.0-3.41,5009,,,,,clear_screen,null,null,,,catch,sw,sh,l,180,200,223,187,235,202,trueblood,null,null,null,null,null,null,null,null,null,null,null,,180,200,260,200,36000,52000,"[2,3]"
,canvas-keyboard-response,256,297897,0.0-6.0-4.41,5009,,,,,make choice,1093,3,,,catch,sw,sh,l,180,200,223,187,235,202,trueblood,null,null,null,null,null,null,null,null,null,null,null,,180,200,260,200,36000,52000,"[2,3]"
,canvas-keyboard-response,257,298064,0.0-6.0-5.41,5009,,,,,clear_screen,null,null,,,catch,sw,sh,l,180,200,223,187,235,202,trueblood,null,null,null,null,null,null,null,null,null,null,null,,180,200,260,200,36000,52000,"[2,3]"
,canvas-keyboard-response,258,298280,0.0-6.0-0.42,5009,,,,,pre trial waiting period,null,null,,,critical,t,c,d,164,240,240,164,158.0083,227.1683,spektor,0.09,h,164,240,240,164,158.0083,227.1683,39360,39360,35894.4834,tc,null,null,null,null,null,null,"[1,2]"
,canvas-keyboard-response,259,298443,0.0-6.0-1.42,5009,,,,,clear_screen,null,null,,,critical,t,c,d,164,240,240,164,158.0083,227.1683,spektor,0.09,h,164,240,240,164,158.0083,227.1683,39360,39360,35894.4834,tc,null,null,null,null,null,null,"[1,2]"
,canvas-keyboard-response,260,299787,0.0-6.0-2.42,5009,,,,,rectangles,null,null,,,critical,t,c,d,164,240,240,164,158.0083,227.1683,spektor,0.09,h,164,240,240,164,158.0083,227.1683,39360,39360,35894.4834,tc,null,null,null,null,null,null,"[1,2]"
,canvas-keyboard-response,261,299957,0.0-6.0-3.42,5009,,,,,clear_screen,null,null,,,critical,t,c,d,164,240,240,164,158.0083,227.1683,spektor,0.09,h,164,240,240,164,158.0083,227.1683,39360,39360,35894.4834,tc,null,null,null,null,null,null,"[1,2]"
,canvas-keyboard-response,262,301001,0.0-6.0-4.42,5009,,,,,make choice,1028,1,,,critical,t,c,d,164,240,240,164,158.0083,227.1683,spektor,0.09,h,164,240,240,164,158.0083,227.1683,39360,39360,35894.4834,tc,null,null,null,null,null,null,"[1,2]"
,canvas-keyboard-response,263,301170,0.0-6.0-5.42,5009,,,,,clear_screen,null,null,,,critical,t,c,d,164,240,240,164,158.0083,227.1683,spektor,0.09,h,164,240,240,164,158.0083,227.1683,39360,39360,35894.4834,tc,null,null,null,null,null,null,"[1,2]"
,canvas-keyboard-response,264,301383,0.0-6.0-0.43,5009,,,,,pre trial waiting period,null,null,,,critical,d,c,t,227.1683,158.0083,164,240,240,164,trueblood,0.09,w,240,164,164,240,227.1683,158.0083,39360,39360,35894.4834,dc,null,null,null,null,null,null,"[1,2]"
,canvas-keyboard-response,265,301547,0.0-6.0-1.43,5009,,,,,clear_screen,null,null,,,critical,d,c,t,227.1683,158.0083,164,240,240,164,trueblood,0.09,w,240,164,164,240,227.1683,158.0083,39360,39360,35894.4834,dc,null,null,null,null,null,null,"[1,2]"
,canvas-keyboard-response,266,302891,0.0-6.0-2.43,5009,,,,,rectangles,null,null,,,critical,d,c,t,227.1683,158.0083,164,240,240,164,trueblood,0.09,w,240,164,164,240,227.1683,158.0083,39360,39360,35894.4834,dc,null,null,null,null,null,null,"[1,2]"
,canvas-keyboard-response,267,303061,0.0-6.0-3.43,5009,,,,,clear_screen,null,null,,,critical,d,c,t,227.1683,158.0083,164,240,240,164,trueblood,0.09,w,240,164,164,240,227.1683,158.0083,39360,39360,35894.4834,dc,null,null,null,null,null,null,"[1,2]"
,canvas-keyboard-response,268,305201,0.0-6.0-4.43,5009,,,,,make choice,2121,2,,,critical,d,c,t,227.1683,158.0083,164,240,240,164,trueblood,0.09,w,240,164,164,240,227.1683,158.0083,39360,39360,35894.4834,dc,null,null,null,null,null,null,"[1,2]"
,canvas-keyboard-response,269,305370,0.0-6.0-5.43,5009,,,,,clear_screen,null,null,,,critical,d,c,t,227.1683,158.0083,164,240,240,164,trueblood,0.09,w,240,164,164,240,227.1683,158.0083,39360,39360,35894.4834,dc,null,null,null,null,null,null,"[1,2]"
,canvas-keyboard-response,270,305589,0.0-6.0-0.44,5009,,,,,pre trial waiting period,null,null,,,catch,l,sh,sw,202,262,167,186,191,223,spektor,null,null,null,null,null,null,null,null,null,null,null,,180,200,260,200,36000,52000,"[1,3]"
,canvas-keyboard-response,271,305751,0.0-6.0-1.44,5009,,,,,clear_screen,null,null,,,catch,l,sh,sw,202,262,167,186,191,223,spektor,null,null,null,null,null,null,null,null,null,null,null,,180,200,260,200,36000,52000,"[1,3]"
,canvas-keyboard-response,272,307088,0.0-6.0-2.44,5009,,,,,rectangles,null,null,,,catch,l,sh,sw,202,262,167,186,191,223,spektor,null,null,null,null,null,null,null,null,null,null,null,,180,200,260,200,36000,52000,"[1,3]"
,canvas-keyboard-response,273,307259,0.0-6.0-3.44,5009,,,,,clear_screen,null,null,,,catch,l,sh,sw,202,262,167,186,191,223,spektor,null,null,null,null,null,null,null,null,null,null,null,,180,200,260,200,36000,52000,"[1,3]"
,canvas-keyboard-response,274,308104,0.0-6.0-4.44,5009,,,,,make choice,825,1,,,catch,l,sh,sw,202,262,167,186,191,223,spektor,null,null,null,null,null,null,null,null,null,null,null,,180,200,260,200,36000,52000,"[1,3]"
,canvas-keyboard-response,275,308275,0.0-6.0-5.44,5009,,,,,clear_screen,null,null,,,catch,l,sh,sw,202,262,167,186,191,223,spektor,null,null,null,null,null,null,null,null,null,null,null,,180,200,260,200,36000,52000,"[1,3]"
,canvas-keyboard-response,276,308493,0.0-6.0-0.45,5009,,,,,pre trial waiting period,null,null,,,critical,t,c,d,240,164,164,240,232.8713,160.6713,spektor,0.05,w,240,164,164,240,232.8713,160.6713,39360,39360,37415.7294,dc,null,null,null,null,null,null,"[3,2]"
,canvas-keyboard-response,277,308653,0.0-6.0-1.45,5009,,,,,clear_screen,null,null,,,critical,t,c,d,240,164,164,240,232.8713,160.6713,spektor,0.05,w,240,164,164,240,232.8713,160.6713,39360,39360,37415.7294,dc,null,null,null,null,null,null,"[3,2]"
,canvas-keyboard-response,278,309998,0.0-6.0-2.45,5009,,,,,rectangles,null,null,,,critical,t,c,d,240,164,164,240,232.8713,160.6713,spektor,0.05,w,240,164,164,240,232.8713,160.6713,39360,39360,37415.7294,dc,null,null,null,null,null,null,"[3,2]"
,canvas-keyboard-response,279,310167,0.0-6.0-3.45,5009,,,,,clear_screen,null,null,,,critical,t,c,d,240,164,164,240,232.8713,160.6713,spektor,0.05,w,240,164,164,240,232.8713,160.6713,39360,39360,37415.7294,dc,null,null,null,null,null,null,"[3,2]"
,canvas-keyboard-response,280,310833,0.0-6.0-4.45,5009,,,,,make choice,646,2,,,critical,t,c,d,240,164,164,240,232.8713,160.6713,spektor,0.05,w,240,164,164,240,232.8713,160.6713,39360,39360,37415.7294,dc,null,null,null,null,null,null,"[3,2]"
,canvas-keyboard-response,281,311005,0.0-6.0-5.45,5009,,,,,clear_screen,null,null,,,critical,t,c,d,240,164,164,240,232.8713,160.6713,spektor,0.05,w,240,164,164,240,232.8713,160.6713,39360,39360,37415.7294,dc,null,null,null,null,null,null,"[3,2]"
,canvas-keyboard-response,282,311223,0.0-6.0-0.46,5009,,,,,pre trial waiting period,null,null,,,catch,sw,sh,l,180,200,185,215,261,238,spektor,null,null,null,null,null,null,null,null,null,null,null,,180,200,260,200,36000,52000,"[1,3]"
,canvas-keyboard-response,283,311383,0.0-6.0-1.46,5009,,,,,clear_screen,null,null,,,catch,sw,sh,l,180,200,185,215,261,238,spektor,null,null,null,null,null,null,null,null,null,null,null,,180,200,260,200,36000,52000,"[1,3]"
,canvas-keyboard-response,284,312729,0.0-6.0-2.46,5009,,,,,rectangles,null,null,,,catch,sw,sh,l,180,200,185,215,261,238,spektor,null,null,null,null,null,null,null,null,null,null,null,,180,200,260,200,36000,52000,"[1,3]"
,canvas-keyboard-response,285,312898,0.0-6.0-3.46,5009,,,,,clear_screen,null,null,,,catch,sw,sh,l,180,200,185,215,261,238,spektor,null,null,null,null,null,null,null,null,null,null,null,,180,200,260,200,36000,52000,"[1,3]"
,canvas-keyboard-response,286,313777,0.0-6.0-4.46,5009,,,,,make choice,860,3,,,catch,sw,sh,l,180,200,185,215,261,238,spektor,null,null,null,null,null,null,null,null,null,null,null,,180,200,260,200,36000,52000,"[1,3]"
,canvas-keyboard-response,287,313946,0.0-6.0-5.46,5009,,,,,clear_screen,null,null,,,catch,sw,sh,l,180,200,185,215,261,238,spektor,null,null,null,null,null,null,null,null,null,null,null,,180,200,260,200,36000,52000,"[1,3]"
,canvas-keyboard-response,288,314164,0.0-6.0-0.47,5009,,,,,pre trial waiting period,null,null,,,critical,d,t,c,164,240,164,240,240,164,spektor,0,h,164,240,240,164,164,240,39360,39360,39360,dc,null,null,null,null,null,null,"[1,3]"
,canvas-keyboard-response,289,314325,0.0-6.0-1.47,5009,,,,,clear_screen,null,null,,,critical,d,t,c,164,240,164,240,240,164,spektor,0,h,164,240,240,164,164,240,39360,39360,39360,dc,null,null,null,null,null,null,"[1,3]"
,canvas-keyboard-response,290,315672,0.0-6.0-2.47,5009,,,,,rectangles,null,null,,,critical,d,t,c,164,240,164,240,240,164,spektor,0,h,164,240,240,164,164,240,39360,39360,39360,dc,null,null,null,null,null,null,"[1,3]"
,canvas-keyboard-response,291,315842,0.0-6.0-3.47,5009,,,,,clear_screen,null,null,,,critical,d,t,c,164,240,164,240,240,164,spektor,0,h,164,240,240,164,164,240,39360,39360,39360,dc,null,null,null,null,null,null,"[1,3]"
,canvas-keyboard-response,292,318209,0.0-6.0-4.47,5009,,,,,make choice,2350,1,,,critical,d,t,c,164,240,164,240,240,164,spektor,0,h,164,240,240,164,164,240,39360,39360,39360,dc,null,null,null,null,null,null,"[1,3]"
,canvas-keyboard-response,293,318378,0.0-6.0-5.47,5009,,,,,clear_screen,null,null,,,critical,d,t,c,164,240,164,240,240,164,spektor,0,h,164,240,240,164,164,240,39360,39360,39360,dc,null,null,null,null,null,null,"[1,3]"
,canvas-keyboard-response,294,318594,0.0-6.0-0.48,5009,,,,,pre trial waiting period,null,null,,,catch,sh,sw,l,160,167,144,211,295,222,trueblood,null,null,null,null,null,null,null,null,null,null,null,,180,200,260,200,36000,52000,"[2,3]"
,canvas-keyboard-response,295,318756,0.0-6.0-1.48,5009,,,,,clear_screen,null,null,,,catch,sh,sw,l,160,167,144,211,295,222,trueblood,null,null,null,null,null,null,null,null,null,null,null,,180,200,260,200,36000,52000,"[2,3]"
,canvas-keyboard-response,296,320103,0.0-6.0-2.48,5009,,,,,rectangles,null,null,,,catch,sh,sw,l,160,167,144,211,295,222,trueblood,null,null,null,null,null,null,null,null,null,null,null,,180,200,260,200,36000,52000,"[2,3]"
,canvas-keyboard-response,297,320272,0.0-6.0-3.48,5009,,,,,clear_screen,null,null,,,catch,sh,sw,l,160,167,144,211,295,222,trueblood,null,null,null,null,null,null,null,null,null,null,null,,180,200,260,200,36000,52000,"[2,3]"
,canvas-keyboard-response,298,321384,0.0-6.0-4.48,5009,,,,,make choice,1092,3,,,catch,sh,sw,l,160,167,144,211,295,222,trueblood,null,null,null,null,null,null,null,null,null,null,null,,180,200,260,200,36000,52000,"[2,3]"
,canvas-keyboard-response,299,321555,0.0-6.0-5.48,5009,,,,,clear_screen,null,null,,,catch,sh,sw,l,160,167,144,211,295,222,trueblood,null,null,null,null,null,null,null,null,null,null,null,,180,200,260,200,36000,52000,"[2,3]"
,canvas-keyboard-response,300,321774,0.0-6.0-0.49,5009,,,,,pre trial waiting period,null,null,,,critical,d,t,c,232.8713,160.6713,240,164,164,240,trueblood,0.05,w,240,164,164,240,232.8713,160.6713,39360,39360,37415.7294,dc,null,null,null,null,null,null,"[1,3]"
,canvas-keyboard-response,301,321936,0.0-6.0-1.49,5009,,,,,clear_screen,null,null,,,critical,d,t,c,232.8713,160.6713,240,164,164,240,trueblood,0.05,w,240,164,164,240,232.8713,160.6713,39360,39360,37415.7294,dc,null,null,null,null,null,null,"[1,3]"
,canvas-keyboard-response,302,323283,0.0-6.0-2.49,5009,,,,,rectangles,null,null,,,critical,d,t,c,232.8713,160.6713,240,164,164,240,trueblood,0.05,w,240,164,164,240,232.8713,160.6713,39360,39360,37415.7294,dc,null,null,null,null,null,null,"[1,3]"
,canvas-keyboard-response,303,323455,0.0-6.0-3.49,5009,,,,,clear_screen,null,null,,,critical,d,t,c,232.8713,160.6713,240,164,164,240,trueblood,0.05,w,240,164,164,240,232.8713,160.6713,39360,39360,37415.7294,dc,null,null,null,null,null,null,"[1,3]"
,canvas-keyboard-response,304,327753,0.0-6.0-4.49,5009,,,,,make choice,4278,3,,,critical,d,t,c,232.8713,160.6713,240,164,164,240,trueblood,0.05,w,240,164,164,240,232.8713,160.6713,39360,39360,37415.7294,dc,null,null,null,null,null,null,"[1,3]"
,canvas-keyboard-response,305,327916,0.0-6.0-5.49,5009,,,,,clear_screen,null,null,,,critical,d,t,c,232.8713,160.6713,240,164,164,240,trueblood,0.05,w,240,164,164,240,232.8713,160.6713,39360,39360,37415.7294,dc,null,null,null,null,null,null,"[1,3]"
,canvas-keyboard-response,306,328133,0.0-6.0-0.50,5009,,,,,pre trial waiting period,null,null,,,catch,sw,l,sh,180,200,283,233,232,170,spektor,null,null,null,null,null,null,null,null,null,null,null,,180,200,260,200,36000,52000,"[1,2]"
,canvas-keyboard-response,307,328294,0.0-6.0-1.50,5009,,,,,clear_screen,null,null,,,catch,sw,l,sh,180,200,283,233,232,170,spektor,null,null,null,null,null,null,null,null,null,null,null,,180,200,260,200,36000,52000,"[1,2]"
,canvas-keyboard-response,308,329641,0.0-6.0-2.50,5009,,,,,rectangles,null,null,,,catch,sw,l,sh,180,200,283,233,232,170,spektor,null,null,null,null,null,null,null,null,null,null,null,,180,200,260,200,36000,52000,"[1,2]"
,canvas-keyboard-response,309,329815,0.0-6.0-3.50,5009,,,,,clear_screen,null,null,,,catch,sw,l,sh,180,200,283,233,232,170,spektor,null,null,null,null,null,null,null,null,null,null,null,,180,200,260,200,36000,52000,"[1,2]"
,canvas-keyboard-response,310,330745,0.0-6.0-4.50,5009,,,,,make choice,912,2,,,catch,sw,l,sh,180,200,283,233,232,170,spektor,null,null,null,null,null,null,null,null,null,null,null,,180,200,260,200,36000,52000,"[1,2]"
,canvas-keyboard-response,311,330914,0.0-6.0-5.50,5009,,,,,clear_screen,null,null,,,catch,sw,l,sh,180,200,283,233,232,170,spektor,null,null,null,null,null,null,null,null,null,null,null,,180,200,260,200,36000,52000,"[1,2]"
,canvas-keyboard-response,312,331130,0.0-6.0-0.51,5009,,,,,pre trial waiting period,null,null,,,catch,l,sh,sw,197,272,188,215,188,227,trueblood,null,null,null,null,null,null,null,null,null,null,null,,180,200,260,200,36000,52000,"[1,2]"
,canvas-keyboard-response,313,331288,0.0-6.0-1.51,5009,,,,,clear_screen,null,null,,,catch,l,sh,sw,197,272,188,215,188,227,trueblood,null,null,null,null,null,null,null,null,null,null,null,,180,200,260,200,36000,52000,"[1,2]"
,canvas-keyboard-response,314,332632,0.0-6.0-2.51,5009,,,,,rectangles,null,null,,,catch,l,sh,sw,197,272,188,215,188,227,trueblood,null,null,null,null,null,null,null,null,null,null,null,,180,200,260,200,36000,52000,"[1,2]"
,canvas-keyboard-response,315,332803,0.0-6.0-3.51,5009,,,,,clear_screen,null,null,,,catch,l,sh,sw,197,272,188,215,188,227,trueblood,null,null,null,null,null,null,null,null,null,null,null,,180,200,260,200,36000,52000,"[1,2]"
,canvas-keyboard-response,316,333969,0.0-6.0-4.51,5009,,,,,make choice,1143,1,,,catch,l,sh,sw,197,272,188,215,188,227,trueblood,null,null,null,null,null,null,null,null,null,null,null,,180,200,260,200,36000,52000,"[1,2]"
,canvas-keyboard-response,317,334136,0.0-6.0-5.51,5009,,,,,clear_screen,null,null,,,catch,l,sh,sw,197,272,188,215,188,227,trueblood,null,null,null,null,null,null,null,null,null,null,null,,180,200,260,200,36000,52000,"[1,2]"
,canvas-keyboard-response,318,334354,0.0-6.0-0.52,5009,,,,,pre trial waiting period,null,null,,,catch,l,sh,sw,269,229,170,203,162,168,trueblood,null,null,null,null,null,null,null,null,null,null,null,,180,200,260,200,36000,52000,"[1,3]"
,canvas-keyboard-response,319,334514,0.0-6.0-1.52,5009,,,,,clear_screen,null,null,,,catch,l,sh,sw,269,229,170,203,162,168,trueblood,null,null,null,null,null,null,null,null,null,null,null,,180,200,260,200,36000,52000,"[1,3]"
,canvas-keyboard-response,320,335859,0.0-6.0-2.52,5009,,,,,rectangles,null,null,,,catch,l,sh,sw,269,229,170,203,162,168,trueblood,null,null,null,null,null,null,null,null,null,null,null,,180,200,260,200,36000,52000,"[1,3]"
,canvas-keyboard-response,321,336031,0.0-6.0-3.52,5009,,,,,clear_screen,null,null,,,catch,l,sh,sw,269,229,170,203,162,168,trueblood,null,null,null,null,null,null,null,null,null,null,null,,180,200,260,200,36000,52000,"[1,3]"
,canvas-keyboard-response,322,337512,0.0-6.0-4.52,5009,,,,,make choice,1463,1,,,catch,l,sh,sw,269,229,170,203,162,168,trueblood,null,null,null,null,null,null,null,null,null,null,null,,180,200,260,200,36000,52000,"[1,3]"
,canvas-keyboard-response,323,337684,0.0-6.0-5.52,5009,,,,,clear_screen,null,null,,,catch,l,sh,sw,269,229,170,203,162,168,trueblood,null,null,null,null,null,null,null,null,null,null,null,,180,200,260,200,36000,52000,"[1,3]"
,canvas-keyboard-response,324,337901,0.0-6.0-0.53,5009,,,,,pre trial waiting period,null,null,,,critical,c,t,d,240,164,164,240,160.6713,232.8713,spektor,0.05,h,164,240,240,164,160.6713,232.8713,39360,39360,37415.7294,dc,null,null,null,null,null,null,"[3,1]"
,canvas-keyboard-response,325,338063,0.0-6.0-1.53,5009,,,,,clear_screen,null,null,,,critical,c,t,d,240,164,164,240,160.6713,232.8713,spektor,0.05,h,164,240,240,164,160.6713,232.8713,39360,39360,37415.7294,dc,null,null,null,null,null,null,"[3,1]"
,canvas-keyboard-response,326,339412,0.0-6.0-2.53,5009,,,,,rectangles,null,null,,,critical,c,t,d,240,164,164,240,160.6713,232.8713,spektor,0.05,h,164,240,240,164,160.6713,232.8713,39360,39360,37415.7294,dc,null,null,null,null,null,null,"[3,1]"
,canvas-keyboard-response,327,339584,0.0-6.0-3.53,5009,,,,,clear_screen,null,null,,,critical,c,t,d,240,164,164,240,160.6713,232.8713,spektor,0.05,h,164,240,240,164,160.6713,232.8713,39360,39360,37415.7294,dc,null,null,null,null,null,null,"[3,1]"
,canvas-keyboard-response,328,341673,0.0-6.0-4.53,5009,,,,,make choice,2070,3,,,critical,c,t,d,240,164,164,240,160.6713,232.8713,spektor,0.05,h,164,240,240,164,160.6713,232.8713,39360,39360,37415.7294,dc,null,null,null,null,null,null,"[3,1]"
,canvas-keyboard-response,329,341842,0.0-6.0-5.53,5009,,,,,clear_screen,null,null,,,critical,c,t,d,240,164,164,240,160.6713,232.8713,spektor,0.05,h,164,240,240,164,160.6713,232.8713,39360,39360,37415.7294,dc,null,null,null,null,null,null,"[3,1]"
,canvas-keyboard-response,330,342061,0.0-6.0-0.54,5009,,,,,pre trial waiting period,null,null,,,critical,c,d,t,164,240,220.0396,154.6796,240,164,spektor,0.14,w,240,164,164,240,220.0396,154.6796,39360,39360,34035.6388,tc,null,null,null,null,null,null,"[3,1]"
,canvas-keyboard-response,331,342220,0.0-6.0-1.54,5009,,,,,clear_screen,null,null,,,critical,c,d,t,164,240,220.0396,154.6796,240,164,spektor,0.14,w,240,164,164,240,220.0396,154.6796,39360,39360,34035.6388,tc,null,null,null,null,null,null,"[3,1]"
,canvas-keyboard-response,332,343567,0.0-6.0-2.54,5009,,,,,rectangles,null,null,,,critical,c,d,t,164,240,220.0396,154.6796,240,164,spektor,0.14,w,240,164,164,240,220.0396,154.6796,39360,39360,34035.6388,tc,null,null,null,null,null,null,"[3,1]"
,canvas-keyboard-response,333,343736,0.0-6.0-3.54,5009,,,,,clear_screen,null,null,,,critical,c,d,t,164,240,220.0396,154.6796,240,164,spektor,0.14,w,240,164,164,240,220.0396,154.6796,39360,39360,34035.6388,tc,null,null,null,null,null,null,"[3,1]"
,canvas-keyboard-response,334,346601,0.0-6.0-4.54,5009,,,,,make choice,2843,3,,,critical,c,d,t,164,240,220.0396,154.6796,240,164,spektor,0.14,w,240,164,164,240,220.0396,154.6796,39360,39360,34035.6388,tc,null,null,null,null,null,null,"[3,1]"
,canvas-keyboard-response,335,346771,0.0-6.0-5.54,5009,,,,,clear_screen,null,null,,,critical,c,d,t,164,240,220.0396,154.6796,240,164,spektor,0.14,w,240,164,164,240,220.0396,154.6796,39360,39360,34035.6388,tc,null,null,null,null,null,null,"[3,1]"
,canvas-keyboard-response,336,346990,0.0-6.0-0.55,5009,,,,,pre trial waiting period,null,null,,,critical,c,t,d,164,240,240,164,227.1683,158.0083,spektor,0.09,w,240,164,164,240,227.1683,158.0083,39360,39360,35894.4834,tc,null,null,null,null,null,null,"[2,1]"
,canvas-keyboard-response,337,347152,0.0-6.0-1.55,5009,,,,,clear_screen,null,null,,,critical,c,t,d,164,240,240,164,227.1683,158.0083,spektor,0.09,w,240,164,164,240,227.1683,158.0083,39360,39360,35894.4834,tc,null,null,null,null,null,null,"[2,1]"
,canvas-keyboard-response,338,348500,0.0-6.0-2.55,5009,,,,,rectangles,null,null,,,critical,c,t,d,164,240,240,164,227.1683,158.0083,spektor,0.09,w,240,164,164,240,227.1683,158.0083,39360,39360,35894.4834,tc,null,null,null,null,null,null,"[2,1]"
,canvas-keyboard-response,339,348670,0.0-6.0-3.55,5009,,,,,clear_screen,null,null,,,critical,c,t,d,164,240,240,164,227.1683,158.0083,spektor,0.09,w,240,164,164,240,227.1683,158.0083,39360,39360,35894.4834,tc,null,null,null,null,null,null,"[2,1]"
,canvas-keyboard-response,340,350682,0.0-6.0-4.55,5009,,,,,make choice,1989,1,,,critical,c,t,d,164,240,240,164,227.1683,158.0083,spektor,0.09,w,240,164,164,240,227.1683,158.0083,39360,39360,35894.4834,tc,null,null,null,null,null,null,"[2,1]"
,canvas-keyboard-response,341,350853,0.0-6.0-5.55,5009,,,,,clear_screen,null,null,,,critical,c,t,d,164,240,240,164,227.1683,158.0083,spektor,0.09,w,240,164,164,240,227.1683,158.0083,39360,39360,35894.4834,tc,null,null,null,null,null,null,"[2,1]"
,canvas-keyboard-response,342,351074,0.0-6.0-0.56,5009,,,,,pre trial waiting period,null,null,,,catch,sw,sh,l,180,200,204,205,225,228,trueblood,null,null,null,null,null,null,null,null,null,null,null,,180,200,260,200,36000,52000,"[2,3]"
,canvas-keyboard-response,343,351232,0.0-6.0-1.56,5009,,,,,clear_screen,null,null,,,catch,sw,sh,l,180,200,204,205,225,228,trueblood,null,null,null,null,null,null,null,null,null,null,null,,180,200,260,200,36000,52000,"[2,3]"
,canvas-keyboard-response,344,352579,0.0-6.0-2.56,5009,,,,,rectangles,null,null,,,catch,sw,sh,l,180,200,204,205,225,228,trueblood,null,null,null,null,null,null,null,null,null,null,null,,180,200,260,200,36000,52000,"[2,3]"
,canvas-keyboard-response,345,352751,0.0-6.0-3.56,5009,,,,,clear_screen,null,null,,,catch,sw,sh,l,180,200,204,205,225,228,trueblood,null,null,null,null,null,null,null,null,null,null,null,,180,200,260,200,36000,52000,"[2,3]"
,canvas-keyboard-response,346,354121,0.0-6.0-4.56,5009,,,,,make choice,1348,3,,,catch,sw,sh,l,180,200,204,205,225,228,trueblood,null,null,null,null,null,null,null,null,null,null,null,,180,200,260,200,36000,52000,"[2,3]"
,canvas-keyboard-response,347,354292,0.0-6.0-5.56,5009,,,,,clear_screen,null,null,,,catch,sw,sh,l,180,200,204,205,225,228,trueblood,null,null,null,null,null,null,null,null,null,null,null,,180,200,260,200,36000,52000,"[2,3]"
,canvas-keyboard-response,348,354511,0.0-6.0-0.57,5009,,,,,pre trial waiting period,null,null,,,critical,t,d,c,240,164,220.0396,154.6796,164,240,trueblood,0.14,w,240,164,164,240,220.0396,154.6796,39360,39360,34035.6388,td,null,null,null,null,null,null,"[1,2]"
,canvas-keyboard-response,349,354671,0.0-6.0-1.57,5009,,,,,clear_screen,null,null,,,critical,t,d,c,240,164,220.0396,154.6796,164,240,trueblood,0.14,w,240,164,164,240,220.0396,154.6796,39360,39360,34035.6388,td,null,null,null,null,null,null,"[1,2]"
,canvas-keyboard-response,350,356017,0.0-6.0-2.57,5009,,,,,rectangles,null,null,,,critical,t,d,c,240,164,220.0396,154.6796,164,240,trueblood,0.14,w,240,164,164,240,220.0396,154.6796,39360,39360,34035.6388,td,null,null,null,null,null,null,"[1,2]"
,canvas-keyboard-response,351,356191,0.0-6.0-3.57,5009,,,,,clear_screen,null,null,,,critical,t,d,c,240,164,220.0396,154.6796,164,240,trueblood,0.14,w,240,164,164,240,220.0396,154.6796,39360,39360,34035.6388,td,null,null,null,null,null,null,"[1,2]"
,canvas-keyboard-response,352,357225,0.0-6.0-4.57,5009,,,,,make choice,1011,1,,,critical,t,d,c,240,164,220.0396,154.6796,164,240,trueblood,0.14,w,240,164,164,240,220.0396,154.6796,39360,39360,34035.6388,td,null,null,null,null,null,null,"[1,2]"
,canvas-keyboard-response,353,357394,0.0-6.0-5.57,5009,,,,,clear_screen,null,null,,,critical,t,d,c,240,164,220.0396,154.6796,164,240,trueblood,0.14,w,240,164,164,240,220.0396,154.6796,39360,39360,34035.6388,td,null,null,null,null,null,null,"[1,2]"
,canvas-keyboard-response,354,357612,0.0-6.0-0.58,5009,,,,,pre trial waiting period,null,null,,,catch,l,sw,sh,237,235,141,216,192,151,spektor,null,null,null,null,null,null,null,null,null,null,null,,180,200,260,200,36000,52000,"[1,2]"
,canvas-keyboard-response,355,357771,0.0-6.0-1.58,5009,,,,,clear_screen,null,null,,,catch,l,sw,sh,237,235,141,216,192,151,spektor,null,null,null,null,null,null,null,null,null,null,null,,180,200,260,200,36000,52000,"[1,2]"
,canvas-keyboard-response,356,359120,0.0-6.0-2.58,5009,,,,,rectangles,null,null,,,catch,l,sw,sh,237,235,141,216,192,151,spektor,null,null,null,null,null,null,null,null,null,null,null,,180,200,260,200,36000,52000,"[1,2]"
,canvas-keyboard-response,357,359293,0.0-6.0-3.58,5009,,,,,clear_screen,null,null,,,catch,l,sw,sh,237,235,141,216,192,151,spektor,null,null,null,null,null,null,null,null,null,null,null,,180,200,260,200,36000,52000,"[1,2]"
,canvas-keyboard-response,358,361017,0.0-6.0-4.58,5009,,,,,make choice,1705,1,,,catch,l,sw,sh,237,235,141,216,192,151,spektor,null,null,null,null,null,null,null,null,null,null,null,,180,200,260,200,36000,52000,"[1,2]"
,canvas-keyboard-response,359,361189,0.0-6.0-5.58,5009,,,,,clear_screen,null,null,,,catch,l,sw,sh,237,235,141,216,192,151,spektor,null,null,null,null,null,null,null,null,null,null,null,,180,200,260,200,36000,52000,"[1,2]"
,canvas-keyboard-response,360,361408,0.0-6.0-0.59,5009,,,,,pre trial waiting period,null,null,,,critical,t,c,d,164,240,240,164,162.6685,237.1485,spektor,0.02,h,164,240,240,164,162.6685,237.1485,39360,39360,38576.5967,dc,null,null,null,null,null,null,"[3,2]"
,canvas-keyboard-response,361,361568,0.0-6.0-1.59,5009,,,,,clear_screen,null,null,,,critical,t,c,d,164,240,240,164,162.6685,237.1485,spektor,0.02,h,164,240,240,164,162.6685,237.1485,39360,39360,38576.5967,dc,null,null,null,null,null,null,"[3,2]"
,canvas-keyboard-response,362,362916,0.0-6.0-2.59,5009,,,,,rectangles,null,null,,,critical,t,c,d,164,240,240,164,162.6685,237.1485,spektor,0.02,h,164,240,240,164,162.6685,237.1485,39360,39360,38576.5967,dc,null,null,null,null,null,null,"[3,2]"
,canvas-keyboard-response,363,363089,0.0-6.0-3.59,5009,,,,,clear_screen,null,null,,,critical,t,c,d,164,240,240,164,162.6685,237.1485,spektor,0.02,h,164,240,240,164,162.6685,237.1485,39360,39360,38576.5967,dc,null,null,null,null,null,null,"[3,2]"
,canvas-keyboard-response,364,364721,0.0-6.0-4.59,5009,,,,,make choice,1612,3,,,critical,t,c,d,164,240,240,164,162.6685,237.1485,spektor,0.02,h,164,240,240,164,162.6685,237.1485,39360,39360,38576.5967,dc,null,null,null,null,null,null,"[3,2]"
,canvas-keyboard-response,365,364893,0.0-6.0-5.59,5009,,,,,clear_screen,null,null,,,critical,t,c,d,164,240,240,164,162.6685,237.1485,spektor,0.02,h,164,240,240,164,162.6685,237.1485,39360,39360,38576.5967,dc,null,null,null,null,null,null,"[3,2]"
,canvas-keyboard-response,366,365111,0.0-6.0-0.60,5009,,,,,pre trial waiting period,null,null,,,critical,t,c,d,240,164,164,240,237.1485,162.6685,spektor,0.02,w,240,164,164,240,237.1485,162.6685,39360,39360,38576.5967,dc,null,null,null,null,null,null,"[3,2]"
,canvas-keyboard-response,367,365268,0.0-6.0-1.60,5009,,,,,clear_screen,null,null,,,critical,t,c,d,240,164,164,240,237.1485,162.6685,spektor,0.02,w,240,164,164,240,237.1485,162.6685,39360,39360,38576.5967,dc,null,null,null,null,null,null,"[3,2]"
,canvas-keyboard-response,368,366617,0.0-6.0-2.60,5009,,,,,rectangles,null,null,,,critical,t,c,d,240,164,164,240,237.1485,162.6685,spektor,0.02,w,240,164,164,240,237.1485,162.6685,39360,39360,38576.5967,dc,null,null,null,null,null,null,"[3,2]"
,canvas-keyboard-response,369,366791,0.0-6.0-3.60,5009,,,,,clear_screen,null,null,,,critical,t,c,d,240,164,164,240,237.1485,162.6685,spektor,0.02,w,240,164,164,240,237.1485,162.6685,39360,39360,38576.5967,dc,null,null,null,null,null,null,"[3,2]"
,canvas-keyboard-response,370,367585,0.0-6.0-4.60,5009,,,,,make choice,773,2,,,critical,t,c,d,240,164,164,240,237.1485,162.6685,spektor,0.02,w,240,164,164,240,237.1485,162.6685,39360,39360,38576.5967,dc,null,null,null,null,null,null,"[3,2]"
,canvas-keyboard-response,371,367756,0.0-6.0-5.60,5009,,,,,clear_screen,null,null,,,critical,t,c,d,240,164,164,240,237.1485,162.6685,spektor,0.02,w,240,164,164,240,237.1485,162.6685,39360,39360,38576.5967,dc,null,null,null,null,null,null,"[3,2]"
,canvas-keyboard-response,372,367967,0.0-6.0-0.61,5009,,,,,pre trial waiting period,null,null,,,catch,l,sh,sw,242,238,175,210,174,210,spektor,null,null,null,null,null,null,null,null,null,null,null,,180,200,260,200,36000,52000,"[1,2]"
,canvas-keyboard-response,373,368126,0.0-6.0-1.61,5009,,,,,clear_screen,null,null,,,catch,l,sh,sw,242,238,175,210,174,210,spektor,null,null,null,null,null,null,null,null,null,null,null,,180,200,260,200,36000,52000,"[1,2]"
,canvas-keyboard-response,374,369470,0.0-6.0-2.61,5009,,,,,rectangles,null,null,,,catch,l,sh,sw,242,238,175,210,174,210,spektor,null,null,null,null,null,null,null,null,null,null,null,,180,200,260,200,36000,52000,"[1,2]"
,canvas-keyboard-response,375,369647,0.0-6.0-3.61,5009,,,,,clear_screen,null,null,,,catch,l,sh,sw,242,238,175,210,174,210,spektor,null,null,null,null,null,null,null,null,null,null,null,,180,200,260,200,36000,52000,"[1,2]"
,canvas-keyboard-response,376,372362,0.0-6.0-4.61,5009,,,,,make choice,2692,1,,,catch,l,sh,sw,242,238,175,210,174,210,spektor,null,null,null,null,null,null,null,null,null,null,null,,180,200,260,200,36000,52000,"[1,2]"
,canvas-keyboard-response,377,372532,0.0-6.0-5.61,5009,,,,,clear_screen,null,null,,,catch,l,sh,sw,242,238,175,210,174,210,spektor,null,null,null,null,null,null,null,null,null,null,null,,180,200,260,200,36000,52000,"[1,2]"
,canvas-keyboard-response,378,372751,0.0-6.0-0.62,5009,,,,,pre trial waiting period,null,null,,,critical,t,d,c,164,240,160.6713,232.8713,240,164,spektor,0.05,h,164,240,240,164,160.6713,232.8713,39360,39360,37415.7294,tc,null,null,null,null,null,null,"[1,3]"
,canvas-keyboard-response,379,372915,0.0-6.0-1.62,5009,,,,,clear_screen,null,null,,,critical,t,d,c,164,240,160.6713,232.8713,240,164,spektor,0.05,h,164,240,240,164,160.6713,232.8713,39360,39360,37415.7294,tc,null,null,null,null,null,null,"[1,3]"
,canvas-keyboard-response,380,374263,0.0-6.0-2.62,5009,,,,,rectangles,null,null,,,critical,t,d,c,164,240,160.6713,232.8713,240,164,spektor,0.05,h,164,240,240,164,160.6713,232.8713,39360,39360,37415.7294,tc,null,null,null,null,null,null,"[1,3]"
,canvas-keyboard-response,381,374436,0.0-6.0-3.62,5009,,,,,clear_screen,null,null,,,critical,t,d,c,164,240,160.6713,232.8713,240,164,spektor,0.05,h,164,240,240,164,160.6713,232.8713,39360,39360,37415.7294,tc,null,null,null,null,null,null,"[1,3]"
,canvas-keyboard-response,382,377225,0.0-6.0-4.62,5009,,,,,make choice,2767,3,,,critical,t,d,c,164,240,160.6713,232.8713,240,164,spektor,0.05,h,164,240,240,164,160.6713,232.8713,39360,39360,37415.7294,tc,null,null,null,null,null,null,"[1,3]"
,canvas-keyboard-response,383,377397,0.0-6.0-5.62,5009,,,,,clear_screen,null,null,,,critical,t,d,c,164,240,160.6713,232.8713,240,164,spektor,0.05,h,164,240,240,164,160.6713,232.8713,39360,39360,37415.7294,tc,null,null,null,null,null,null,"[1,3]"
,canvas-keyboard-response,384,377618,0.0-6.0-0.63,5009,,,,,pre trial waiting period,null,null,,,critical,t,c,d,164,240,240,164,164,240,trueblood,0,h,164,240,240,164,164,240,39360,39360,39360,dc,null,null,null,null,null,null,"[3,2]"
,canvas-keyboard-response,385,377778,0.0-6.0-1.63,5009,,,,,clear_screen,null,null,,,critical,t,c,d,164,240,240,164,164,240,trueblood,0,h,164,240,240,164,164,240,39360,39360,39360,dc,null,null,null,null,null,null,"[3,2]"
,canvas-keyboard-response,386,379125,0.0-6.0-2.63,5009,,,,,rectangles,null,null,,,critical,t,c,d,164,240,240,164,164,240,trueblood,0,h,164,240,240,164,164,240,39360,39360,39360,dc,null,null,null,null,null,null,"[3,2]"
,canvas-keyboard-response,387,379296,0.0-6.0-3.63,5009,,,,,clear_screen,null,null,,,critical,t,c,d,164,240,240,164,164,240,trueblood,0,h,164,240,240,164,164,240,39360,39360,39360,dc,null,null,null,null,null,null,"[3,2]"
,canvas-keyboard-response,388,382745,0.0-6.0-4.63,5009,,,,,make choice,3427,2,,,critical,t,c,d,164,240,240,164,164,240,trueblood,0,h,164,240,240,164,164,240,39360,39360,39360,dc,null,null,null,null,null,null,"[3,2]"
,canvas-keyboard-response,389,382915,0.0-6.0-5.63,5009,,,,,clear_screen,null,null,,,critical,t,c,d,164,240,240,164,164,240,trueblood,0,h,164,240,240,164,164,240,39360,39360,39360,dc,null,null,null,null,null,null,"[3,2]"
,canvas-keyboard-response,390,383136,0.0-6.0-0.64,5009,,,,,pre trial waiting period,null,null,,,critical,d,t,c,240,164,240,164,164,240,spektor,0,w,240,164,164,240,240,164,39360,39360,39360,dc,null,null,null,null,null,null,"[1,3]"
,canvas-keyboard-response,391,383292,0.0-6.0-1.64,5009,,,,,clear_screen,null,null,,,critical,d,t,c,240,164,240,164,164,240,spektor,0,w,240,164,164,240,240,164,39360,39360,39360,dc,null,null,null,null,null,null,"[1,3]"
,canvas-keyboard-response,392,384641,0.0-6.0-2.64,5009,,,,,rectangles,null,null,,,critical,d,t,c,240,164,240,164,164,240,spektor,0,w,240,164,164,240,240,164,39360,39360,39360,dc,null,null,null,null,null,null,"[1,3]"
,canvas-keyboard-response,393,384814,0.0-6.0-3.64,5009,,,,,clear_screen,null,null,,,critical,d,t,c,240,164,240,164,164,240,spektor,0,w,240,164,164,240,240,164,39360,39360,39360,dc,null,null,null,null,null,null,"[1,3]"
,canvas-keyboard-response,394,386186,0.0-6.0-4.64,5009,,,,,make choice,1347,3,,,critical,d,t,c,240,164,240,164,164,240,spektor,0,w,240,164,164,240,240,164,39360,39360,39360,dc,null,null,null,null,null,null,"[1,3]"
,canvas-keyboard-response,395,386357,0.0-6.0-5.64,5009,,,,,clear_screen,null,null,,,critical,d,t,c,240,164,240,164,164,240,spektor,0,w,240,164,164,240,240,164,39360,39360,39360,dc,null,null,null,null,null,null,"[1,3]"
,canvas-keyboard-response,396,386577,0.0-6.0-0.65,5009,,,,,pre trial waiting period,null,null,,,critical,t,d,c,240,164,240,164,164,240,spektor,0,w,240,164,164,240,240,164,39360,39360,39360,td,null,null,null,null,null,null,"[1,2]"
,canvas-keyboard-response,397,386740,0.0-6.0-1.65,5009,,,,,clear_screen,null,null,,,critical,t,d,c,240,164,240,164,164,240,spektor,0,w,240,164,164,240,240,164,39360,39360,39360,td,null,null,null,null,null,null,"[1,2]"
,canvas-keyboard-response,398,388087,0.0-6.0-2.65,5009,,,,,rectangles,null,null,,,critical,t,d,c,240,164,240,164,164,240,spektor,0,w,240,164,164,240,240,164,39360,39360,39360,td,null,null,null,null,null,null,"[1,2]"
,canvas-keyboard-response,399,388261,0.0-6.0-3.65,5009,,,,,clear_screen,null,null,,,critical,t,d,c,240,164,240,164,164,240,spektor,0,w,240,164,164,240,240,164,39360,39360,39360,td,null,null,null,null,null,null,"[1,2]"
,canvas-keyboard-response,400,389561,0.0-6.0-4.65,5009,,,,,make choice,1277,2,,,critical,t,d,c,240,164,240,164,164,240,spektor,0,w,240,164,164,240,240,164,39360,39360,39360,td,null,null,null,null,null,null,"[1,2]"
,canvas-keyboard-response,401,389733,0.0-6.0-5.65,5009,,,,,clear_screen,null,null,,,critical,t,d,c,240,164,240,164,164,240,spektor,0,w,240,164,164,240,240,164,39360,39360,39360,td,null,null,null,null,null,null,"[1,2]"
,canvas-keyboard-response,402,389953,0.0-6.0-0.66,5009,,,,,pre trial waiting period,null,null,,,critical,c,d,t,164,240,240,164,240,164,spektor,0,w,240,164,164,240,240,164,39360,39360,39360,tc,null,null,null,null,null,null,"[3,1]"
,canvas-keyboard-response,403,390115,0.0-6.0-1.66,5009,,,,,clear_screen,null,null,,,critical,c,d,t,164,240,240,164,240,164,spektor,0,w,240,164,164,240,240,164,39360,39360,39360,tc,null,null,null,null,null,null,"[3,1]"
,canvas-keyboard-response,404,391462,0.0-6.0-2.66,5009,,,,,rectangles,null,null,,,critical,c,d,t,164,240,240,164,240,164,spektor,0,w,240,164,164,240,240,164,39360,39360,39360,tc,null,null,null,null,null,null,"[3,1]"
,canvas-keyboard-response,405,391635,0.0-6.0-3.66,5009,,,,,clear_screen,null,null,,,critical,c,d,t,164,240,240,164,240,164,spektor,0,w,240,164,164,240,240,164,39360,39360,39360,tc,null,null,null,null,null,null,"[3,1]"
,canvas-keyboard-response,406,393633,0.0-6.0-4.66,5009,,,,,make choice,1974,1,,,critical,c,d,t,164,240,240,164,240,164,spektor,0,w,240,164,164,240,240,164,39360,39360,39360,tc,null,null,null,null,null,null,"[3,1]"
,canvas-keyboard-response,407,393805,0.0-6.0-5.66,5009,,,,,clear_screen,null,null,,,critical,c,d,t,164,240,240,164,240,164,spektor,0,w,240,164,164,240,240,164,39360,39360,39360,tc,null,null,null,null,null,null,"[3,1]"
,canvas-keyboard-response,408,394025,0.0-6.0-0.67,5009,,,,,pre trial waiting period,null,null,,,critical,d,c,t,232.8713,160.6713,164,240,240,164,trueblood,0.05,w,240,164,164,240,232.8713,160.6713,39360,39360,37415.7294,tc,null,null,null,null,null,null,"[3,2]"
,canvas-keyboard-response,409,394184,0.0-6.0-1.67,5009,,,,,clear_screen,null,null,,,critical,d,c,t,232.8713,160.6713,164,240,240,164,trueblood,0.05,w,240,164,164,240,232.8713,160.6713,39360,39360,37415.7294,tc,null,null,null,null,null,null,"[3,2]"
,canvas-keyboard-response,410,395533,0.0-6.0-2.67,5009,,,,,rectangles,null,null,,,critical,d,c,t,232.8713,160.6713,164,240,240,164,trueblood,0.05,w,240,164,164,240,232.8713,160.6713,39360,39360,37415.7294,tc,null,null,null,null,null,null,"[3,2]"
,canvas-keyboard-response,411,395706,0.0-6.0-3.67,5009,,,,,clear_screen,null,null,,,critical,d,c,t,232.8713,160.6713,164,240,240,164,trueblood,0.05,w,240,164,164,240,232.8713,160.6713,39360,39360,37415.7294,tc,null,null,null,null,null,null,"[3,2]"
,canvas-keyboard-response,412,399153,0.0-6.0-4.67,5009,,,,,make choice,3422,3,,,critical,d,c,t,232.8713,160.6713,164,240,240,164,trueblood,0.05,w,240,164,164,240,232.8713,160.6713,39360,39360,37415.7294,tc,null,null,null,null,null,null,"[3,2]"
,canvas-keyboard-response,413,399327,0.0-6.0-5.67,5009,,,,,clear_screen,null,null,,,critical,d,c,t,232.8713,160.6713,164,240,240,164,trueblood,0.05,w,240,164,164,240,232.8713,160.6713,39360,39360,37415.7294,tc,null,null,null,null,null,null,"[3,2]"
,canvas-keyboard-response,414,399548,0.0-6.0-0.68,5009,,,,,pre trial waiting period,null,null,,,critical,c,t,d,240,164,164,240,160.6713,232.8713,trueblood,0.05,h,164,240,240,164,160.6713,232.8713,39360,39360,37415.7294,dc,null,null,null,null,null,null,"[3,1]"
,canvas-keyboard-response,415,399708,0.0-6.0-1.68,5009,,,,,clear_screen,null,null,,,critical,c,t,d,240,164,164,240,160.6713,232.8713,trueblood,0.05,h,164,240,240,164,160.6713,232.8713,39360,39360,37415.7294,dc,null,null,null,null,null,null,"[3,1]"
,canvas-keyboard-response,416,401057,0.0-6.0-2.68,5009,,,,,rectangles,null,null,,,critical,c,t,d,240,164,164,240,160.6713,232.8713,trueblood,0.05,h,164,240,240,164,160.6713,232.8713,39360,39360,37415.7294,dc,null,null,null,null,null,null,"[3,1]"
,canvas-keyboard-response,417,401230,0.0-6.0-3.68,5009,,,,,clear_screen,null,null,,,critical,c,t,d,240,164,164,240,160.6713,232.8713,trueblood,0.05,h,164,240,240,164,160.6713,232.8713,39360,39360,37415.7294,dc,null,null,null,null,null,null,"[3,1]"
,canvas-keyboard-response,418,403305,0.0-6.0-4.68,5009,,,,,make choice,2053,1,,,critical,c,t,d,240,164,164,240,160.6713,232.8713,trueblood,0.05,h,164,240,240,164,160.6713,232.8713,39360,39360,37415.7294,dc,null,null,null,null,null,null,"[3,1]"
