"success","trial_type","trial_index","time_elapsed","internal_node_id","sub_n","timeout","failed_images","failed_audio","failed_video","screen_id","rt","response","stimulus","view_history","trial","r1","r2","r3","w1","h1","w2","h2","w3","h3","display","tdd","tdo","tw","th","cw","ch","dw","dh","ta","ca","da","probe","csls","csss","clls","clss","sa","la","probe_rects"
"true","fullscreen","0","3130","0.0-0.0","16","","","","","","","","","","","","","","","","","","","","","","","","","","","","","","","","","","","","","","",""
"true","preload","1","3151","0.0-1.0","16","false","[]","[]","[]","img preload","","","","","","","","","","","","","","","","","","","","","","","","","","","","","","","","","",""
"","survey-html-form","2","6520","0.0-2.0","16","","","","","enter-sub-number","3356","{""response"":""16""}","","","","","","","","","","","","","","","","","","","","","","","","","","","","","","","",""
"","image-button-response","3","28403","0.0-3.0","16","","","","","","21773","0","consent.png","","","","","","","","","","","","","","","","","","","","","","","","","","","","","","",""
"","html-button-response","4","33195","0.0-4.0","16","","","","","intro mssg","4786","0","<div style= ""font-size:25px;"" <p> <strong> Welcome! </strong><br> <p style=""color:#8B0000; font-size:25px;""><strong> Please do NOT exit full screen until you are done with the experiment. </strong> </p><p style=""font-size:25px;color:#8B0000;""> <strong> Your data will be lost <br> if you try to go back or refresh the page after the experiment starts. Feel free to click ""previous"" during the instructions, however.</strong> </p><br><p> <strong> Thanks in advance for your contribution to our research! </strong></p>","","","","","","","","","","","","","","","","","","","","","","","","","","","","","","",""
"","instructions","5","113010","0.0-5.0","16","","","","","instructions","79810","","","[{""page_index"":0,""viewing_time"":4634},{""page_index"":1,""viewing_time"":5441},{""page_index"":0,""viewing_time"":1376},{""page_index"":1,""viewing_time"":712},{""page_index"":2,""viewing_time"":2873},{""page_index"":3,""viewing_time"":18158},{""page_index"":4,""viewing_time"":6985},{""page_index"":5,""viewing_time"":1943},{""page_index"":6,""viewing_time"":30376},{""page_index"":7,""viewing_time"":7312}]","","","","","","","","","","","","","","","","","","","","","","","","","","","","","",""
"","canvas-keyboard-response","6","113216","0.0-6.0-0.0","16","","","","","pre trial waiting period","null","null","","","catch","sw","l","sh","180","200","243","199","220","154","trueblood","null","null","null","null","null","null","null","null","null","null","null","","180","200","260","200","36000","52000","[2,3]"
"","canvas-keyboard-response","7","113379","0.0-6.0-1.0","16","","","","","clear_screen","null","null","","","catch","sw","l","sh","180","200","243","199","220","154","trueblood","null","null","null","null","null","null","null","null","null","null","null","","180","200","260","200","36000","52000","[2,3]"
"","canvas-keyboard-response","8","114724","0.0-6.0-2.0","16","","","","","rectangles","null","null","","","catch","sw","l","sh","180","200","243","199","220","154","trueblood","null","null","null","null","null","null","null","null","null","null","null","","180","200","260","200","36000","52000","[2,3]"
"","canvas-keyboard-response","9","114886","0.0-6.0-3.0","16","","","","","clear_screen","null","null","","","catch","sw","l","sh","180","200","243","199","220","154","trueblood","null","null","null","null","null","null","null","null","null","null","null","","180","200","260","200","36000","52000","[2,3]"
"","canvas-keyboard-response","10","116607","0.0-6.0-4.0","16","","","","","make choice","1706","2","","","catch","sw","l","sh","180","200","243","199","220","154","trueblood","null","null","null","null","null","null","null","null","null","null","null","","180","200","260","200","36000","52000","[2,3]"
"","canvas-keyboard-response","11","116771","0.0-6.0-5.0","16","","","","","clear_screen","null","null","","","catch","sw","l","sh","180","200","243","199","220","154","trueblood","null","null","null","null","null","null","null","null","null","null","null","","180","200","260","200","36000","52000","[2,3]"
"","canvas-keyboard-response","12","116975","0.0-6.0-0.1","16","","","","","pre trial waiting period","null","null","","","critical","c","t","d","164","240","240","164","240","164","spektor","0","w","240","164","164","240","240","164","39360","39360","39360","td","null","null","null","null","null","null","[2,3]"
"","canvas-keyboard-response","13","117135","0.0-6.0-1.1","16","","","","","clear_screen","null","null","","","critical","c","t","d","164","240","240","164","240","164","spektor","0","w","240","164","164","240","240","164","39360","39360","39360","td","null","null","null","null","null","null","[2,3]"
"","canvas-keyboard-response","14","118473","0.0-6.0-2.1","16","","","","","rectangles","null","null","","","critical","c","t","d","164","240","240","164","240","164","spektor","0","w","240","164","164","240","240","164","39360","39360","39360","td","null","null","null","null","null","null","[2,3]"
"","canvas-keyboard-response","15","118634","0.0-6.0-3.1","16","","","","","clear_screen","null","null","","","critical","c","t","d","164","240","240","164","240","164","spektor","0","w","240","164","164","240","240","164","39360","39360","39360","td","null","null","null","null","null","null","[2,3]"
"","canvas-keyboard-response","16","121183","0.0-6.0-4.1","16","","","","","make choice","2537","3","","","critical","c","t","d","164","240","240","164","240","164","spektor","0","w","240","164","164","240","240","164","39360","39360","39360","td","null","null","null","null","null","null","[2,3]"
"","canvas-keyboard-response","17","121345","0.0-6.0-5.1","16","","","","","clear_screen","null","null","","","critical","c","t","d","164","240","240","164","240","164","spektor","0","w","240","164","164","240","240","164","39360","39360","39360","td","null","null","null","null","null","null","[2,3]"
"","canvas-keyboard-response","18","121557","0.0-6.0-0.2","16","","","","","pre trial waiting period","null","null","","","critical","c","d","t","164","240","227.1683","158.0083","240","164","spektor","0.09","w","240","164","164","240","227.1683","158.0083","39360","39360","35894.4834","td","null","null","null","null","null","null","[3,2]"
"","canvas-keyboard-response","19","121719","0.0-6.0-1.2","16","","","","","clear_screen","null","null","","","critical","c","d","t","164","240","227.1683","158.0083","240","164","spektor","0.09","w","240","164","164","240","227.1683","158.0083","39360","39360","35894.4834","td","null","null","null","null","null","null","[3,2]"
"","canvas-keyboard-response","20","123065","0.0-6.0-2.2","16","","","","","rectangles","null","null","","","critical","c","d","t","164","240","227.1683","158.0083","240","164","spektor","0.09","w","240","164","164","240","227.1683","158.0083","39360","39360","35894.4834","td","null","null","null","null","null","null","[3,2]"
"","canvas-keyboard-response","21","123227","0.0-6.0-3.2","16","","","","","clear_screen","null","null","","","critical","c","d","t","164","240","227.1683","158.0083","240","164","spektor","0.09","w","240","164","164","240","227.1683","158.0083","39360","39360","35894.4834","td","null","null","null","null","null","null","[3,2]"
"","canvas-keyboard-response","22","127440","0.0-6.0-4.2","16","","","","","make choice","4200","3","","","critical","c","d","t","164","240","227.1683","158.0083","240","164","spektor","0.09","w","240","164","164","240","227.1683","158.0083","39360","39360","35894.4834","td","null","null","null","null","null","null","[3,2]"
"","canvas-keyboard-response","23","127601","0.0-6.0-5.2","16","","","","","clear_screen","null","null","","","critical","c","d","t","164","240","227.1683","158.0083","240","164","spektor","0.09","w","240","164","164","240","227.1683","158.0083","39360","39360","35894.4834","td","null","null","null","null","null","null","[3,2]"
"","canvas-keyboard-response","24","127806","0.0-6.0-0.3","16","","","","","pre trial waiting period","null","null","","","critical","t","c","d","240","164","164","240","237.1485","162.6685","spektor","0.02","w","240","164","164","240","237.1485","162.6685","39360","39360","38576.5967","td","null","null","null","null","null","null","[1,3]"
"","canvas-keyboard-response","25","127964","0.0-6.0-1.3","16","","","","","clear_screen","null","null","","","critical","t","c","d","240","164","164","240","237.1485","162.6685","spektor","0.02","w","240","164","164","240","237.1485","162.6685","39360","39360","38576.5967","td","null","null","null","null","null","null","[1,3]"
"","canvas-keyboard-response","26","129304","0.0-6.0-2.3","16","","","","","rectangles","null","null","","","critical","t","c","d","240","164","164","240","237.1485","162.6685","spektor","0.02","w","240","164","164","240","237.1485","162.6685","39360","39360","38576.5967","td","null","null","null","null","null","null","[1,3]"
"","canvas-keyboard-response","27","129465","0.0-6.0-3.3","16","","","","","clear_screen","null","null","","","critical","t","c","d","240","164","164","240","237.1485","162.6685","spektor","0.02","w","240","164","164","240","237.1485","162.6685","39360","39360","38576.5967","td","null","null","null","null","null","null","[1,3]"
"","canvas-keyboard-response","28","134336","0.0-6.0-4.3","16","","","","","make choice","4857","3","","","critical","t","c","d","240","164","164","240","237.1485","162.6685","spektor","0.02","w","240","164","164","240","237.1485","162.6685","39360","39360","38576.5967","td","null","null","null","null","null","null","[1,3]"
"","canvas-keyboard-response","29","134497","0.0-6.0-5.3","16","","","","","clear_screen","null","null","","","critical","t","c","d","240","164","164","240","237.1485","162.6685","spektor","0.02","w","240","164","164","240","237.1485","162.6685","39360","39360","38576.5967","td","null","null","null","null","null","null","[1,3]"
"","canvas-keyboard-response","30","134702","0.0-6.0-0.4","16","","","","","pre trial waiting period","null","null","","","critical","d","t","c","160.6713","232.8713","164","240","240","164","trueblood","0.05","h","164","240","240","164","160.6713","232.8713","39360","39360","37415.7294","td","null","null","null","null","null","null","[2,1]"
"","canvas-keyboard-response","31","134865","0.0-6.0-1.4","16","","","","","clear_screen","null","null","","","critical","d","t","c","160.6713","232.8713","164","240","240","164","trueblood","0.05","h","164","240","240","164","160.6713","232.8713","39360","39360","37415.7294","td","null","null","null","null","null","null","[2,1]"
"","canvas-keyboard-response","32","136204","0.0-6.0-2.4","16","","","","","rectangles","null","null","","","critical","d","t","c","160.6713","232.8713","164","240","240","164","trueblood","0.05","h","164","240","240","164","160.6713","232.8713","39360","39360","37415.7294","td","null","null","null","null","null","null","[2,1]"
"","canvas-keyboard-response","33","136365","0.0-6.0-3.4","16","","","","","clear_screen","null","null","","","critical","d","t","c","160.6713","232.8713","164","240","240","164","trueblood","0.05","h","164","240","240","164","160.6713","232.8713","39360","39360","37415.7294","td","null","null","null","null","null","null","[2,1]"
"","canvas-keyboard-response","34","137495","0.0-6.0-4.4","16","","","","","make choice","1117","2","","","critical","d","t","c","160.6713","232.8713","164","240","240","164","trueblood","0.05","h","164","240","240","164","160.6713","232.8713","39360","39360","37415.7294","td","null","null","null","null","null","null","[2,1]"
"","canvas-keyboard-response","35","137657","0.0-6.0-5.4","16","","","","","clear_screen","null","null","","","critical","d","t","c","160.6713","232.8713","164","240","240","164","trueblood","0.05","h","164","240","240","164","160.6713","232.8713","39360","39360","37415.7294","td","null","null","null","null","null","null","[2,1]"
"","canvas-keyboard-response","36","137862","0.0-6.0-0.5","16","","","","","pre trial waiting period","null","null","","","critical","c","t","d","240","164","164","240","162.6685","237.1485","trueblood","0.02","h","164","240","240","164","162.6685","237.1485","39360","39360","38576.5967","td","null","null","null","null","null","null","[2,3]"
"","canvas-keyboard-response","37","138022","0.0-6.0-1.5","16","","","","","clear_screen","null","null","","","critical","c","t","d","240","164","164","240","162.6685","237.1485","trueblood","0.02","h","164","240","240","164","162.6685","237.1485","39360","39360","38576.5967","td","null","null","null","null","null","null","[2,3]"
"","canvas-keyboard-response","38","139360","0.0-6.0-2.5","16","","","","","rectangles","null","null","","","critical","c","t","d","240","164","164","240","162.6685","237.1485","trueblood","0.02","h","164","240","240","164","162.6685","237.1485","39360","39360","38576.5967","td","null","null","null","null","null","null","[2,3]"
"","canvas-keyboard-response","39","139522","0.0-6.0-3.5","16","","","","","clear_screen","null","null","","","critical","c","t","d","240","164","164","240","162.6685","237.1485","trueblood","0.02","h","164","240","240","164","162.6685","237.1485","39360","39360","38576.5967","td","null","null","null","null","null","null","[2,3]"
"","canvas-keyboard-response","40","140223","0.0-6.0-4.5","16","","","","","make choice","690","2","","","critical","c","t","d","240","164","164","240","162.6685","237.1485","trueblood","0.02","h","164","240","240","164","162.6685","237.1485","39360","39360","38576.5967","td","null","null","null","null","null","null","[2,3]"
"","canvas-keyboard-response","41","140388","0.0-6.0-5.5","16","","","","","clear_screen","null","null","","","critical","c","t","d","240","164","164","240","162.6685","237.1485","trueblood","0.02","h","164","240","240","164","162.6685","237.1485","39360","39360","38576.5967","td","null","null","null","null","null","null","[2,3]"
"","canvas-keyboard-response","42","140592","0.0-6.0-0.6","16","","","","","pre trial waiting period","null","null","","","catch","sw","sh","l","180","200","225","198","204","250","spektor","null","null","null","null","null","null","null","null","null","null","null","","180","200","260","200","36000","52000","[2,3]"
"","canvas-keyboard-response","43","140752","0.0-6.0-1.6","16","","","","","clear_screen","null","null","","","catch","sw","sh","l","180","200","225","198","204","250","spektor","null","null","null","null","null","null","null","null","null","null","null","","180","200","260","200","36000","52000","[2,3]"
"","canvas-keyboard-response","44","142095","0.0-6.0-2.6","16","","","","","rectangles","null","null","","","catch","sw","sh","l","180","200","225","198","204","250","spektor","null","null","null","null","null","null","null","null","null","null","null","","180","200","260","200","36000","52000","[2,3]"
"","canvas-keyboard-response","45","142257","0.0-6.0-3.6","16","","","","","clear_screen","null","null","","","catch","sw","sh","l","180","200","225","198","204","250","spektor","null","null","null","null","null","null","null","null","null","null","null","","180","200","260","200","36000","52000","[2,3]"
"","canvas-keyboard-response","46","143431","0.0-6.0-4.6","16","","","","","make choice","1161","3","","","catch","sw","sh","l","180","200","225","198","204","250","spektor","null","null","null","null","null","null","null","null","null","null","null","","180","200","260","200","36000","52000","[2,3]"
"","canvas-keyboard-response","47","143594","0.0-6.0-5.6","16","","","","","clear_screen","null","null","","","catch","sw","sh","l","180","200","225","198","204","250","spektor","null","null","null","null","null","null","null","null","null","null","null","","180","200","260","200","36000","52000","[2,3]"
"","canvas-keyboard-response","48","143798","0.0-6.0-0.7","16","","","","","pre trial waiting period","null","null","","","critical","t","c","d","164","240","240","164","160.6713","232.8713","trueblood","0.05","h","164","240","240","164","160.6713","232.8713","39360","39360","37415.7294","dc","null","null","null","null","null","null","[3,2]"
"","canvas-keyboard-response","49","143958","0.0-6.0-1.7","16","","","","","clear_screen","null","null","","","critical","t","c","d","164","240","240","164","160.6713","232.8713","trueblood","0.05","h","164","240","240","164","160.6713","232.8713","39360","39360","37415.7294","dc","null","null","null","null","null","null","[3,2]"
"","canvas-keyboard-response","50","145296","0.0-6.0-2.7","16","","","","","rectangles","null","null","","","critical","t","c","d","164","240","240","164","160.6713","232.8713","trueblood","0.05","h","164","240","240","164","160.6713","232.8713","39360","39360","37415.7294","dc","null","null","null","null","null","null","[3,2]"
"","canvas-keyboard-response","51","145459","0.0-6.0-3.7","16","","","","","clear_screen","null","null","","","critical","t","c","d","164","240","240","164","160.6713","232.8713","trueblood","0.05","h","164","240","240","164","160.6713","232.8713","39360","39360","37415.7294","dc","null","null","null","null","null","null","[3,2]"
"","canvas-keyboard-response","52","152239","0.0-6.0-4.7","16","","","","","make choice","6768","3","","","critical","t","c","d","164","240","240","164","160.6713","232.8713","trueblood","0.05","h","164","240","240","164","160.6713","232.8713","39360","39360","37415.7294","dc","null","null","null","null","null","null","[3,2]"
"","canvas-keyboard-response","53","152400","0.0-6.0-5.7","16","","","","","clear_screen","null","null","","","critical","t","c","d","164","240","240","164","160.6713","232.8713","trueblood","0.05","h","164","240","240","164","160.6713","232.8713","39360","39360","37415.7294","dc","null","null","null","null","null","null","[3,2]"
"","canvas-keyboard-response","54","152606","0.0-6.0-0.8","16","","","","","pre trial waiting period","null","null","","","catch","sw","sh","l","180","200","188","216","168","228","spektor","null","null","null","null","null","null","null","null","null","null","null","","180","200","260","200","36000","52000","[1,3]"
"","canvas-keyboard-response","55","152766","0.0-6.0-1.8","16","","","","","clear_screen","null","null","","","catch","sw","sh","l","180","200","188","216","168","228","spektor","null","null","null","null","null","null","null","null","null","null","null","","180","200","260","200","36000","52000","[1,3]"
"","canvas-keyboard-response","56","154107","0.0-6.0-2.8","16","","","","","rectangles","null","null","","","catch","sw","sh","l","180","200","188","216","168","228","spektor","null","null","null","null","null","null","null","null","null","null","null","","180","200","260","200","36000","52000","[1,3]"
"","canvas-keyboard-response","57","154270","0.0-6.0-3.8","16","","","","","clear_screen","null","null","","","catch","sw","sh","l","180","200","188","216","168","228","spektor","null","null","null","null","null","null","null","null","null","null","null","","180","200","260","200","36000","52000","[1,3]"
"","canvas-keyboard-response","58","155784","0.0-6.0-4.8","16","","","","","make choice","1502","3","","","catch","sw","sh","l","180","200","188","216","168","228","spektor","null","null","null","null","null","null","null","null","null","null","null","","180","200","260","200","36000","52000","[1,3]"
"","canvas-keyboard-response","59","155944","0.0-6.0-5.8","16","","","","","clear_screen","null","null","","","catch","sw","sh","l","180","200","188","216","168","228","spektor","null","null","null","null","null","null","null","null","null","null","null","","180","200","260","200","36000","52000","[1,3]"
"","canvas-keyboard-response","60","156150","0.0-6.0-0.9","16","","","","","pre trial waiting period","null","null","","","catch","sw","sh","l","180","200","203","170","229","161","trueblood","null","null","null","null","null","null","null","null","null","null","null","","180","200","260","200","36000","52000","[2,3]"
"","canvas-keyboard-response","61","156309","0.0-6.0-1.9","16","","","","","clear_screen","null","null","","","catch","sw","sh","l","180","200","203","170","229","161","trueblood","null","null","null","null","null","null","null","null","null","null","null","","180","200","260","200","36000","52000","[2,3]"
"","canvas-keyboard-response","62","157650","0.0-6.0-2.9","16","","","","","rectangles","null","null","","","catch","sw","sh","l","180","200","203","170","229","161","trueblood","null","null","null","null","null","null","null","null","null","null","null","","180","200","260","200","36000","52000","[2,3]"
"","canvas-keyboard-response","63","157813","0.0-6.0-3.9","16","","","","","clear_screen","null","null","","","catch","sw","sh","l","180","200","203","170","229","161","trueblood","null","null","null","null","null","null","null","null","null","null","null","","180","200","260","200","36000","52000","[2,3]"
"","canvas-keyboard-response","64","160303","0.0-6.0-4.9","16","","","","","make choice","2478","3","","","catch","sw","sh","l","180","200","203","170","229","161","trueblood","null","null","null","null","null","null","null","null","null","null","null","","180","200","260","200","36000","52000","[2,3]"
"","canvas-keyboard-response","65","160467","0.0-6.0-5.9","16","","","","","clear_screen","null","null","","","catch","sw","sh","l","180","200","203","170","229","161","trueblood","null","null","null","null","null","null","null","null","null","null","null","","180","200","260","200","36000","52000","[2,3]"
"","canvas-keyboard-response","66","160672","0.0-6.0-0.10","16","","","","","pre trial waiting period","null","null","","","catch","l","sw","sh","215","227","167","232","202","141","trueblood","null","null","null","null","null","null","null","null","null","null","null","","180","200","260","200","36000","52000","[1,3]"
"","canvas-keyboard-response","67","160833","0.0-6.0-1.10","16","","","","","clear_screen","null","null","","","catch","l","sw","sh","215","227","167","232","202","141","trueblood","null","null","null","null","null","null","null","null","null","null","null","","180","200","260","200","36000","52000","[1,3]"
"","canvas-keyboard-response","68","162174","0.0-6.0-2.10","16","","","","","rectangles","null","null","","","catch","l","sw","sh","215","227","167","232","202","141","trueblood","null","null","null","null","null","null","null","null","null","null","null","","180","200","260","200","36000","52000","[1,3]"
"","canvas-keyboard-response","69","162337","0.0-6.0-3.10","16","","","","","clear_screen","null","null","","","catch","l","sw","sh","215","227","167","232","202","141","trueblood","null","null","null","null","null","null","null","null","null","null","null","","180","200","260","200","36000","52000","[1,3]"
"","canvas-keyboard-response","70","164847","0.0-6.0-4.10","16","","","","","make choice","2496","1","","","catch","l","sw","sh","215","227","167","232","202","141","trueblood","null","null","null","null","null","null","null","null","null","null","null","","180","200","260","200","36000","52000","[1,3]"
"","canvas-keyboard-response","71","165011","0.0-6.0-5.10","16","","","","","clear_screen","null","null","","","catch","l","sw","sh","215","227","167","232","202","141","trueblood","null","null","null","null","null","null","null","null","null","null","null","","180","200","260","200","36000","52000","[1,3]"
"","canvas-keyboard-response","72","165217","0.0-6.0-0.11","16","","","","","pre trial waiting period","null","null","","","critical","d","t","c","227.1683","158.0083","240","164","164","240","trueblood","0.09","w","240","164","164","240","227.1683","158.0083","39360","39360","35894.4834","dc","null","null","null","null","null","null","[1,3]"
"","canvas-keyboard-response","73","165376","0.0-6.0-1.11","16","","","","","clear_screen","null","null","","","critical","d","t","c","227.1683","158.0083","240","164","164","240","trueblood","0.09","w","240","164","164","240","227.1683","158.0083","39360","39360","35894.4834","dc","null","null","null","null","null","null","[1,3]"
"","canvas-keyboard-response","74","166716","0.0-6.0-2.11","16","","","","","rectangles","null","null","","","critical","d","t","c","227.1683","158.0083","240","164","164","240","trueblood","0.09","w","240","164","164","240","227.1683","158.0083","39360","39360","35894.4834","dc","null","null","null","null","null","null","[1,3]"
"","canvas-keyboard-response","75","166880","0.0-6.0-3.11","16","","","","","clear_screen","null","null","","","critical","d","t","c","227.1683","158.0083","240","164","164","240","trueblood","0.09","w","240","164","164","240","227.1683","158.0083","39360","39360","35894.4834","dc","null","null","null","null","null","null","[1,3]"
"","canvas-keyboard-response","76","171719","0.0-6.0-4.11","16","","","","","make choice","4825","1","","","critical","d","t","c","227.1683","158.0083","240","164","164","240","trueblood","0.09","w","240","164","164","240","227.1683","158.0083","39360","39360","35894.4834","dc","null","null","null","null","null","null","[1,3]"
"","canvas-keyboard-response","77","171881","0.0-6.0-5.11","16","","","","","clear_screen","null","null","","","critical","d","t","c","227.1683","158.0083","240","164","164","240","trueblood","0.09","w","240","164","164","240","227.1683","158.0083","39360","39360","35894.4834","dc","null","null","null","null","null","null","[1,3]"
"","canvas-keyboard-response","78","172087","0.0-6.0-0.12","16","","","","","pre trial waiting period","null","null","","","catch","sw","l","sh","180","200","164","261","233","180","trueblood","null","null","null","null","null","null","null","null","null","null","null","","180","200","260","200","36000","52000","[1,2]"
"","canvas-keyboard-response","79","172246","0.0-6.0-1.12","16","","","","","clear_screen","null","null","","","catch","sw","l","sh","180","200","164","261","233","180","trueblood","null","null","null","null","null","null","null","null","null","null","null","","180","200","260","200","36000","52000","[1,2]"
"","canvas-keyboard-response","80","173585","0.0-6.0-2.12","16","","","","","rectangles","null","null","","","catch","sw","l","sh","180","200","164","261","233","180","trueblood","null","null","null","null","null","null","null","null","null","null","null","","180","200","260","200","36000","52000","[1,2]"
"","canvas-keyboard-response","81","173749","0.0-6.0-3.12","16","","","","","clear_screen","null","null","","","catch","sw","l","sh","180","200","164","261","233","180","trueblood","null","null","null","null","null","null","null","null","null","null","null","","180","200","260","200","36000","52000","[1,2]"
"","canvas-keyboard-response","82","174783","0.0-6.0-4.12","16","","","","","make choice","1020","1","","","catch","sw","l","sh","180","200","164","261","233","180","trueblood","null","null","null","null","null","null","null","null","null","null","null","","180","200","260","200","36000","52000","[1,2]"
"","canvas-keyboard-response","83","174945","0.0-6.0-5.12","16","","","","","clear_screen","null","null","","","catch","sw","l","sh","180","200","164","261","233","180","trueblood","null","null","null","null","null","null","null","null","null","null","null","","180","200","260","200","36000","52000","[1,2]"
"","canvas-keyboard-response","84","175152","0.0-6.0-0.13","16","","","","","pre trial waiting period","null","null","","","critical","d","t","c","154.6796","220.0396","164","240","240","164","spektor","0.14","h","164","240","240","164","154.6796","220.0396","39360","39360","34035.6388","dc","null","null","null","null","null","null","[1,3]"
"","canvas-keyboard-response","85","175312","0.0-6.0-1.13","16","","","","","clear_screen","null","null","","","critical","d","t","c","154.6796","220.0396","164","240","240","164","spektor","0.14","h","164","240","240","164","154.6796","220.0396","39360","39360","34035.6388","dc","null","null","null","null","null","null","[1,3]"
"","canvas-keyboard-response","86","176653","0.0-6.0-2.13","16","","","","","rectangles","null","null","","","critical","d","t","c","154.6796","220.0396","164","240","240","164","spektor","0.14","h","164","240","240","164","154.6796","220.0396","39360","39360","34035.6388","dc","null","null","null","null","null","null","[1,3]"
"","canvas-keyboard-response","87","176816","0.0-6.0-3.13","16","","","","","clear_screen","null","null","","","critical","d","t","c","154.6796","220.0396","164","240","240","164","spektor","0.14","h","164","240","240","164","154.6796","220.0396","39360","39360","34035.6388","dc","null","null","null","null","null","null","[1,3]"
"","canvas-keyboard-response","88","180014","0.0-6.0-4.13","16","","","","","make choice","3185","3","","","critical","d","t","c","154.6796","220.0396","164","240","240","164","spektor","0.14","h","164","240","240","164","154.6796","220.0396","39360","39360","34035.6388","dc","null","null","null","null","null","null","[1,3]"
"","canvas-keyboard-response","89","180178","0.0-6.0-5.13","16","","","","","clear_screen","null","null","","","critical","d","t","c","154.6796","220.0396","164","240","240","164","spektor","0.14","h","164","240","240","164","154.6796","220.0396","39360","39360","34035.6388","dc","null","null","null","null","null","null","[1,3]"
"","canvas-keyboard-response","90","180385","0.0-6.0-0.14","16","","","","","pre trial waiting period","null","null","","","critical","d","c","t","164","240","240","164","164","240","spektor","0","h","164","240","240","164","164","240","39360","39360","39360","tc","null","null","null","null","null","null","[3,2]"
"","canvas-keyboard-response","91","180544","0.0-6.0-1.14","16","","","","","clear_screen","null","null","","","critical","d","c","t","164","240","240","164","164","240","spektor","0","h","164","240","240","164","164","240","39360","39360","39360","tc","null","null","null","null","null","null","[3,2]"
"","canvas-keyboard-response","92","181890","0.0-6.0-2.14","16","","","","","rectangles","null","null","","","critical","d","c","t","164","240","240","164","164","240","spektor","0","h","164","240","240","164","164","240","39360","39360","39360","tc","null","null","null","null","null","null","[3,2]"
"","canvas-keyboard-response","93","182067","0.0-6.0-3.14","16","","","","","clear_screen","null","null","","","critical","d","c","t","164","240","240","164","164","240","spektor","0","h","164","240","240","164","164","240","39360","39360","39360","tc","null","null","null","null","null","null","[3,2]"
"","canvas-keyboard-response","94","184334","0.0-6.0-4.14","16","","","","","make choice","2247","3","","","critical","d","c","t","164","240","240","164","164","240","spektor","0","h","164","240","240","164","164","240","39360","39360","39360","tc","null","null","null","null","null","null","[3,2]"
"","canvas-keyboard-response","95","184502","0.0-6.0-5.14","16","","","","","clear_screen","null","null","","","critical","d","c","t","164","240","240","164","164","240","spektor","0","h","164","240","240","164","164","240","39360","39360","39360","tc","null","null","null","null","null","null","[3,2]"
"","canvas-keyboard-response","96","184713","0.0-6.0-0.15","16","","","","","pre trial waiting period","null","null","","","critical","d","c","t","154.6796","220.0396","240","164","164","240","spektor","0.14","h","164","240","240","164","154.6796","220.0396","39360","39360","34035.6388","tc","null","null","null","null","null","null","[3,2]"
"","canvas-keyboard-response","97","184874","0.0-6.0-1.15","16","","","","","clear_screen","null","null","","","critical","d","c","t","154.6796","220.0396","240","164","164","240","spektor","0.14","h","164","240","240","164","154.6796","220.0396","39360","39360","34035.6388","tc","null","null","null","null","null","null","[3,2]"
"","canvas-keyboard-response","98","186217","0.0-6.0-2.15","16","","","","","rectangles","null","null","","","critical","d","c","t","154.6796","220.0396","240","164","164","240","spektor","0.14","h","164","240","240","164","154.6796","220.0396","39360","39360","34035.6388","tc","null","null","null","null","null","null","[3,2]"
"","canvas-keyboard-response","99","186384","0.0-6.0-3.15","16","","","","","clear_screen","null","null","","","critical","d","c","t","154.6796","220.0396","240","164","164","240","spektor","0.14","h","164","240","240","164","154.6796","220.0396","39360","39360","34035.6388","tc","null","null","null","null","null","null","[3,2]"
"","canvas-keyboard-response","100","189838","0.0-6.0-4.15","16","","","","","make choice","3441","3","","","critical","d","c","t","154.6796","220.0396","240","164","164","240","spektor","0.14","h","164","240","240","164","154.6796","220.0396","39360","39360","34035.6388","tc","null","null","null","null","null","null","[3,2]"
"","canvas-keyboard-response","101","190005","0.0-6.0-5.15","16","","","","","clear_screen","null","null","","","critical","d","c","t","154.6796","220.0396","240","164","164","240","spektor","0.14","h","164","240","240","164","154.6796","220.0396","39360","39360","34035.6388","tc","null","null","null","null","null","null","[3,2]"
"","canvas-keyboard-response","102","190214","0.0-6.0-0.16","16","","","","","pre trial waiting period","null","null","","","catch","sw","sh","l","180","200","191","169","186","296","trueblood","null","null","null","null","null","null","null","null","null","null","null","","180","200","260","200","36000","52000","[2,3]"
"","canvas-keyboard-response","103","190374","0.0-6.0-1.16","16","","","","","clear_screen","null","null","","","catch","sw","sh","l","180","200","191","169","186","296","trueblood","null","null","null","null","null","null","null","null","null","null","null","","180","200","260","200","36000","52000","[2,3]"
"","canvas-keyboard-response","104","191716","0.0-6.0-2.16","16","","","","","rectangles","null","null","","","catch","sw","sh","l","180","200","191","169","186","296","trueblood","null","null","null","null","null","null","null","null","null","null","null","","180","200","260","200","36000","52000","[2,3]"
"","canvas-keyboard-response","105","191882","0.0-6.0-3.16","16","","","","","clear_screen","null","null","","","catch","sw","sh","l","180","200","191","169","186","296","trueblood","null","null","null","null","null","null","null","null","null","null","null","","180","200","260","200","36000","52000","[2,3]"
"","canvas-keyboard-response","106","193391","0.0-6.0-4.16","16","","","","","make choice","1494","3","","","catch","sw","sh","l","180","200","191","169","186","296","trueblood","null","null","null","null","null","null","null","null","null","null","null","","180","200","260","200","36000","52000","[2,3]"
"","canvas-keyboard-response","107","193557","0.0-6.0-5.16","16","","","","","clear_screen","null","null","","","catch","sw","sh","l","180","200","191","169","186","296","trueblood","null","null","null","null","null","null","null","null","null","null","null","","180","200","260","200","36000","52000","[2,3]"
"","canvas-keyboard-response","108","193772","0.0-6.0-0.17","16","","","","","pre trial waiting period","null","null","","","catch","sh","l","sw","211","188","163","247","154","208","spektor","null","null","null","null","null","null","null","null","null","null","null","","180","200","260","200","36000","52000","[1,2]"
"","canvas-keyboard-response","109","193932","0.0-6.0-1.17","16","","","","","clear_screen","null","null","","","catch","sh","l","sw","211","188","163","247","154","208","spektor","null","null","null","null","null","null","null","null","null","null","null","","180","200","260","200","36000","52000","[1,2]"
"","canvas-keyboard-response","110","195275","0.0-6.0-2.17","16","","","","","rectangles","null","null","","","catch","sh","l","sw","211","188","163","247","154","208","spektor","null","null","null","null","null","null","null","null","null","null","null","","180","200","260","200","36000","52000","[1,2]"
"","canvas-keyboard-response","111","195439","0.0-6.0-3.17","16","","","","","clear_screen","null","null","","","catch","sh","l","sw","211","188","163","247","154","208","spektor","null","null","null","null","null","null","null","null","null","null","null","","180","200","260","200","36000","52000","[1,2]"
"","canvas-keyboard-response","112","196463","0.0-6.0-4.17","16","","","","","make choice","1005","2","","","catch","sh","l","sw","211","188","163","247","154","208","spektor","null","null","null","null","null","null","null","null","null","null","null","","180","200","260","200","36000","52000","[1,2]"
"","canvas-keyboard-response","113","196630","0.0-6.0-5.17","16","","","","","clear_screen","null","null","","","catch","sh","l","sw","211","188","163","247","154","208","spektor","null","null","null","null","null","null","null","null","null","null","null","","180","200","260","200","36000","52000","[1,2]"
"","canvas-keyboard-response","114","196839","0.0-6.0-0.18","16","","","","","pre trial waiting period","null","null","","","critical","d","t","c","154.6796","220.0396","164","240","240","164","spektor","0.14","h","164","240","240","164","154.6796","220.0396","39360","39360","34035.6388","td","null","null","null","null","null","null","[2,1]"
"","canvas-keyboard-response","115","196998","0.0-6.0-1.18","16","","","","","clear_screen","null","null","","","critical","d","t","c","154.6796","220.0396","164","240","240","164","spektor","0.14","h","164","240","240","164","154.6796","220.0396","39360","39360","34035.6388","td","null","null","null","null","null","null","[2,1]"
"","canvas-keyboard-response","116","198342","0.0-6.0-2.18","16","","","","","rectangles","null","null","","","critical","d","t","c","154.6796","220.0396","164","240","240","164","spektor","0.14","h","164","240","240","164","154.6796","220.0396","39360","39360","34035.6388","td","null","null","null","null","null","null","[2,1]"
"","canvas-keyboard-response","117","198510","0.0-6.0-3.18","16","","","","","clear_screen","null","null","","","critical","d","t","c","154.6796","220.0396","164","240","240","164","spektor","0.14","h","164","240","240","164","154.6796","220.0396","39360","39360","34035.6388","td","null","null","null","null","null","null","[2,1]"
"","canvas-keyboard-response","118","199926","0.0-6.0-4.18","16","","","","","make choice","1399","2","","","critical","d","t","c","154.6796","220.0396","164","240","240","164","spektor","0.14","h","164","240","240","164","154.6796","220.0396","39360","39360","34035.6388","td","null","null","null","null","null","null","[2,1]"
"","canvas-keyboard-response","119","200092","0.0-6.0-5.18","16","","","","","clear_screen","null","null","","","critical","d","t","c","154.6796","220.0396","164","240","240","164","spektor","0.14","h","164","240","240","164","154.6796","220.0396","39360","39360","34035.6388","td","null","null","null","null","null","null","[2,1]"
"","canvas-keyboard-response","120","200302","0.0-6.0-0.19","16","","","","","pre trial waiting period","null","null","","","critical","c","t","d","164","240","240","164","227.1683","158.0083","spektor","0.09","w","240","164","164","240","227.1683","158.0083","39360","39360","35894.4834","tc","null","null","null","null","null","null","[2,1]"
"","canvas-keyboard-response","121","200462","0.0-6.0-1.19","16","","","","","clear_screen","null","null","","","critical","c","t","d","164","240","240","164","227.1683","158.0083","spektor","0.09","w","240","164","164","240","227.1683","158.0083","39360","39360","35894.4834","tc","null","null","null","null","null","null","[2,1]"
"","canvas-keyboard-response","122","201806","0.0-6.0-2.19","16","","","","","rectangles","null","null","","","critical","c","t","d","164","240","240","164","227.1683","158.0083","spektor","0.09","w","240","164","164","240","227.1683","158.0083","39360","39360","35894.4834","tc","null","null","null","null","null","null","[2,1]"
"","canvas-keyboard-response","123","201970","0.0-6.0-3.19","16","","","","","clear_screen","null","null","","","critical","c","t","d","164","240","240","164","227.1683","158.0083","spektor","0.09","w","240","164","164","240","227.1683","158.0083","39360","39360","35894.4834","tc","null","null","null","null","null","null","[2,1]"
"","canvas-keyboard-response","124","203215","0.0-6.0-4.19","16","","","","","make choice","1228","1","","","critical","c","t","d","164","240","240","164","227.1683","158.0083","spektor","0.09","w","240","164","164","240","227.1683","158.0083","39360","39360","35894.4834","tc","null","null","null","null","null","null","[2,1]"
"","canvas-keyboard-response","125","203380","0.0-6.0-5.19","16","","","","","clear_screen","null","null","","","critical","c","t","d","164","240","240","164","227.1683","158.0083","spektor","0.09","w","240","164","164","240","227.1683","158.0083","39360","39360","35894.4834","tc","null","null","null","null","null","null","[2,1]"
"","canvas-keyboard-response","126","203589","0.0-6.0-0.20","16","","","","","pre trial waiting period","null","null","","","catch","sw","l","sh","180","200","188","237","222","216","spektor","null","null","null","null","null","null","null","null","null","null","null","","180","200","260","200","36000","52000","[2,3]"
"","canvas-keyboard-response","127","203749","0.0-6.0-1.20","16","","","","","clear_screen","null","null","","","catch","sw","l","sh","180","200","188","237","222","216","spektor","null","null","null","null","null","null","null","null","null","null","null","","180","200","260","200","36000","52000","[2,3]"
"","canvas-keyboard-response","128","205092","0.0-6.0-2.20","16","","","","","rectangles","null","null","","","catch","sw","l","sh","180","200","188","237","222","216","spektor","null","null","null","null","null","null","null","null","null","null","null","","180","200","260","200","36000","52000","[2,3]"
"","canvas-keyboard-response","129","205257","0.0-6.0-3.20","16","","","","","clear_screen","null","null","","","catch","sw","l","sh","180","200","188","237","222","216","spektor","null","null","null","null","null","null","null","null","null","null","null","","180","200","260","200","36000","52000","[2,3]"
"","canvas-keyboard-response","130","214615","0.0-6.0-4.20","16","","","","","make choice","9341","3","","","catch","sw","l","sh","180","200","188","237","222","216","spektor","null","null","null","null","null","null","null","null","null","null","null","","180","200","260","200","36000","52000","[2,3]"
"","canvas-keyboard-response","131","214781","0.0-6.0-5.20","16","","","","","clear_screen","null","null","","","catch","sw","l","sh","180","200","188","237","222","216","spektor","null","null","null","null","null","null","null","null","null","null","null","","180","200","260","200","36000","52000","[2,3]"
"","canvas-keyboard-response","132","215004","0.0-6.0-0.21","16","","","","","pre trial waiting period","null","null","","","catch","l","sh","sw","285","162","188","185","154","236","trueblood","null","null","null","null","null","null","null","null","null","null","null","","180","200","260","200","36000","52000","[1,3]"
"","canvas-keyboard-response","133","215166","0.0-6.0-1.21","16","","","","","clear_screen","null","null","","","catch","l","sh","sw","285","162","188","185","154","236","trueblood","null","null","null","null","null","null","null","null","null","null","null","","180","200","260","200","36000","52000","[1,3]"
"","canvas-keyboard-response","134","216517","0.0-6.0-2.21","16","","","","","rectangles","null","null","","","catch","l","sh","sw","285","162","188","185","154","236","trueblood","null","null","null","null","null","null","null","null","null","null","null","","180","200","260","200","36000","52000","[1,3]"
"","canvas-keyboard-response","135","216691","0.0-6.0-3.21","16","","","","","clear_screen","null","null","","","catch","l","sh","sw","285","162","188","185","154","236","trueblood","null","null","null","null","null","null","null","null","null","null","null","","180","200","260","200","36000","52000","[1,3]"
"","canvas-keyboard-response","136","217831","0.0-6.0-4.21","16","","","","","make choice","1121","1","","","catch","l","sh","sw","285","162","188","185","154","236","trueblood","null","null","null","null","null","null","null","null","null","null","null","","180","200","260","200","36000","52000","[1,3]"
"","canvas-keyboard-response","137","217996","0.0-6.0-5.21","16","","","","","clear_screen","null","null","","","catch","l","sh","sw","285","162","188","185","154","236","trueblood","null","null","null","null","null","null","null","null","null","null","null","","180","200","260","200","36000","52000","[1,3]"
"","canvas-keyboard-response","138","218208","0.0-6.0-0.22","16","","","","","pre trial waiting period","null","null","","","critical","d","t","c","232.8713","160.6713","240","164","164","240","spektor","0.05","w","240","164","164","240","232.8713","160.6713","39360","39360","37415.7294","tc","null","null","null","null","null","null","[2,3]"
"","canvas-keyboard-response","139","218368","0.0-6.0-1.22","16","","","","","clear_screen","null","null","","","critical","d","t","c","232.8713","160.6713","240","164","164","240","spektor","0.05","w","240","164","164","240","232.8713","160.6713","39360","39360","37415.7294","tc","null","null","null","null","null","null","[2,3]"
"","canvas-keyboard-response","140","219710","0.0-6.0-2.22","16","","","","","rectangles","null","null","","","critical","d","t","c","232.8713","160.6713","240","164","164","240","spektor","0.05","w","240","164","164","240","232.8713","160.6713","39360","39360","37415.7294","tc","null","null","null","null","null","null","[2,3]"
"","canvas-keyboard-response","141","219877","0.0-6.0-3.22","16","","","","","clear_screen","null","null","","","critical","d","t","c","232.8713","160.6713","240","164","164","240","spektor","0.05","w","240","164","164","240","232.8713","160.6713","39360","39360","37415.7294","tc","null","null","null","null","null","null","[2,3]"
"","canvas-keyboard-response","142","221863","0.0-6.0-4.22","16","","","","","make choice","1968","2","","","critical","d","t","c","232.8713","160.6713","240","164","164","240","spektor","0.05","w","240","164","164","240","232.8713","160.6713","39360","39360","37415.7294","tc","null","null","null","null","null","null","[2,3]"
"","canvas-keyboard-response","143","222029","0.0-6.0-5.22","16","","","","","clear_screen","null","null","","","critical","d","t","c","232.8713","160.6713","240","164","164","240","spektor","0.05","w","240","164","164","240","232.8713","160.6713","39360","39360","37415.7294","tc","null","null","null","null","null","null","[2,3]"
"","canvas-keyboard-response","144","222242","0.0-6.0-0.23","16","","","","","pre trial waiting period","null","null","","","catch","sw","l","sh","180","200","220","239","185","199","trueblood","null","null","null","null","null","null","null","null","null","null","null","","180","200","260","200","36000","52000","[2,3]"
"","canvas-keyboard-response","145","222402","0.0-6.0-1.23","16","","","","","clear_screen","null","null","","","catch","sw","l","sh","180","200","220","239","185","199","trueblood","null","null","null","null","null","null","null","null","null","null","null","","180","200","260","200","36000","52000","[2,3]"
"","canvas-keyboard-response","146","223747","0.0-6.0-2.23","16","","","","","rectangles","null","null","","","catch","sw","l","sh","180","200","220","239","185","199","trueblood","null","null","null","null","null","null","null","null","null","null","null","","180","200","260","200","36000","52000","[2,3]"
"","canvas-keyboard-response","147","223915","0.0-6.0-3.23","16","","","","","clear_screen","null","null","","","catch","sw","l","sh","180","200","220","239","185","199","trueblood","null","null","null","null","null","null","null","null","null","null","null","","180","200","260","200","36000","52000","[2,3]"
"","canvas-keyboard-response","148","224542","0.0-6.0-4.23","16","","","","","make choice","610","2","","","catch","sw","l","sh","180","200","220","239","185","199","trueblood","null","null","null","null","null","null","null","null","null","null","null","","180","200","260","200","36000","52000","[2,3]"
"","canvas-keyboard-response","149","224707","0.0-6.0-5.23","16","","","","","clear_screen","null","null","","","catch","sw","l","sh","180","200","220","239","185","199","trueblood","null","null","null","null","null","null","null","null","null","null","null","","180","200","260","200","36000","52000","[2,3]"
"","canvas-keyboard-response","150","224918","0.0-6.0-0.24","16","","","","","pre trial waiting period","null","null","","","catch","sw","sh","l","180","200","239","144","188","285","spektor","null","null","null","null","null","null","null","null","null","null","null","","180","200","260","200","36000","52000","[2,3]"
"","canvas-keyboard-response","151","225078","0.0-6.0-1.24","16","","","","","clear_screen","null","null","","","catch","sw","sh","l","180","200","239","144","188","285","spektor","null","null","null","null","null","null","null","null","null","null","null","","180","200","260","200","36000","52000","[2,3]"
"","canvas-keyboard-response","152","226423","0.0-6.0-2.24","16","","","","","rectangles","null","null","","","catch","sw","sh","l","180","200","239","144","188","285","spektor","null","null","null","null","null","null","null","null","null","null","null","","180","200","260","200","36000","52000","[2,3]"
"","canvas-keyboard-response","153","226591","0.0-6.0-3.24","16","","","","","clear_screen","null","null","","","catch","sw","sh","l","180","200","239","144","188","285","spektor","null","null","null","null","null","null","null","null","null","null","null","","180","200","260","200","36000","52000","[2,3]"
"","canvas-keyboard-response","154","227518","0.0-6.0-4.24","16","","","","","make choice","909","3","","","catch","sw","sh","l","180","200","239","144","188","285","spektor","null","null","null","null","null","null","null","null","null","null","null","","180","200","260","200","36000","52000","[2,3]"
"","canvas-keyboard-response","155","227686","0.0-6.0-5.24","16","","","","","clear_screen","null","null","","","catch","sw","sh","l","180","200","239","144","188","285","spektor","null","null","null","null","null","null","null","null","null","null","null","","180","200","260","200","36000","52000","[2,3]"
"","canvas-keyboard-response","156","227897","0.0-6.0-0.25","16","","","","","pre trial waiting period","null","null","","","critical","d","c","t","237.1485","162.6685","164","240","240","164","spektor","0.02","w","240","164","164","240","237.1485","162.6685","39360","39360","38576.5967","dc","null","null","null","null","null","null","[1,2]"
"","canvas-keyboard-response","157","228057","0.0-6.0-1.25","16","","","","","clear_screen","null","null","","","critical","d","c","t","237.1485","162.6685","164","240","240","164","spektor","0.02","w","240","164","164","240","237.1485","162.6685","39360","39360","38576.5967","dc","null","null","null","null","null","null","[1,2]"
"","canvas-keyboard-response","158","229403","0.0-6.0-2.25","16","","","","","rectangles","null","null","","","critical","d","c","t","237.1485","162.6685","164","240","240","164","spektor","0.02","w","240","164","164","240","237.1485","162.6685","39360","39360","38576.5967","dc","null","null","null","null","null","null","[1,2]"
"","canvas-keyboard-response","159","229570","0.0-6.0-3.25","16","","","","","clear_screen","null","null","","","critical","d","c","t","237.1485","162.6685","164","240","240","164","spektor","0.02","w","240","164","164","240","237.1485","162.6685","39360","39360","38576.5967","dc","null","null","null","null","null","null","[1,2]"
"","canvas-keyboard-response","160","230574","0.0-6.0-4.25","16","","","","","make choice","987","2","","","critical","d","c","t","237.1485","162.6685","164","240","240","164","spektor","0.02","w","240","164","164","240","237.1485","162.6685","39360","39360","38576.5967","dc","null","null","null","null","null","null","[1,2]"
"","canvas-keyboard-response","161","230740","0.0-6.0-5.25","16","","","","","clear_screen","null","null","","","critical","d","c","t","237.1485","162.6685","164","240","240","164","spektor","0.02","w","240","164","164","240","237.1485","162.6685","39360","39360","38576.5967","dc","null","null","null","null","null","null","[1,2]"
"","canvas-keyboard-response","162","230952","0.0-6.0-0.26","16","","","","","pre trial waiting period","null","null","","","critical","t","c","d","240","164","164","240","220.0396","154.6796","trueblood","0.14","w","240","164","164","240","220.0396","154.6796","39360","39360","34035.6388","td","null","null","null","null","null","null","[1,3]"
"","canvas-keyboard-response","163","231110","0.0-6.0-1.26","16","","","","","clear_screen","null","null","","","critical","t","c","d","240","164","164","240","220.0396","154.6796","trueblood","0.14","w","240","164","164","240","220.0396","154.6796","39360","39360","34035.6388","td","null","null","null","null","null","null","[1,3]"
"","canvas-keyboard-response","164","232453","0.0-6.0-2.26","16","","","","","rectangles","null","null","","","critical","t","c","d","240","164","164","240","220.0396","154.6796","trueblood","0.14","w","240","164","164","240","220.0396","154.6796","39360","39360","34035.6388","td","null","null","null","null","null","null","[1,3]"
"","canvas-keyboard-response","165","232621","0.0-6.0-3.26","16","","","","","clear_screen","null","null","","","critical","t","c","d","240","164","164","240","220.0396","154.6796","trueblood","0.14","w","240","164","164","240","220.0396","154.6796","39360","39360","34035.6388","td","null","null","null","null","null","null","[1,3]"
"","canvas-keyboard-response","166","233999","0.0-6.0-4.26","16","","","","","make choice","1360","1","","","critical","t","c","d","240","164","164","240","220.0396","154.6796","trueblood","0.14","w","240","164","164","240","220.0396","154.6796","39360","39360","34035.6388","td","null","null","null","null","null","null","[1,3]"
"","canvas-keyboard-response","167","234164","0.0-6.0-5.26","16","","","","","clear_screen","null","null","","","critical","t","c","d","240","164","164","240","220.0396","154.6796","trueblood","0.14","w","240","164","164","240","220.0396","154.6796","39360","39360","34035.6388","td","null","null","null","null","null","null","[1,3]"
"","canvas-keyboard-response","168","234377","0.0-6.0-0.27","16","","","","","pre trial waiting period","null","null","","","critical","t","c","d","164","240","240","164","162.6685","237.1485","spektor","0.02","h","164","240","240","164","162.6685","237.1485","39360","39360","38576.5967","td","null","null","null","null","null","null","[1,3]"
"","canvas-keyboard-response","169","234537","0.0-6.0-1.27","16","","","","","clear_screen","null","null","","","critical","t","c","d","164","240","240","164","162.6685","237.1485","spektor","0.02","h","164","240","240","164","162.6685","237.1485","39360","39360","38576.5967","td","null","null","null","null","null","null","[1,3]"
"","canvas-keyboard-response","170","235880","0.0-6.0-2.27","16","","","","","rectangles","null","null","","","critical","t","c","d","164","240","240","164","162.6685","237.1485","spektor","0.02","h","164","240","240","164","162.6685","237.1485","39360","39360","38576.5967","td","null","null","null","null","null","null","[1,3]"
"","canvas-keyboard-response","171","236048","0.0-6.0-3.27","16","","","","","clear_screen","null","null","","","critical","t","c","d","164","240","240","164","162.6685","237.1485","spektor","0.02","h","164","240","240","164","162.6685","237.1485","39360","39360","38576.5967","td","null","null","null","null","null","null","[1,3]"
"","canvas-keyboard-response","172","237350","0.0-6.0-4.27","16","","","","","make choice","1286","1","","","critical","t","c","d","164","240","240","164","162.6685","237.1485","spektor","0.02","h","164","240","240","164","162.6685","237.1485","39360","39360","38576.5967","td","null","null","null","null","null","null","[1,3]"
"","canvas-keyboard-response","173","237518","0.0-6.0-5.27","16","","","","","clear_screen","null","null","","","critical","t","c","d","164","240","240","164","162.6685","237.1485","spektor","0.02","h","164","240","240","164","162.6685","237.1485","39360","39360","38576.5967","td","null","null","null","null","null","null","[1,3]"
"","canvas-keyboard-response","174","237729","0.0-6.0-0.28","16","","","","","pre trial waiting period","null","null","","","critical","d","t","c","154.6796","220.0396","164","240","240","164","trueblood","0.14","h","164","240","240","164","154.6796","220.0396","39360","39360","34035.6388","dc","null","null","null","null","null","null","[1,3]"
"","canvas-keyboard-response","175","237888","0.0-6.0-1.28","16","","","","","clear_screen","null","null","","","critical","d","t","c","154.6796","220.0396","164","240","240","164","trueblood","0.14","h","164","240","240","164","154.6796","220.0396","39360","39360","34035.6388","dc","null","null","null","null","null","null","[1,3]"
"","canvas-keyboard-response","176","239234","0.0-6.0-2.28","16","","","","","rectangles","null","null","","","critical","d","t","c","154.6796","220.0396","164","240","240","164","trueblood","0.14","h","164","240","240","164","154.6796","220.0396","39360","39360","34035.6388","dc","null","null","null","null","null","null","[1,3]"
"","canvas-keyboard-response","177","239399","0.0-6.0-3.28","16","","","","","clear_screen","null","null","","","critical","d","t","c","154.6796","220.0396","164","240","240","164","trueblood","0.14","h","164","240","240","164","154.6796","220.0396","39360","39360","34035.6388","dc","null","null","null","null","null","null","[1,3]"
"","canvas-keyboard-response","178","240870","0.0-6.0-4.28","16","","","","","make choice","1455","3","","","critical","d","t","c","154.6796","220.0396","164","240","240","164","trueblood","0.14","h","164","240","240","164","154.6796","220.0396","39360","39360","34035.6388","dc","null","null","null","null","null","null","[1,3]"
"","canvas-keyboard-response","179","241038","0.0-6.0-5.28","16","","","","","clear_screen","null","null","","","critical","d","t","c","154.6796","220.0396","164","240","240","164","trueblood","0.14","h","164","240","240","164","154.6796","220.0396","39360","39360","34035.6388","dc","null","null","null","null","null","null","[1,3]"
"","canvas-keyboard-response","180","241250","0.0-6.0-0.29","16","","","","","pre trial waiting period","null","null","","","critical","d","c","t","220.0396","154.6796","164","240","240","164","spektor","0.14","w","240","164","164","240","220.0396","154.6796","39360","39360","34035.6388","td","null","null","null","null","null","null","[3,1]"
"","canvas-keyboard-response","181","241409","0.0-6.0-1.29","16","","","","","clear_screen","null","null","","","critical","d","c","t","220.0396","154.6796","164","240","240","164","spektor","0.14","w","240","164","164","240","220.0396","154.6796","39360","39360","34035.6388","td","null","null","null","null","null","null","[3,1]"
"","canvas-keyboard-response","182","242753","0.0-6.0-2.29","16","","","","","rectangles","null","null","","","critical","d","c","t","220.0396","154.6796","164","240","240","164","spektor","0.14","w","240","164","164","240","220.0396","154.6796","39360","39360","34035.6388","td","null","null","null","null","null","null","[3,1]"
"","canvas-keyboard-response","183","242920","0.0-6.0-3.29","16","","","","","clear_screen","null","null","","","critical","d","c","t","220.0396","154.6796","164","240","240","164","spektor","0.14","w","240","164","164","240","220.0396","154.6796","39360","39360","34035.6388","td","null","null","null","null","null","null","[3,1]"
"","canvas-keyboard-response","184","245622","0.0-6.0-4.29","16","","","","","make choice","2683","3","","","critical","d","c","t","220.0396","154.6796","164","240","240","164","spektor","0.14","w","240","164","164","240","220.0396","154.6796","39360","39360","34035.6388","td","null","null","null","null","null","null","[3,1]"
"","canvas-keyboard-response","185","245795","0.0-6.0-5.29","16","","","","","clear_screen","null","null","","","critical","d","c","t","220.0396","154.6796","164","240","240","164","spektor","0.14","w","240","164","164","240","220.0396","154.6796","39360","39360","34035.6388","td","null","null","null","null","null","null","[3,1]"
"","canvas-keyboard-response","186","246007","0.0-6.0-0.30","16","","","","","pre trial waiting period","null","null","","","critical","d","t","c","237.1485","162.6685","240","164","164","240","trueblood","0.02","w","240","164","164","240","237.1485","162.6685","39360","39360","38576.5967","tc","null","null","null","null","null","null","[2,3]"
"","canvas-keyboard-response","187","246167","0.0-6.0-1.30","16","","","","","clear_screen","null","null","","","critical","d","t","c","237.1485","162.6685","240","164","164","240","trueblood","0.02","w","240","164","164","240","237.1485","162.6685","39360","39360","38576.5967","tc","null","null","null","null","null","null","[2,3]"
"","canvas-keyboard-response","188","247512","0.0-6.0-2.30","16","","","","","rectangles","null","null","","","critical","d","t","c","237.1485","162.6685","240","164","164","240","trueblood","0.02","w","240","164","164","240","237.1485","162.6685","39360","39360","38576.5967","tc","null","null","null","null","null","null","[2,3]"
"","canvas-keyboard-response","189","247680","0.0-6.0-3.30","16","","","","","clear_screen","null","null","","","critical","d","t","c","237.1485","162.6685","240","164","164","240","trueblood","0.02","w","240","164","164","240","237.1485","162.6685","39360","39360","38576.5967","tc","null","null","null","null","null","null","[2,3]"
"","canvas-keyboard-response","190","248558","0.0-6.0-4.30","16","","","","","make choice","860","2","","","critical","d","t","c","237.1485","162.6685","240","164","164","240","trueblood","0.02","w","240","164","164","240","237.1485","162.6685","39360","39360","38576.5967","tc","null","null","null","null","null","null","[2,3]"
"","canvas-keyboard-response","191","248724","0.0-6.0-5.30","16","","","","","clear_screen","null","null","","","critical","d","t","c","237.1485","162.6685","240","164","164","240","trueblood","0.02","w","240","164","164","240","237.1485","162.6685","39360","39360","38576.5967","tc","null","null","null","null","null","null","[2,3]"
"","canvas-keyboard-response","192","248937","0.0-6.0-0.31","16","","","","","pre trial waiting period","null","null","","","critical","d","t","c","160.6713","232.8713","164","240","240","164","spektor","0.05","h","164","240","240","164","160.6713","232.8713","39360","39360","37415.7294","tc","null","null","null","null","null","null","[2,3]"
"","canvas-keyboard-response","193","249096","0.0-6.0-1.31","16","","","","","clear_screen","null","null","","","critical","d","t","c","160.6713","232.8713","164","240","240","164","spektor","0.05","h","164","240","240","164","160.6713","232.8713","39360","39360","37415.7294","tc","null","null","null","null","null","null","[2,3]"
"","canvas-keyboard-response","194","250442","0.0-6.0-2.31","16","","","","","rectangles","null","null","","","critical","d","t","c","160.6713","232.8713","164","240","240","164","spektor","0.05","h","164","240","240","164","160.6713","232.8713","39360","39360","37415.7294","tc","null","null","null","null","null","null","[2,3]"
"","canvas-keyboard-response","195","250610","0.0-6.0-3.31","16","","","","","clear_screen","null","null","","","critical","d","t","c","160.6713","232.8713","164","240","240","164","spektor","0.05","h","164","240","240","164","160.6713","232.8713","39360","39360","37415.7294","tc","null","null","null","null","null","null","[2,3]"
"","canvas-keyboard-response","196","251838","0.0-6.0-4.31","16","","","","","make choice","1209","2","","","critical","d","t","c","160.6713","232.8713","164","240","240","164","spektor","0.05","h","164","240","240","164","160.6713","232.8713","39360","39360","37415.7294","tc","null","null","null","null","null","null","[2,3]"
"","canvas-keyboard-response","197","252008","0.0-6.0-5.31","16","","","","","clear_screen","null","null","","","critical","d","t","c","160.6713","232.8713","164","240","240","164","spektor","0.05","h","164","240","240","164","160.6713","232.8713","39360","39360","37415.7294","tc","null","null","null","null","null","null","[2,3]"
"","canvas-keyboard-response","198","252229","0.0-6.0-0.32","16","","","","","pre trial waiting period","null","null","","","critical","d","c","t","227.1683","158.0083","164","240","240","164","spektor","0.09","w","240","164","164","240","227.1683","158.0083","39360","39360","35894.4834","dc","null","null","null","null","null","null","[1,2]"
"","canvas-keyboard-response","199","252391","0.0-6.0-1.32","16","","","","","clear_screen","null","null","","","critical","d","c","t","227.1683","158.0083","164","240","240","164","spektor","0.09","w","240","164","164","240","227.1683","158.0083","39360","39360","35894.4834","dc","null","null","null","null","null","null","[1,2]"
"","canvas-keyboard-response","200","253747","0.0-6.0-2.32","16","","","","","rectangles","null","null","","","critical","d","c","t","227.1683","158.0083","164","240","240","164","spektor","0.09","w","240","164","164","240","227.1683","158.0083","39360","39360","35894.4834","dc","null","null","null","null","null","null","[1,2]"
"","canvas-keyboard-response","201","253924","0.0-6.0-3.32","16","","","","","clear_screen","null","null","","","critical","d","c","t","227.1683","158.0083","164","240","240","164","spektor","0.09","w","240","164","164","240","227.1683","158.0083","39360","39360","35894.4834","dc","null","null","null","null","null","null","[1,2]"
"","canvas-keyboard-response","202","255374","0.0-6.0-4.32","16","","","","","make choice","1430","2","","","critical","d","c","t","227.1683","158.0083","164","240","240","164","spektor","0.09","w","240","164","164","240","227.1683","158.0083","39360","39360","35894.4834","dc","null","null","null","null","null","null","[1,2]"
"","canvas-keyboard-response","203","255543","0.0-6.0-5.32","16","","","","","clear_screen","null","null","","","critical","d","c","t","227.1683","158.0083","164","240","240","164","spektor","0.09","w","240","164","164","240","227.1683","158.0083","39360","39360","35894.4834","dc","null","null","null","null","null","null","[1,2]"
"","canvas-keyboard-response","204","255758","0.0-6.0-0.33","16","","","","","pre trial waiting period","null","null","","","critical","c","d","t","164","240","237.1485","162.6685","240","164","trueblood","0.02","w","240","164","164","240","237.1485","162.6685","39360","39360","38576.5967","dc","null","null","null","null","null","null","[2,1]"
"","canvas-keyboard-response","205","255919","0.0-6.0-1.33","16","","","","","clear_screen","null","null","","","critical","c","d","t","164","240","237.1485","162.6685","240","164","trueblood","0.02","w","240","164","164","240","237.1485","162.6685","39360","39360","38576.5967","dc","null","null","null","null","null","null","[2,1]"
"","canvas-keyboard-response","206","257265","0.0-6.0-2.33","16","","","","","rectangles","null","null","","","critical","c","d","t","164","240","237.1485","162.6685","240","164","trueblood","0.02","w","240","164","164","240","237.1485","162.6685","39360","39360","38576.5967","dc","null","null","null","null","null","null","[2,1]"
"","canvas-keyboard-response","207","257435","0.0-6.0-3.33","16","","","","","clear_screen","null","null","","","critical","c","d","t","164","240","237.1485","162.6685","240","164","trueblood","0.02","w","240","164","164","240","237.1485","162.6685","39360","39360","38576.5967","dc","null","null","null","null","null","null","[2,1]"
"","canvas-keyboard-response","208","259614","0.0-6.0-4.33","16","","","","","make choice","2157","1","","","critical","c","d","t","164","240","237.1485","162.6685","240","164","trueblood","0.02","w","240","164","164","240","237.1485","162.6685","39360","39360","38576.5967","dc","null","null","null","null","null","null","[2,1]"
"","canvas-keyboard-response","209","259794","0.0-6.0-5.33","16","","","","","clear_screen","null","null","","","critical","c","d","t","164","240","237.1485","162.6685","240","164","trueblood","0.02","w","240","164","164","240","237.1485","162.6685","39360","39360","38576.5967","dc","null","null","null","null","null","null","[2,1]"
"","canvas-keyboard-response","210","260005","0.0-6.0-0.34","16","","","","","pre trial waiting period","null","null","","","catch","sw","sh","l","180","200","237","150","220","219","spektor","null","null","null","null","null","null","null","null","null","null","null","","180","200","260","200","36000","52000","[2,3]"
"","canvas-keyboard-response","211","260165","0.0-6.0-1.34","16","","","","","clear_screen","null","null","","","catch","sw","sh","l","180","200","237","150","220","219","spektor","null","null","null","null","null","null","null","null","null","null","null","","180","200","260","200","36000","52000","[2,3]"
"","canvas-keyboard-response","212","261511","0.0-6.0-2.34","16","","","","","rectangles","null","null","","","catch","sw","sh","l","180","200","237","150","220","219","spektor","null","null","null","null","null","null","null","null","null","null","null","","180","200","260","200","36000","52000","[2,3]"
"","canvas-keyboard-response","213","261681","0.0-6.0-3.34","16","","","","","clear_screen","null","null","","","catch","sw","sh","l","180","200","237","150","220","219","spektor","null","null","null","null","null","null","null","null","null","null","null","","180","200","260","200","36000","52000","[2,3]"
"","canvas-keyboard-response","214","262654","0.0-6.0-4.34","16","","","","","make choice","952","3","","","catch","sw","sh","l","180","200","237","150","220","219","spektor","null","null","null","null","null","null","null","null","null","null","null","","180","200","260","200","36000","52000","[2,3]"
"","canvas-keyboard-response","215","262823","0.0-6.0-5.34","16","","","","","clear_screen","null","null","","","catch","sw","sh","l","180","200","237","150","220","219","spektor","null","null","null","null","null","null","null","null","null","null","null","","180","200","260","200","36000","52000","[2,3]"
"","canvas-keyboard-response","216","263036","0.0-6.0-0.35","16","","","","","pre trial waiting period","null","null","","","critical","d","t","c","227.1683","158.0083","240","164","164","240","trueblood","0.09","w","240","164","164","240","227.1683","158.0083","39360","39360","35894.4834","tc","null","null","null","null","null","null","[2,3]"
"","canvas-keyboard-response","217","263196","0.0-6.0-1.35","16","","","","","clear_screen","null","null","","","critical","d","t","c","227.1683","158.0083","240","164","164","240","trueblood","0.09","w","240","164","164","240","227.1683","158.0083","39360","39360","35894.4834","tc","null","null","null","null","null","null","[2,3]"
"","canvas-keyboard-response","218","264544","0.0-6.0-2.35","16","","","","","rectangles","null","null","","","critical","d","t","c","227.1683","158.0083","240","164","164","240","trueblood","0.09","w","240","164","164","240","227.1683","158.0083","39360","39360","35894.4834","tc","null","null","null","null","null","null","[2,3]"
"","canvas-keyboard-response","219","264713","0.0-6.0-3.35","16","","","","","clear_screen","null","null","","","critical","d","t","c","227.1683","158.0083","240","164","164","240","trueblood","0.09","w","240","164","164","240","227.1683","158.0083","39360","39360","35894.4834","tc","null","null","null","null","null","null","[2,3]"
"","canvas-keyboard-response","220","266110","0.0-6.0-4.35","16","","","","","make choice","1377","3","","","critical","d","t","c","227.1683","158.0083","240","164","164","240","trueblood","0.09","w","240","164","164","240","227.1683","158.0083","39360","39360","35894.4834","tc","null","null","null","null","null","null","[2,3]"
"","canvas-keyboard-response","221","266279","0.0-6.0-5.35","16","","","","","clear_screen","null","null","","","critical","d","t","c","227.1683","158.0083","240","164","164","240","trueblood","0.09","w","240","164","164","240","227.1683","158.0083","39360","39360","35894.4834","tc","null","null","null","null","null","null","[2,3]"
"","canvas-keyboard-response","222","266493","0.0-6.0-0.36","16","","","","","pre trial waiting period","null","null","","","critical","t","c","d","240","164","164","240","220.0396","154.6796","trueblood","0.14","w","240","164","164","240","220.0396","154.6796","39360","39360","34035.6388","tc","null","null","null","null","null","null","[1,2]"
"","canvas-keyboard-response","223","266653","0.0-6.0-1.36","16","","","","","clear_screen","null","null","","","critical","t","c","d","240","164","164","240","220.0396","154.6796","trueblood","0.14","w","240","164","164","240","220.0396","154.6796","39360","39360","34035.6388","tc","null","null","null","null","null","null","[1,2]"
"","canvas-keyboard-response","224","267998","0.0-6.0-2.36","16","","","","","rectangles","null","null","","","critical","t","c","d","240","164","164","240","220.0396","154.6796","trueblood","0.14","w","240","164","164","240","220.0396","154.6796","39360","39360","34035.6388","tc","null","null","null","null","null","null","[1,2]"
"","canvas-keyboard-response","225","268166","0.0-6.0-3.36","16","","","","","clear_screen","null","null","","","critical","t","c","d","240","164","164","240","220.0396","154.6796","trueblood","0.14","w","240","164","164","240","220.0396","154.6796","39360","39360","34035.6388","tc","null","null","null","null","null","null","[1,2]"
"","canvas-keyboard-response","226","268791","0.0-6.0-4.36","16","","","","","make choice","605","2","","","critical","t","c","d","240","164","164","240","220.0396","154.6796","trueblood","0.14","w","240","164","164","240","220.0396","154.6796","39360","39360","34035.6388","tc","null","null","null","null","null","null","[1,2]"
"","canvas-keyboard-response","227","268960","0.0-6.0-5.36","16","","","","","clear_screen","null","null","","","critical","t","c","d","240","164","164","240","220.0396","154.6796","trueblood","0.14","w","240","164","164","240","220.0396","154.6796","39360","39360","34035.6388","tc","null","null","null","null","null","null","[1,2]"
"","canvas-keyboard-response","228","269175","0.0-6.0-0.37","16","","","","","pre trial waiting period","null","null","","","critical","c","t","d","164","240","240","164","232.8713","160.6713","trueblood","0.05","w","240","164","164","240","232.8713","160.6713","39360","39360","37415.7294","dc","null","null","null","null","null","null","[3,1]"
"","canvas-keyboard-response","229","269333","0.0-6.0-1.37","16","","","","","clear_screen","null","null","","","critical","c","t","d","164","240","240","164","232.8713","160.6713","trueblood","0.05","w","240","164","164","240","232.8713","160.6713","39360","39360","37415.7294","dc","null","null","null","null","null","null","[3,1]"
"","canvas-keyboard-response","230","270680","0.0-6.0-2.37","16","","","","","rectangles","null","null","","","critical","c","t","d","164","240","240","164","232.8713","160.6713","trueblood","0.05","w","240","164","164","240","232.8713","160.6713","39360","39360","37415.7294","dc","null","null","null","null","null","null","[3,1]"
"","canvas-keyboard-response","231","270849","0.0-6.0-3.37","16","","","","","clear_screen","null","null","","","critical","c","t","d","164","240","240","164","232.8713","160.6713","trueblood","0.05","w","240","164","164","240","232.8713","160.6713","39360","39360","37415.7294","dc","null","null","null","null","null","null","[3,1]"
"","canvas-keyboard-response","232","272223","0.0-6.0-4.37","16","","","","","make choice","1352","1","","","critical","c","t","d","164","240","240","164","232.8713","160.6713","trueblood","0.05","w","240","164","164","240","232.8713","160.6713","39360","39360","37415.7294","dc","null","null","null","null","null","null","[3,1]"
"","canvas-keyboard-response","233","272392","0.0-6.0-5.37","16","","","","","clear_screen","null","null","","","critical","c","t","d","164","240","240","164","232.8713","160.6713","trueblood","0.05","w","240","164","164","240","232.8713","160.6713","39360","39360","37415.7294","dc","null","null","null","null","null","null","[3,1]"
"","canvas-keyboard-response","234","272606","0.0-6.0-0.38","16","","","","","pre trial waiting period","null","null","","","critical","d","c","t","232.8713","160.6713","164","240","240","164","spektor","0.05","w","240","164","164","240","232.8713","160.6713","39360","39360","37415.7294","td","null","null","null","null","null","null","[3,1]"
"","canvas-keyboard-response","235","272766","0.0-6.0-1.38","16","","","","","clear_screen","null","null","","","critical","d","c","t","232.8713","160.6713","164","240","240","164","spektor","0.05","w","240","164","164","240","232.8713","160.6713","39360","39360","37415.7294","td","null","null","null","null","null","null","[3,1]"
"","canvas-keyboard-response","236","274112","0.0-6.0-2.38","16","","","","","rectangles","null","null","","","critical","d","c","t","232.8713","160.6713","164","240","240","164","spektor","0.05","w","240","164","164","240","232.8713","160.6713","39360","39360","37415.7294","td","null","null","null","null","null","null","[3,1]"
"","canvas-keyboard-response","237","274283","0.0-6.0-3.38","16","","","","","clear_screen","null","null","","","critical","d","c","t","232.8713","160.6713","164","240","240","164","spektor","0.05","w","240","164","164","240","232.8713","160.6713","39360","39360","37415.7294","td","null","null","null","null","null","null","[3,1]"
"","canvas-keyboard-response","238","275830","0.0-6.0-4.38","16","","","","","make choice","1528","3","","","critical","d","c","t","232.8713","160.6713","164","240","240","164","spektor","0.05","w","240","164","164","240","232.8713","160.6713","39360","39360","37415.7294","td","null","null","null","null","null","null","[3,1]"
"","canvas-keyboard-response","239","276001","0.0-6.0-5.38","16","","","","","clear_screen","null","null","","","critical","d","c","t","232.8713","160.6713","164","240","240","164","spektor","0.05","w","240","164","164","240","232.8713","160.6713","39360","39360","37415.7294","td","null","null","null","null","null","null","[3,1]"
"","canvas-keyboard-response","240","276216","0.0-6.0-0.39","16","","","","","pre trial waiting period","null","null","","","critical","d","t","c","160.6713","232.8713","164","240","240","164","spektor","0.05","h","164","240","240","164","160.6713","232.8713","39360","39360","37415.7294","dc","null","null","null","null","null","null","[1,3]"
"","canvas-keyboard-response","241","276375","0.0-6.0-1.39","16","","","","","clear_screen","null","null","","","critical","d","t","c","160.6713","232.8713","164","240","240","164","spektor","0.05","h","164","240","240","164","160.6713","232.8713","39360","39360","37415.7294","dc","null","null","null","null","null","null","[1,3]"
"","canvas-keyboard-response","242","277721","0.0-6.0-2.39","16","","","","","rectangles","null","null","","","critical","d","t","c","160.6713","232.8713","164","240","240","164","spektor","0.05","h","164","240","240","164","160.6713","232.8713","39360","39360","37415.7294","dc","null","null","null","null","null","null","[1,3]"
"","canvas-keyboard-response","243","277891","0.0-6.0-3.39","16","","","","","clear_screen","null","null","","","critical","d","t","c","160.6713","232.8713","164","240","240","164","spektor","0.05","h","164","240","240","164","160.6713","232.8713","39360","39360","37415.7294","dc","null","null","null","null","null","null","[1,3]"
"","canvas-keyboard-response","244","279326","0.0-6.0-4.39","16","","","","","make choice","1414","3","","","critical","d","t","c","160.6713","232.8713","164","240","240","164","spektor","0.05","h","164","240","240","164","160.6713","232.8713","39360","39360","37415.7294","dc","null","null","null","null","null","null","[1,3]"
"","canvas-keyboard-response","245","279496","0.0-6.0-5.39","16","","","","","clear_screen","null","null","","","critical","d","t","c","160.6713","232.8713","164","240","240","164","spektor","0.05","h","164","240","240","164","160.6713","232.8713","39360","39360","37415.7294","dc","null","null","null","null","null","null","[1,3]"
"","canvas-keyboard-response","246","279709","0.0-6.0-0.40","16","","","","","pre trial waiting period","null","null","","","critical","t","c","d","240","164","164","240","240","164","spektor","0","w","240","164","164","240","240","164","39360","39360","39360","tc","null","null","null","null","null","null","[1,2]"
"","canvas-keyboard-response","247","279869","0.0-6.0-1.40","16","","","","","clear_screen","null","null","","","critical","t","c","d","240","164","164","240","240","164","spektor","0","w","240","164","164","240","240","164","39360","39360","39360","tc","null","null","null","null","null","null","[1,2]"
"","canvas-keyboard-response","248","281216","0.0-6.0-2.40","16","","","","","rectangles","null","null","","","critical","t","c","d","240","164","164","240","240","164","spektor","0","w","240","164","164","240","240","164","39360","39360","39360","tc","null","null","null","null","null","null","[1,2]"
"","canvas-keyboard-response","249","281388","0.0-6.0-3.40","16","","","","","clear_screen","null","null","","","critical","t","c","d","240","164","164","240","240","164","spektor","0","w","240","164","164","240","240","164","39360","39360","39360","tc","null","null","null","null","null","null","[1,2]"
"","canvas-keyboard-response","250","282655","0.0-6.0-4.40","16","","","","","make choice","1245","1","","","critical","t","c","d","240","164","164","240","240","164","spektor","0","w","240","164","164","240","240","164","39360","39360","39360","tc","null","null","null","null","null","null","[1,2]"
"","canvas-keyboard-response","251","282824","0.0-6.0-5.40","16","","","","","clear_screen","null","null","","","critical","t","c","d","240","164","164","240","240","164","spektor","0","w","240","164","164","240","240","164","39360","39360","39360","tc","null","null","null","null","null","null","[1,2]"
"","canvas-keyboard-response","252","283039","0.0-6.0-0.41","16","","","","","pre trial waiting period","null","null","","","critical","d","c","t","240","164","164","240","240","164","trueblood","0","w","240","164","164","240","240","164","39360","39360","39360","td","null","null","null","null","null","null","[3,1]"
"","canvas-keyboard-response","253","283199","0.0-6.0-1.41","16","","","","","clear_screen","null","null","","","critical","d","c","t","240","164","164","240","240","164","trueblood","0","w","240","164","164","240","240","164","39360","39360","39360","td","null","null","null","null","null","null","[3,1]"
"","canvas-keyboard-response","254","284546","0.0-6.0-2.41","16","","","","","rectangles","null","null","","","critical","d","c","t","240","164","164","240","240","164","trueblood","0","w","240","164","164","240","240","164","39360","39360","39360","td","null","null","null","null","null","null","[3,1]"
"","canvas-keyboard-response","255","284718","0.0-6.0-3.41","16","","","","","clear_screen","null","null","","","critical","d","c","t","240","164","164","240","240","164","trueblood","0","w","240","164","164","240","240","164","39360","39360","39360","td","null","null","null","null","null","null","[3,1]"
"","canvas-keyboard-response","256","286262","0.0-6.0-4.41","16","","","","","make choice","1523","1","","","critical","d","c","t","240","164","164","240","240","164","trueblood","0","w","240","164","164","240","240","164","39360","39360","39360","td","null","null","null","null","null","null","[3,1]"
"","canvas-keyboard-response","257","286434","0.0-6.0-5.41","16","","","","","clear_screen","null","null","","","critical","d","c","t","240","164","164","240","240","164","trueblood","0","w","240","164","164","240","240","164","39360","39360","39360","td","null","null","null","null","null","null","[3,1]"
"","canvas-keyboard-response","258","286650","0.0-6.0-0.42","16","","","","","pre trial waiting period","null","null","","","catch","l","sw","sh","182","255","184","205","185","212","trueblood","null","null","null","null","null","null","null","null","null","null","null","","180","200","260","200","36000","52000","[1,3]"
"","canvas-keyboard-response","259","286810","0.0-6.0-1.42","16","","","","","clear_screen","null","null","","","catch","l","sw","sh","182","255","184","205","185","212","trueblood","null","null","null","null","null","null","null","null","null","null","null","","180","200","260","200","36000","52000","[1,3]"
"","canvas-keyboard-response","260","288158","0.0-6.0-2.42","16","","","","","rectangles","null","null","","","catch","l","sw","sh","182","255","184","205","185","212","trueblood","null","null","null","null","null","null","null","null","null","null","null","","180","200","260","200","36000","52000","[1,3]"
"","canvas-keyboard-response","261","288331","0.0-6.0-3.42","16","","","","","clear_screen","null","null","","","catch","l","sw","sh","182","255","184","205","185","212","trueblood","null","null","null","null","null","null","null","null","null","null","null","","180","200","260","200","36000","52000","[1,3]"
"","canvas-keyboard-response","262","289239","0.0-6.0-4.42","16","","","","","make choice","884","1","","","catch","l","sw","sh","182","255","184","205","185","212","trueblood","null","null","null","null","null","null","null","null","null","null","null","","180","200","260","200","36000","52000","[1,3]"
"","canvas-keyboard-response","263","289408","0.0-6.0-5.42","16","","","","","clear_screen","null","null","","","catch","l","sw","sh","182","255","184","205","185","212","trueblood","null","null","null","null","null","null","null","null","null","null","null","","180","200","260","200","36000","52000","[1,3]"
"","canvas-keyboard-response","264","289624","0.0-6.0-0.43","16","","","","","pre trial waiting period","null","null","","","critical","d","t","c","158.0083","227.1683","164","240","240","164","trueblood","0.09","h","164","240","240","164","158.0083","227.1683","39360","39360","35894.4834","dc","null","null","null","null","null","null","[1,3]"
"","canvas-keyboard-response","265","289783","0.0-6.0-1.43","16","","","","","clear_screen","null","null","","","critical","d","t","c","158.0083","227.1683","164","240","240","164","trueblood","0.09","h","164","240","240","164","158.0083","227.1683","39360","39360","35894.4834","dc","null","null","null","null","null","null","[1,3]"
"","canvas-keyboard-response","266","291130","0.0-6.0-2.43","16","","","","","rectangles","null","null","","","critical","d","t","c","158.0083","227.1683","164","240","240","164","trueblood","0.09","h","164","240","240","164","158.0083","227.1683","39360","39360","35894.4834","dc","null","null","null","null","null","null","[1,3]"
"","canvas-keyboard-response","267","291314","0.0-6.0-3.43","16","","","","","clear_screen","null","null","","","critical","d","t","c","158.0083","227.1683","164","240","240","164","trueblood","0.09","h","164","240","240","164","158.0083","227.1683","39360","39360","35894.4834","dc","null","null","null","null","null","null","[1,3]"
"","canvas-keyboard-response","268","292838","0.0-6.0-4.43","16","","","","","make choice","1494","3","","","critical","d","t","c","158.0083","227.1683","164","240","240","164","trueblood","0.09","h","164","240","240","164","158.0083","227.1683","39360","39360","35894.4834","dc","null","null","null","null","null","null","[1,3]"
"","canvas-keyboard-response","269","293021","0.0-6.0-5.43","16","","","","","clear_screen","null","null","","","critical","d","t","c","158.0083","227.1683","164","240","240","164","trueblood","0.09","h","164","240","240","164","158.0083","227.1683","39360","39360","35894.4834","dc","null","null","null","null","null","null","[1,3]"
"","canvas-keyboard-response","270","293237","0.0-6.0-0.44","16","","","","","pre trial waiting period","null","null","","","critical","d","t","c","162.6685","237.1485","164","240","240","164","spektor","0.02","h","164","240","240","164","162.6685","237.1485","39360","39360","38576.5967","tc","null","null","null","null","null","null","[2,3]"
"","canvas-keyboard-response","271","293397","0.0-6.0-1.44","16","","","","","clear_screen","null","null","","","critical","d","t","c","162.6685","237.1485","164","240","240","164","spektor","0.02","h","164","240","240","164","162.6685","237.1485","39360","39360","38576.5967","tc","null","null","null","null","null","null","[2,3]"
"","canvas-keyboard-response","272","294745","0.0-6.0-2.44","16","","","","","rectangles","null","null","","","critical","d","t","c","162.6685","237.1485","164","240","240","164","spektor","0.02","h","164","240","240","164","162.6685","237.1485","39360","39360","38576.5967","tc","null","null","null","null","null","null","[2,3]"
"","canvas-keyboard-response","273","294920","0.0-6.0-3.44","16","","","","","clear_screen","null","null","","","critical","d","t","c","162.6685","237.1485","164","240","240","164","spektor","0.02","h","164","240","240","164","162.6685","237.1485","39360","39360","38576.5967","tc","null","null","null","null","null","null","[2,3]"
"","canvas-keyboard-response","274","295902","0.0-6.0-4.44","16","","","","","make choice","959","2","","","critical","d","t","c","162.6685","237.1485","164","240","240","164","spektor","0.02","h","164","240","240","164","162.6685","237.1485","39360","39360","38576.5967","tc","null","null","null","null","null","null","[2,3]"
"","canvas-keyboard-response","275","296074","0.0-6.0-5.44","16","","","","","clear_screen","null","null","","","critical","d","t","c","162.6685","237.1485","164","240","240","164","spektor","0.02","h","164","240","240","164","162.6685","237.1485","39360","39360","38576.5967","tc","null","null","null","null","null","null","[2,3]"
"","canvas-keyboard-response","276","296292","0.0-6.0-0.45","16","","","","","pre trial waiting period","null","null","","","critical","d","t","c","160.6713","232.8713","164","240","240","164","trueblood","0.05","h","164","240","240","164","160.6713","232.8713","39360","39360","37415.7294","tc","null","null","null","null","null","null","[2,3]"
"","canvas-keyboard-response","277","296452","0.0-6.0-1.45","16","","","","","clear_screen","null","null","","","critical","d","t","c","160.6713","232.8713","164","240","240","164","trueblood","0.05","h","164","240","240","164","160.6713","232.8713","39360","39360","37415.7294","tc","null","null","null","null","null","null","[2,3]"
"","canvas-keyboard-response","278","297801","0.0-6.0-2.45","16","","","","","rectangles","null","null","","","critical","d","t","c","160.6713","232.8713","164","240","240","164","trueblood","0.05","h","164","240","240","164","160.6713","232.8713","39360","39360","37415.7294","tc","null","null","null","null","null","null","[2,3]"
"","canvas-keyboard-response","279","297974","0.0-6.0-3.45","16","","","","","clear_screen","null","null","","","critical","d","t","c","160.6713","232.8713","164","240","240","164","trueblood","0.05","h","164","240","240","164","160.6713","232.8713","39360","39360","37415.7294","tc","null","null","null","null","null","null","[2,3]"
"","canvas-keyboard-response","280","298557","0.0-6.0-4.45","16","","","","","make choice","561","2","","","critical","d","t","c","160.6713","232.8713","164","240","240","164","trueblood","0.05","h","164","240","240","164","160.6713","232.8713","39360","39360","37415.7294","tc","null","null","null","null","null","null","[2,3]"
"","canvas-keyboard-response","281","298728","0.0-6.0-5.45","16","","","","","clear_screen","null","null","","","critical","d","t","c","160.6713","232.8713","164","240","240","164","trueblood","0.05","h","164","240","240","164","160.6713","232.8713","39360","39360","37415.7294","tc","null","null","null","null","null","null","[2,3]"
"","canvas-keyboard-response","282","298944","0.0-6.0-0.46","16","","","","","pre trial waiting period","null","null","","","catch","sh","l","sw","190","211","231","250","150","200","spektor","null","null","null","null","null","null","null","null","null","null","null","","180","200","260","200","36000","52000","[2,3]"
"","canvas-keyboard-response","283","299104","0.0-6.0-1.46","16","","","","","clear_screen","null","null","","","catch","sh","l","sw","190","211","231","250","150","200","spektor","null","null","null","null","null","null","null","null","null","null","null","","180","200","260","200","36000","52000","[2,3]"
"","canvas-keyboard-response","284","300452","0.0-6.0-2.46","16","","","","","rectangles","null","null","","","catch","sh","l","sw","190","211","231","250","150","200","spektor","null","null","null","null","null","null","null","null","null","null","null","","180","200","260","200","36000","52000","[2,3]"
"","canvas-keyboard-response","285","300625","0.0-6.0-3.46","16","","","","","clear_screen","null","null","","","catch","sh","l","sw","190","211","231","250","150","200","spektor","null","null","null","null","null","null","null","null","null","null","null","","180","200","260","200","36000","52000","[2,3]"
"","canvas-keyboard-response","286","301174","0.0-6.0-4.46","16","","","","","make choice","526","2","","","catch","sh","l","sw","190","211","231","250","150","200","spektor","null","null","null","null","null","null","null","null","null","null","null","","180","200","260","200","36000","52000","[2,3]"
"","canvas-keyboard-response","287","301345","0.0-6.0-5.46","16","","","","","clear_screen","null","null","","","catch","sh","l","sw","190","211","231","250","150","200","spektor","null","null","null","null","null","null","null","null","null","null","null","","180","200","260","200","36000","52000","[2,3]"
"","canvas-keyboard-response","288","301563","0.0-6.0-0.47","16","","","","","pre trial waiting period","null","null","","","critical","t","c","d","164","240","240","164","160.6713","232.8713","spektor","0.05","h","164","240","240","164","160.6713","232.8713","39360","39360","37415.7294","td","null","null","null","null","null","null","[1,3]"
"","canvas-keyboard-response","289","301723","0.0-6.0-1.47","16","","","","","clear_screen","null","null","","","critical","t","c","d","164","240","240","164","160.6713","232.8713","spektor","0.05","h","164","240","240","164","160.6713","232.8713","39360","39360","37415.7294","td","null","null","null","null","null","null","[1,3]"
"","canvas-keyboard-response","290","303072","0.0-6.0-2.47","16","","","","","rectangles","null","null","","","critical","t","c","d","164","240","240","164","160.6713","232.8713","spektor","0.05","h","164","240","240","164","160.6713","232.8713","39360","39360","37415.7294","td","null","null","null","null","null","null","[1,3]"
"","canvas-keyboard-response","291","303242","0.0-6.0-3.47","16","","","","","clear_screen","null","null","","","critical","t","c","d","164","240","240","164","160.6713","232.8713","spektor","0.05","h","164","240","240","164","160.6713","232.8713","39360","39360","37415.7294","td","null","null","null","null","null","null","[1,3]"
"","canvas-keyboard-response","292","304150","0.0-6.0-4.47","16","","","","","make choice","886","1","","","critical","t","c","d","164","240","240","164","160.6713","232.8713","spektor","0.05","h","164","240","240","164","160.6713","232.8713","39360","39360","37415.7294","td","null","null","null","null","null","null","[1,3]"
"","canvas-keyboard-response","293","304320","0.0-6.0-5.47","16","","","","","clear_screen","null","null","","","critical","t","c","d","164","240","240","164","160.6713","232.8713","spektor","0.05","h","164","240","240","164","160.6713","232.8713","39360","39360","37415.7294","td","null","null","null","null","null","null","[1,3]"
"","canvas-keyboard-response","294","304537","0.0-6.0-0.48","16","","","","","pre trial waiting period","null","null","","","catch","sw","l","sh","180","200","189","224","168","165","spektor","null","null","null","null","null","null","null","null","null","null","null","","180","200","260","200","36000","52000","[2,3]"
"","canvas-keyboard-response","295","304696","0.0-6.0-1.48","16","","","","","clear_screen","null","null","","","catch","sw","l","sh","180","200","189","224","168","165","spektor","null","null","null","null","null","null","null","null","null","null","null","","180","200","260","200","36000","52000","[2,3]"
"","canvas-keyboard-response","296","306047","0.0-6.0-2.48","16","","","","","rectangles","null","null","","","catch","sw","l","sh","180","200","189","224","168","165","spektor","null","null","null","null","null","null","null","null","null","null","null","","180","200","260","200","36000","52000","[2,3]"
"","canvas-keyboard-response","297","306220","0.0-6.0-3.48","16","","","","","clear_screen","null","null","","","catch","sw","l","sh","180","200","189","224","168","165","spektor","null","null","null","null","null","null","null","null","null","null","null","","180","200","260","200","36000","52000","[2,3]"
"","canvas-keyboard-response","298","307510","0.0-6.0-4.48","16","","","","","make choice","1267","2","","","catch","sw","l","sh","180","200","189","224","168","165","spektor","null","null","null","null","null","null","null","null","null","null","null","","180","200","260","200","36000","52000","[2,3]"
"","canvas-keyboard-response","299","307682","0.0-6.0-5.48","16","","","","","clear_screen","null","null","","","catch","sw","l","sh","180","200","189","224","168","165","spektor","null","null","null","null","null","null","null","null","null","null","null","","180","200","260","200","36000","52000","[2,3]"
"","canvas-keyboard-response","300","307898","0.0-6.0-0.49","16","","","","","pre trial waiting period","null","null","","","catch","sh","l","sw","214","178","293","182","201","220","spektor","null","null","null","null","null","null","null","null","null","null","null","","180","200","260","200","36000","52000","[2,3]"
"","canvas-keyboard-response","301","308057","0.0-6.0-1.49","16","","","","","clear_screen","null","null","","","catch","sh","l","sw","214","178","293","182","201","220","spektor","null","null","null","null","null","null","null","null","null","null","null","","180","200","260","200","36000","52000","[2,3]"
"","canvas-keyboard-response","302","309406","0.0-6.0-2.49","16","","","","","rectangles","null","null","","","catch","sh","l","sw","214","178","293","182","201","220","spektor","null","null","null","null","null","null","null","null","null","null","null","","180","200","260","200","36000","52000","[2,3]"
"","canvas-keyboard-response","303","309579","0.0-6.0-3.49","16","","","","","clear_screen","null","null","","","catch","sh","l","sw","214","178","293","182","201","220","spektor","null","null","null","null","null","null","null","null","null","null","null","","180","200","260","200","36000","52000","[2,3]"
"","canvas-keyboard-response","304","310062","0.0-6.0-4.49","16","","","","","make choice","461","2","","","catch","sh","l","sw","214","178","293","182","201","220","spektor","null","null","null","null","null","null","null","null","null","null","null","","180","200","260","200","36000","52000","[2,3]"
"","canvas-keyboard-response","305","310235","0.0-6.0-5.49","16","","","","","clear_screen","null","null","","","catch","sh","l","sw","214","178","293","182","201","220","spektor","null","null","null","null","null","null","null","null","null","null","null","","180","200","260","200","36000","52000","[2,3]"
"","canvas-keyboard-response","306","310452","0.0-6.0-0.50","16","","","","","pre trial waiting period","null","null","","","catch","sh","sw","l","200","181","212","209","262","197","trueblood","null","null","null","null","null","null","null","null","null","null","null","","180","200","260","200","36000","52000","[2,3]"
