success,trial_type,trial_index,time_elapsed,internal_node_id,sub_n,timeout,failed_images,failed_audio,failed_video,screen_id,rt,response,stimulus,view_history,trial,r1,r2,r3,w1,h1,w2,h2,w3,h3,display,tdd,tdo,tw,th,cw,ch,dw,dh,ta,ca,da,probe,csls,csss,clls,clss,sa,la,probe_rects
TRUE,fullscreen,0,4019,0.0-0.0,5012,NA,NA,NA,NA,NA,NA,NA,NA,NA,NA,NA,NA,NA,NA,NA,NA,NA,NA,NA,NA,NA,NA,NA,NA,NA,NA,NA,NA,NA,NA,NA,NA,NA,NA,NA,NA,NA,NA,NA
TRUE,preload,1,4039,0.0-1.0,5012,FALSE,NA,NA,NA,img preload,NA,NA,NA,NA,NA,NA,NA,NA,NA,NA,NA,NA,NA,NA,NA,NA,NA,NA,NA,NA,NA,NA,NA,NA,NA,NA,NA,NA,NA,NA,NA,NA,NA,NA
NA,survey-html-form,2,33724,0.0-2.0,5012,NA,NA,NA,NA,enter-sub-number,29678,"{""response"":""04""}",NA,NA,NA,NA,NA,NA,NA,NA,NA,NA,NA,NA,NA,NA,NA,NA,NA,NA,NA,NA,NA,NA,NA,NA,NA,NA,NA,NA,NA,NA,NA,NA
NA,image-button-response,3,91604,0.0-3.0,5012,NA,NA,NA,NA,NA,57809,0,consent.png,NA,NA,NA,NA,NA,NA,NA,NA,NA,NA,NA,NA,NA,NA,NA,NA,NA,NA,NA,NA,NA,NA,NA,NA,NA,NA,NA,NA,NA,NA,NA
NA,html-button-response,4,96211,0.0-4.0,5012,NA,NA,NA,NA,intro mssg,4601,0,"<div style= ""font-size:25px;"" <p> <strong> Welcome! </strong><br> <p style=""color:#8B0000; font-size:25px;""><strong> Please do NOT exit full screen until you are done with the experiment. </strong> </p><p style=""font-size:25px;color:#8B0000;""> <strong> Your data will be lost <br> if you try to go back or refresh the page after the experiment starts. Feel free to click ""previous"" during the instructions, however.</strong> </p><br><p> <strong> Thanks in advance for your contribution to our research! </strong></p>",NA,NA,NA,NA,NA,NA,NA,NA,NA,NA,NA,NA,NA,NA,NA,NA,NA,NA,NA,NA,NA,NA,NA,NA,NA,NA,NA,NA,NA,NA,NA
NA,instructions,5,128107,0.0-5.0,5012,NA,NA,NA,NA,instructions,31891,NA,NA,NA,NA,NA,NA,NA,NA,NA,NA,NA,NA,NA,NA,NA,NA,NA,NA,NA,NA,NA,NA,NA,NA,NA,NA,NA,NA,NA,NA,NA,NA,NA
NA,canvas-keyboard-response,6,128313,0.0-6.0-0.0,5012,NA,NA,NA,NA,pre trial waiting period,null,null,NA,NA,critical,c,d,t,240,164,154.6796,220.0396,164,240,trueblood,0.14,h,164,240,240,164,154.6796,220.0396,39360,39360,34035.6388,tc,null,null,null,null,null,null,"[3,1]"
NA,canvas-keyboard-response,7,128478,0.0-6.0-1.0,5012,NA,NA,NA,NA,clear_screen,null,null,NA,NA,critical,c,d,t,240,164,154.6796,220.0396,164,240,trueblood,0.14,h,164,240,240,164,154.6796,220.0396,39360,39360,34035.6388,tc,null,null,null,null,null,null,"[3,1]"
NA,canvas-keyboard-response,8,129820,0.0-6.0-2.0,5012,NA,NA,NA,NA,rectangles,null,null,NA,NA,critical,c,d,t,240,164,154.6796,220.0396,164,240,trueblood,0.14,h,164,240,240,164,154.6796,220.0396,39360,39360,34035.6388,tc,null,null,null,null,null,null,"[3,1]"
NA,canvas-keyboard-response,9,129981,0.0-6.0-3.0,5012,NA,NA,NA,NA,clear_screen,null,null,NA,NA,critical,c,d,t,240,164,154.6796,220.0396,164,240,trueblood,0.14,h,164,240,240,164,154.6796,220.0396,39360,39360,34035.6388,tc,null,null,null,null,null,null,"[3,1]"
NA,canvas-keyboard-response,10,132990,0.0-6.0-4.0,5012,NA,NA,NA,NA,make choice,2994,3,NA,NA,critical,c,d,t,240,164,154.6796,220.0396,164,240,trueblood,0.14,h,164,240,240,164,154.6796,220.0396,39360,39360,34035.6388,tc,null,null,null,null,null,null,"[3,1]"
NA,canvas-keyboard-response,11,133153,0.0-6.0-5.0,5012,NA,NA,NA,NA,clear_screen,null,null,NA,NA,critical,c,d,t,240,164,154.6796,220.0396,164,240,trueblood,0.14,h,164,240,240,164,154.6796,220.0396,39360,39360,34035.6388,tc,null,null,null,null,null,null,"[3,1]"
NA,canvas-keyboard-response,12,133358,0.0-6.0-0.1,5012,NA,NA,NA,NA,pre trial waiting period,null,null,NA,NA,critical,t,d,c,164,240,164,240,240,164,spektor,0,h,164,240,240,164,164,240,39360,39360,39360,tc,null,null,null,null,null,null,"[1,3]"
NA,canvas-keyboard-response,13,133521,0.0-6.0-1.1,5012,NA,NA,NA,NA,clear_screen,null,null,NA,NA,critical,t,d,c,164,240,164,240,240,164,spektor,0,h,164,240,240,164,164,240,39360,39360,39360,tc,null,null,null,null,null,null,"[1,3]"
NA,canvas-keyboard-response,14,134860,0.0-6.0-2.1,5012,NA,NA,NA,NA,rectangles,null,null,NA,NA,critical,t,d,c,164,240,164,240,240,164,spektor,0,h,164,240,240,164,164,240,39360,39360,39360,tc,null,null,null,null,null,null,"[1,3]"
NA,canvas-keyboard-response,15,135024,0.0-6.0-3.1,5012,NA,NA,NA,NA,clear_screen,null,null,NA,NA,critical,t,d,c,164,240,164,240,240,164,spektor,0,h,164,240,240,164,164,240,39360,39360,39360,tc,null,null,null,null,null,null,"[1,3]"
NA,canvas-keyboard-response,16,137134,0.0-6.0-4.1,5012,NA,NA,NA,NA,make choice,2099,3,NA,NA,critical,t,d,c,164,240,164,240,240,164,spektor,0,h,164,240,240,164,164,240,39360,39360,39360,tc,null,null,null,null,null,null,"[1,3]"
NA,canvas-keyboard-response,17,137293,0.0-6.0-5.1,5012,NA,NA,NA,NA,clear_screen,null,null,NA,NA,critical,t,d,c,164,240,164,240,240,164,spektor,0,h,164,240,240,164,164,240,39360,39360,39360,tc,null,null,null,null,null,null,"[1,3]"
NA,canvas-keyboard-response,18,137497,0.0-6.0-0.2,5012,NA,NA,NA,NA,pre trial waiting period,null,null,NA,NA,catch,l,sh,sw,236,164,188,173,185,228,spektor,null,null,null,null,null,null,null,null,null,null,null,NA,180,200,260,200,36000,52000,"[1,3]"
NA,canvas-keyboard-response,19,137658,0.0-6.0-1.2,5012,NA,NA,NA,NA,clear_screen,null,null,NA,NA,catch,l,sh,sw,236,164,188,173,185,228,spektor,null,null,null,null,null,null,null,null,null,null,null,NA,180,200,260,200,36000,52000,"[1,3]"
NA,canvas-keyboard-response,20,138998,0.0-6.0-2.2,5012,NA,NA,NA,NA,rectangles,null,null,NA,NA,catch,l,sh,sw,236,164,188,173,185,228,spektor,null,null,null,null,null,null,null,null,null,null,null,NA,180,200,260,200,36000,52000,"[1,3]"
NA,canvas-keyboard-response,21,139159,0.0-6.0-3.2,5012,NA,NA,NA,NA,clear_screen,null,null,NA,NA,catch,l,sh,sw,236,164,188,173,185,228,spektor,null,null,null,null,null,null,null,null,null,null,null,NA,180,200,260,200,36000,52000,"[1,3]"
NA,canvas-keyboard-response,22,140078,0.0-6.0-4.2,5012,NA,NA,NA,NA,make choice,908,3,NA,NA,catch,l,sh,sw,236,164,188,173,185,228,spektor,null,null,null,null,null,null,null,null,null,null,null,NA,180,200,260,200,36000,52000,"[1,3]"
NA,canvas-keyboard-response,23,140240,0.0-6.0-5.2,5012,NA,NA,NA,NA,clear_screen,null,null,NA,NA,catch,l,sh,sw,236,164,188,173,185,228,spektor,null,null,null,null,null,null,null,null,null,null,null,NA,180,200,260,200,36000,52000,"[1,3]"
NA,canvas-keyboard-response,24,140445,0.0-6.0-0.3,5012,NA,NA,NA,NA,pre trial waiting period,null,null,NA,NA,critical,d,c,t,237.1485,162.6685,164,240,240,164,spektor,0.02,w,240,164,164,240,237.1485,162.6685,39360,39360,38576.5967,tc,null,null,null,null,null,null,"[3,2]"
NA,canvas-keyboard-response,25,140606,0.0-6.0-1.3,5012,NA,NA,NA,NA,clear_screen,null,null,NA,NA,critical,d,c,t,237.1485,162.6685,164,240,240,164,spektor,0.02,w,240,164,164,240,237.1485,162.6685,39360,39360,38576.5967,tc,null,null,null,null,null,null,"[3,2]"
NA,canvas-keyboard-response,26,141943,0.0-6.0-2.3,5012,NA,NA,NA,NA,rectangles,null,null,NA,NA,critical,d,c,t,237.1485,162.6685,164,240,240,164,spektor,0.02,w,240,164,164,240,237.1485,162.6685,39360,39360,38576.5967,tc,null,null,null,null,null,null,"[3,2]"
NA,canvas-keyboard-response,27,142105,0.0-6.0-3.3,5012,NA,NA,NA,NA,clear_screen,null,null,NA,NA,critical,d,c,t,237.1485,162.6685,164,240,240,164,spektor,0.02,w,240,164,164,240,237.1485,162.6685,39360,39360,38576.5967,tc,null,null,null,null,null,null,"[3,2]"
NA,canvas-keyboard-response,28,143678,0.0-6.0-4.3,5012,NA,NA,NA,NA,make choice,1562,2,NA,NA,critical,d,c,t,237.1485,162.6685,164,240,240,164,spektor,0.02,w,240,164,164,240,237.1485,162.6685,39360,39360,38576.5967,tc,null,null,null,null,null,null,"[3,2]"
NA,canvas-keyboard-response,29,143840,0.0-6.0-5.3,5012,NA,NA,NA,NA,clear_screen,null,null,NA,NA,critical,d,c,t,237.1485,162.6685,164,240,240,164,spektor,0.02,w,240,164,164,240,237.1485,162.6685,39360,39360,38576.5967,tc,null,null,null,null,null,null,"[3,2]"
NA,canvas-keyboard-response,30,144042,0.0-6.0-0.4,5012,NA,NA,NA,NA,pre trial waiting period,null,null,NA,NA,critical,t,d,c,164,240,162.6685,237.1485,240,164,trueblood,0.02,h,164,240,240,164,162.6685,237.1485,39360,39360,38576.5967,tc,null,null,null,null,null,null,"[1,3]"
NA,canvas-keyboard-response,31,144202,0.0-6.0-1.4,5012,NA,NA,NA,NA,clear_screen,null,null,NA,NA,critical,t,d,c,164,240,162.6685,237.1485,240,164,trueblood,0.02,h,164,240,240,164,162.6685,237.1485,39360,39360,38576.5967,tc,null,null,null,null,null,null,"[1,3]"
NA,canvas-keyboard-response,32,145542,0.0-6.0-2.4,5012,NA,NA,NA,NA,rectangles,null,null,NA,NA,critical,t,d,c,164,240,162.6685,237.1485,240,164,trueblood,0.02,h,164,240,240,164,162.6685,237.1485,39360,39360,38576.5967,tc,null,null,null,null,null,null,"[1,3]"
NA,canvas-keyboard-response,33,145708,0.0-6.0-3.4,5012,NA,NA,NA,NA,clear_screen,null,null,NA,NA,critical,t,d,c,164,240,162.6685,237.1485,240,164,trueblood,0.02,h,164,240,240,164,162.6685,237.1485,39360,39360,38576.5967,tc,null,null,null,null,null,null,"[1,3]"
NA,canvas-keyboard-response,34,147166,0.0-6.0-4.4,5012,NA,NA,NA,NA,make choice,1444,1,NA,NA,critical,t,d,c,164,240,162.6685,237.1485,240,164,trueblood,0.02,h,164,240,240,164,162.6685,237.1485,39360,39360,38576.5967,tc,null,null,null,null,null,null,"[1,3]"
NA,canvas-keyboard-response,35,147326,0.0-6.0-5.4,5012,NA,NA,NA,NA,clear_screen,null,null,NA,NA,critical,t,d,c,164,240,162.6685,237.1485,240,164,trueblood,0.02,h,164,240,240,164,162.6685,237.1485,39360,39360,38576.5967,tc,null,null,null,null,null,null,"[1,3]"
NA,canvas-keyboard-response,36,147531,0.0-6.0-0.5,5012,NA,NA,NA,NA,pre trial waiting period,null,null,NA,NA,critical,d,t,c,158.0083,227.1683,164,240,240,164,trueblood,0.09,h,164,240,240,164,158.0083,227.1683,39360,39360,35894.4834,dc,null,null,null,null,null,null,"[1,3]"
NA,canvas-keyboard-response,37,147691,0.0-6.0-1.5,5012,NA,NA,NA,NA,clear_screen,null,null,NA,NA,critical,d,t,c,158.0083,227.1683,164,240,240,164,trueblood,0.09,h,164,240,240,164,158.0083,227.1683,39360,39360,35894.4834,dc,null,null,null,null,null,null,"[1,3]"
NA,canvas-keyboard-response,38,149028,0.0-6.0-2.5,5012,NA,NA,NA,NA,rectangles,null,null,NA,NA,critical,d,t,c,158.0083,227.1683,164,240,240,164,trueblood,0.09,h,164,240,240,164,158.0083,227.1683,39360,39360,35894.4834,dc,null,null,null,null,null,null,"[1,3]"
NA,canvas-keyboard-response,39,149190,0.0-6.0-3.5,5012,NA,NA,NA,NA,clear_screen,null,null,NA,NA,critical,d,t,c,158.0083,227.1683,164,240,240,164,trueblood,0.09,h,164,240,240,164,158.0083,227.1683,39360,39360,35894.4834,dc,null,null,null,null,null,null,"[1,3]"
NA,canvas-keyboard-response,40,150909,0.0-6.0-4.5,5012,NA,NA,NA,NA,make choice,1707,3,NA,NA,critical,d,t,c,158.0083,227.1683,164,240,240,164,trueblood,0.09,h,164,240,240,164,158.0083,227.1683,39360,39360,35894.4834,dc,null,null,null,null,null,null,"[1,3]"
NA,canvas-keyboard-response,41,151070,0.0-6.0-5.5,5012,NA,NA,NA,NA,clear_screen,null,null,NA,NA,critical,d,t,c,158.0083,227.1683,164,240,240,164,trueblood,0.09,h,164,240,240,164,158.0083,227.1683,39360,39360,35894.4834,dc,null,null,null,null,null,null,"[1,3]"
NA,canvas-keyboard-response,42,151278,0.0-6.0-0.6,5012,NA,NA,NA,NA,pre trial waiting period,null,null,NA,NA,critical,c,d,t,240,164,160.6713,232.8713,164,240,trueblood,0.05,h,164,240,240,164,160.6713,232.8713,39360,39360,37415.7294,td,null,null,null,null,null,null,"[3,2]"
NA,canvas-keyboard-response,43,151439,0.0-6.0-1.6,5012,NA,NA,NA,NA,clear_screen,null,null,NA,NA,critical,c,d,t,240,164,160.6713,232.8713,164,240,trueblood,0.05,h,164,240,240,164,160.6713,232.8713,39360,39360,37415.7294,td,null,null,null,null,null,null,"[3,2]"
NA,canvas-keyboard-response,44,152781,0.0-6.0-2.6,5012,NA,NA,NA,NA,rectangles,null,null,NA,NA,critical,c,d,t,240,164,160.6713,232.8713,164,240,trueblood,0.05,h,164,240,240,164,160.6713,232.8713,39360,39360,37415.7294,td,null,null,null,null,null,null,"[3,2]"
NA,canvas-keyboard-response,45,152945,0.0-6.0-3.6,5012,NA,NA,NA,NA,clear_screen,null,null,NA,NA,critical,c,d,t,240,164,160.6713,232.8713,164,240,trueblood,0.05,h,164,240,240,164,160.6713,232.8713,39360,39360,37415.7294,td,null,null,null,null,null,null,"[3,2]"
NA,canvas-keyboard-response,46,153837,0.0-6.0-4.6,5012,NA,NA,NA,NA,make choice,884,2,NA,NA,critical,c,d,t,240,164,160.6713,232.8713,164,240,trueblood,0.05,h,164,240,240,164,160.6713,232.8713,39360,39360,37415.7294,td,null,null,null,null,null,null,"[3,2]"
NA,canvas-keyboard-response,47,153998,0.0-6.0-5.6,5012,NA,NA,NA,NA,clear_screen,null,null,NA,NA,critical,c,d,t,240,164,160.6713,232.8713,164,240,trueblood,0.05,h,164,240,240,164,160.6713,232.8713,39360,39360,37415.7294,td,null,null,null,null,null,null,"[3,2]"
NA,canvas-keyboard-response,48,154205,0.0-6.0-0.7,5012,NA,NA,NA,NA,pre trial waiting period,null,null,NA,NA,catch,sh,l,sw,239,207,205,275,203,213,trueblood,null,null,null,null,null,null,null,null,null,null,null,NA,180,200,260,200,36000,52000,"[1,2]"
NA,canvas-keyboard-response,49,154365,0.0-6.0-1.7,5012,NA,NA,NA,NA,clear_screen,null,null,NA,NA,catch,sh,l,sw,239,207,205,275,203,213,trueblood,null,null,null,null,null,null,null,null,null,null,null,NA,180,200,260,200,36000,52000,"[1,2]"
NA,canvas-keyboard-response,50,155706,0.0-6.0-2.7,5012,NA,NA,NA,NA,rectangles,null,null,NA,NA,catch,sh,l,sw,239,207,205,275,203,213,trueblood,null,null,null,null,null,null,null,null,null,null,null,NA,180,200,260,200,36000,52000,"[1,2]"
NA,canvas-keyboard-response,51,155870,0.0-6.0-3.7,5012,NA,NA,NA,NA,clear_screen,null,null,NA,NA,catch,sh,l,sw,239,207,205,275,203,213,trueblood,null,null,null,null,null,null,null,null,null,null,null,NA,180,200,260,200,36000,52000,"[1,2]"
NA,canvas-keyboard-response,52,156877,0.0-6.0-4.7,5012,NA,NA,NA,NA,make choice,992,2,NA,NA,catch,sh,l,sw,239,207,205,275,203,213,trueblood,null,null,null,null,null,null,null,null,null,null,null,NA,180,200,260,200,36000,52000,"[1,2]"
NA,canvas-keyboard-response,53,157039,0.0-6.0-5.7,5012,NA,NA,NA,NA,clear_screen,null,null,NA,NA,catch,sh,l,sw,239,207,205,275,203,213,trueblood,null,null,null,null,null,null,null,null,null,null,null,NA,180,200,260,200,36000,52000,"[1,2]"
NA,canvas-keyboard-response,54,157246,0.0-6.0-0.8,5012,NA,NA,NA,NA,pre trial waiting period,null,null,NA,NA,critical,c,t,d,164,240,240,164,240,164,spektor,0,w,240,164,164,240,240,164,39360,39360,39360,tc,null,null,null,null,null,null,"[2,1]"
NA,canvas-keyboard-response,55,157408,0.0-6.0-1.8,5012,NA,NA,NA,NA,clear_screen,null,null,NA,NA,critical,c,t,d,164,240,240,164,240,164,spektor,0,w,240,164,164,240,240,164,39360,39360,39360,tc,null,null,null,null,null,null,"[2,1]"
NA,canvas-keyboard-response,56,158746,0.0-6.0-2.8,5012,NA,NA,NA,NA,rectangles,null,null,NA,NA,critical,c,t,d,164,240,240,164,240,164,spektor,0,w,240,164,164,240,240,164,39360,39360,39360,tc,null,null,null,null,null,null,"[2,1]"
NA,canvas-keyboard-response,57,158910,0.0-6.0-3.8,5012,NA,NA,NA,NA,clear_screen,null,null,NA,NA,critical,c,t,d,164,240,240,164,240,164,spektor,0,w,240,164,164,240,240,164,39360,39360,39360,tc,null,null,null,null,null,null,"[2,1]"
NA,canvas-keyboard-response,58,160158,0.0-6.0-4.8,5012,NA,NA,NA,NA,make choice,1236,2,NA,NA,critical,c,t,d,164,240,240,164,240,164,spektor,0,w,240,164,164,240,240,164,39360,39360,39360,tc,null,null,null,null,null,null,"[2,1]"
NA,canvas-keyboard-response,59,160321,0.0-6.0-5.8,5012,NA,NA,NA,NA,clear_screen,null,null,NA,NA,critical,c,t,d,164,240,240,164,240,164,spektor,0,w,240,164,164,240,240,164,39360,39360,39360,tc,null,null,null,null,null,null,"[2,1]"
NA,canvas-keyboard-response,60,160530,0.0-6.0-0.9,5012,NA,NA,NA,NA,pre trial waiting period,null,null,NA,NA,critical,d,c,t,164,240,240,164,164,240,spektor,0,h,164,240,240,164,164,240,39360,39360,39360,dc,null,null,null,null,null,null,"[1,2]"
NA,canvas-keyboard-response,61,160690,0.0-6.0-1.9,5012,NA,NA,NA,NA,clear_screen,null,null,NA,NA,critical,d,c,t,164,240,240,164,164,240,spektor,0,h,164,240,240,164,164,240,39360,39360,39360,dc,null,null,null,null,null,null,"[1,2]"
NA,canvas-keyboard-response,62,162032,0.0-6.0-2.9,5012,NA,NA,NA,NA,rectangles,null,null,NA,NA,critical,d,c,t,164,240,240,164,164,240,spektor,0,h,164,240,240,164,164,240,39360,39360,39360,dc,null,null,null,null,null,null,"[1,2]"
NA,canvas-keyboard-response,63,162193,0.0-6.0-3.9,5012,NA,NA,NA,NA,clear_screen,null,null,NA,NA,critical,d,c,t,164,240,240,164,164,240,spektor,0,h,164,240,240,164,164,240,39360,39360,39360,dc,null,null,null,null,null,null,"[1,2]"
NA,canvas-keyboard-response,64,163173,0.0-6.0-4.9,5012,NA,NA,NA,NA,make choice,968,2,NA,NA,critical,d,c,t,164,240,240,164,164,240,spektor,0,h,164,240,240,164,164,240,39360,39360,39360,dc,null,null,null,null,null,null,"[1,2]"
NA,canvas-keyboard-response,65,163336,0.0-6.0-5.9,5012,NA,NA,NA,NA,clear_screen,null,null,NA,NA,critical,d,c,t,164,240,240,164,164,240,spektor,0,h,164,240,240,164,164,240,39360,39360,39360,dc,null,null,null,null,null,null,"[1,2]"
NA,canvas-keyboard-response,66,163545,0.0-6.0-0.10,5012,NA,NA,NA,NA,pre trial waiting period,null,null,NA,NA,critical,c,t,d,240,164,164,240,158.0083,227.1683,spektor,0.09,h,164,240,240,164,158.0083,227.1683,39360,39360,35894.4834,tc,null,null,null,null,null,null,"[2,1]"
NA,canvas-keyboard-response,67,163707,0.0-6.0-1.10,5012,NA,NA,NA,NA,clear_screen,null,null,NA,NA,critical,c,t,d,240,164,164,240,158.0083,227.1683,spektor,0.09,h,164,240,240,164,158.0083,227.1683,39360,39360,35894.4834,tc,null,null,null,null,null,null,"[2,1]"
NA,canvas-keyboard-response,68,165046,0.0-6.0-2.10,5012,NA,NA,NA,NA,rectangles,null,null,NA,NA,critical,c,t,d,240,164,164,240,158.0083,227.1683,spektor,0.09,h,164,240,240,164,158.0083,227.1683,39360,39360,35894.4834,tc,null,null,null,null,null,null,"[2,1]"
NA,canvas-keyboard-response,69,165211,0.0-6.0-3.10,5012,NA,NA,NA,NA,clear_screen,null,null,NA,NA,critical,c,t,d,240,164,164,240,158.0083,227.1683,spektor,0.09,h,164,240,240,164,158.0083,227.1683,39360,39360,35894.4834,tc,null,null,null,null,null,null,"[2,1]"
NA,canvas-keyboard-response,70,166349,0.0-6.0-4.10,5012,NA,NA,NA,NA,make choice,1123,2,NA,NA,critical,c,t,d,240,164,164,240,158.0083,227.1683,spektor,0.09,h,164,240,240,164,158.0083,227.1683,39360,39360,35894.4834,tc,null,null,null,null,null,null,"[2,1]"
NA,canvas-keyboard-response,71,166510,0.0-6.0-5.10,5012,NA,NA,NA,NA,clear_screen,null,null,NA,NA,critical,c,t,d,240,164,164,240,158.0083,227.1683,spektor,0.09,h,164,240,240,164,158.0083,227.1683,39360,39360,35894.4834,tc,null,null,null,null,null,null,"[2,1]"
NA,canvas-keyboard-response,72,166718,0.0-6.0-0.11,5012,NA,NA,NA,NA,pre trial waiting period,null,null,NA,NA,catch,l,sw,sh,203,287,160,233,210,198,trueblood,null,null,null,null,null,null,null,null,null,null,null,NA,180,200,260,200,36000,52000,"[1,2]"
NA,canvas-keyboard-response,73,166876,0.0-6.0-1.11,5012,NA,NA,NA,NA,clear_screen,null,null,NA,NA,catch,l,sw,sh,203,287,160,233,210,198,trueblood,null,null,null,null,null,null,null,null,null,null,null,NA,180,200,260,200,36000,52000,"[1,2]"
NA,canvas-keyboard-response,74,168214,0.0-6.0-2.11,5012,NA,NA,NA,NA,rectangles,null,null,NA,NA,catch,l,sw,sh,203,287,160,233,210,198,trueblood,null,null,null,null,null,null,null,null,null,null,null,NA,180,200,260,200,36000,52000,"[1,2]"
NA,canvas-keyboard-response,75,168379,0.0-6.0-3.11,5012,NA,NA,NA,NA,clear_screen,null,null,NA,NA,catch,l,sw,sh,203,287,160,233,210,198,trueblood,null,null,null,null,null,null,null,null,null,null,null,NA,180,200,260,200,36000,52000,"[1,2]"
NA,canvas-keyboard-response,76,169645,0.0-6.0-4.11,5012,NA,NA,NA,NA,make choice,1254,1,NA,NA,catch,l,sw,sh,203,287,160,233,210,198,trueblood,null,null,null,null,null,null,null,null,null,null,null,NA,180,200,260,200,36000,52000,"[1,2]"
NA,canvas-keyboard-response,77,169807,0.0-6.0-5.11,5012,NA,NA,NA,NA,clear_screen,null,null,NA,NA,catch,l,sw,sh,203,287,160,233,210,198,trueblood,null,null,null,null,null,null,null,null,null,null,null,NA,180,200,260,200,36000,52000,"[1,2]"
NA,canvas-keyboard-response,78,170017,0.0-6.0-0.12,5012,NA,NA,NA,NA,pre trial waiting period,null,null,NA,NA,catch,l,sw,sh,199,220,188,226,220,177,spektor,null,null,null,null,null,null,null,null,null,null,null,NA,180,200,260,200,36000,52000,"[1,3]"
NA,canvas-keyboard-response,79,170180,0.0-6.0-1.12,5012,NA,NA,NA,NA,clear_screen,null,null,NA,NA,catch,l,sw,sh,199,220,188,226,220,177,spektor,null,null,null,null,null,null,null,null,null,null,null,NA,180,200,260,200,36000,52000,"[1,3]"
NA,canvas-keyboard-response,80,171519,0.0-6.0-2.12,5012,NA,NA,NA,NA,rectangles,null,null,NA,NA,catch,l,sw,sh,199,220,188,226,220,177,spektor,null,null,null,null,null,null,null,null,null,null,null,NA,180,200,260,200,36000,52000,"[1,3]"
NA,canvas-keyboard-response,81,171683,0.0-6.0-3.12,5012,NA,NA,NA,NA,clear_screen,null,null,NA,NA,catch,l,sw,sh,199,220,188,226,220,177,spektor,null,null,null,null,null,null,null,null,null,null,null,NA,180,200,260,200,36000,52000,"[1,3]"
NA,canvas-keyboard-response,82,172374,0.0-6.0-4.12,5012,NA,NA,NA,NA,make choice,675,3,NA,NA,catch,l,sw,sh,199,220,188,226,220,177,spektor,null,null,null,null,null,null,null,null,null,null,null,NA,180,200,260,200,36000,52000,"[1,3]"
NA,canvas-keyboard-response,83,172535,0.0-6.0-5.12,5012,NA,NA,NA,NA,clear_screen,null,null,NA,NA,catch,l,sw,sh,199,220,188,226,220,177,spektor,null,null,null,null,null,null,null,null,null,null,null,NA,180,200,260,200,36000,52000,"[1,3]"
NA,canvas-keyboard-response,84,172746,0.0-6.0-0.13,5012,NA,NA,NA,NA,pre trial waiting period,null,null,NA,NA,critical,c,d,t,240,164,162.6685,237.1485,164,240,trueblood,0.02,h,164,240,240,164,162.6685,237.1485,39360,39360,38576.5967,td,null,null,null,null,null,null,"[3,2]"
NA,canvas-keyboard-response,85,172906,0.0-6.0-1.13,5012,NA,NA,NA,NA,clear_screen,null,null,NA,NA,critical,c,d,t,240,164,162.6685,237.1485,164,240,trueblood,0.02,h,164,240,240,164,162.6685,237.1485,39360,39360,38576.5967,td,null,null,null,null,null,null,"[3,2]"
NA,canvas-keyboard-response,86,174246,0.0-6.0-2.13,5012,NA,NA,NA,NA,rectangles,null,null,NA,NA,critical,c,d,t,240,164,162.6685,237.1485,164,240,trueblood,0.02,h,164,240,240,164,162.6685,237.1485,39360,39360,38576.5967,td,null,null,null,null,null,null,"[3,2]"
NA,canvas-keyboard-response,87,174413,0.0-6.0-3.13,5012,NA,NA,NA,NA,clear_screen,null,null,NA,NA,critical,c,d,t,240,164,162.6685,237.1485,164,240,trueblood,0.02,h,164,240,240,164,162.6685,237.1485,39360,39360,38576.5967,td,null,null,null,null,null,null,"[3,2]"
NA,canvas-keyboard-response,88,175252,0.0-6.0-4.13,5012,NA,NA,NA,NA,make choice,828,2,NA,NA,critical,c,d,t,240,164,162.6685,237.1485,164,240,trueblood,0.02,h,164,240,240,164,162.6685,237.1485,39360,39360,38576.5967,td,null,null,null,null,null,null,"[3,2]"
NA,canvas-keyboard-response,89,175415,0.0-6.0-5.13,5012,NA,NA,NA,NA,clear_screen,null,null,NA,NA,critical,c,d,t,240,164,162.6685,237.1485,164,240,trueblood,0.02,h,164,240,240,164,162.6685,237.1485,39360,39360,38576.5967,td,null,null,null,null,null,null,"[3,2]"
NA,canvas-keyboard-response,90,175623,0.0-6.0-0.14,5012,NA,NA,NA,NA,pre trial waiting period,null,null,NA,NA,critical,c,d,t,240,164,160.6713,232.8713,164,240,spektor,0.05,h,164,240,240,164,160.6713,232.8713,39360,39360,37415.7294,td,null,null,null,null,null,null,"[3,2]"
NA,canvas-keyboard-response,91,175783,0.0-6.0-1.14,5012,NA,NA,NA,NA,clear_screen,null,null,NA,NA,critical,c,d,t,240,164,160.6713,232.8713,164,240,spektor,0.05,h,164,240,240,164,160.6713,232.8713,39360,39360,37415.7294,td,null,null,null,null,null,null,"[3,2]"
NA,canvas-keyboard-response,92,177126,0.0-6.0-2.14,5012,NA,NA,NA,NA,rectangles,null,null,NA,NA,critical,c,d,t,240,164,160.6713,232.8713,164,240,spektor,0.05,h,164,240,240,164,160.6713,232.8713,39360,39360,37415.7294,td,null,null,null,null,null,null,"[3,2]"
NA,canvas-keyboard-response,93,177292,0.0-6.0-3.14,5012,NA,NA,NA,NA,clear_screen,null,null,NA,NA,critical,c,d,t,240,164,160.6713,232.8713,164,240,spektor,0.05,h,164,240,240,164,160.6713,232.8713,39360,39360,37415.7294,td,null,null,null,null,null,null,"[3,2]"
NA,canvas-keyboard-response,94,177932,0.0-6.0-4.14,5012,NA,NA,NA,NA,make choice,624,2,NA,NA,critical,c,d,t,240,164,160.6713,232.8713,164,240,spektor,0.05,h,164,240,240,164,160.6713,232.8713,39360,39360,37415.7294,td,null,null,null,null,null,null,"[3,2]"
NA,canvas-keyboard-response,95,178094,0.0-6.0-5.14,5012,NA,NA,NA,NA,clear_screen,null,null,NA,NA,critical,c,d,t,240,164,160.6713,232.8713,164,240,spektor,0.05,h,164,240,240,164,160.6713,232.8713,39360,39360,37415.7294,td,null,null,null,null,null,null,"[3,2]"
NA,canvas-keyboard-response,96,178298,0.0-6.0-0.15,5012,NA,NA,NA,NA,pre trial waiting period,null,null,NA,NA,critical,t,d,c,164,240,162.6685,237.1485,240,164,spektor,0.02,h,164,240,240,164,162.6685,237.1485,39360,39360,38576.5967,td,null,null,null,null,null,null,"[1,2]"
NA,canvas-keyboard-response,97,178458,0.0-6.0-1.15,5012,NA,NA,NA,NA,clear_screen,null,null,NA,NA,critical,t,d,c,164,240,162.6685,237.1485,240,164,spektor,0.02,h,164,240,240,164,162.6685,237.1485,39360,39360,38576.5967,td,null,null,null,null,null,null,"[1,2]"
NA,canvas-keyboard-response,98,179798,0.0-6.0-2.15,5012,NA,NA,NA,NA,rectangles,null,null,NA,NA,critical,t,d,c,164,240,162.6685,237.1485,240,164,spektor,0.02,h,164,240,240,164,162.6685,237.1485,39360,39360,38576.5967,td,null,null,null,null,null,null,"[1,2]"
NA,canvas-keyboard-response,99,179965,0.0-6.0-3.15,5012,NA,NA,NA,NA,clear_screen,null,null,NA,NA,critical,t,d,c,164,240,162.6685,237.1485,240,164,spektor,0.02,h,164,240,240,164,162.6685,237.1485,39360,39360,38576.5967,td,null,null,null,null,null,null,"[1,2]"
NA,canvas-keyboard-response,100,181053,0.0-6.0-4.15,5012,NA,NA,NA,NA,make choice,1074,2,NA,NA,critical,t,d,c,164,240,162.6685,237.1485,240,164,spektor,0.02,h,164,240,240,164,162.6685,237.1485,39360,39360,38576.5967,td,null,null,null,null,null,null,"[1,2]"
NA,canvas-keyboard-response,101,181216,0.0-6.0-5.15,5012,NA,NA,NA,NA,clear_screen,null,null,NA,NA,critical,t,d,c,164,240,162.6685,237.1485,240,164,spektor,0.02,h,164,240,240,164,162.6685,237.1485,39360,39360,38576.5967,td,null,null,null,null,null,null,"[1,2]"
NA,canvas-keyboard-response,102,181427,0.0-6.0-0.16,5012,NA,NA,NA,NA,pre trial waiting period,null,null,NA,NA,critical,d,t,c,240,164,240,164,164,240,spektor,0,w,240,164,164,240,240,164,39360,39360,39360,dc,null,null,null,null,null,null,"[1,3]"
NA,canvas-keyboard-response,103,181585,0.0-6.0-1.16,5012,NA,NA,NA,NA,clear_screen,null,null,NA,NA,critical,d,t,c,240,164,240,164,164,240,spektor,0,w,240,164,164,240,240,164,39360,39360,39360,dc,null,null,null,null,null,null,"[1,3]"
NA,canvas-keyboard-response,104,182929,0.0-6.0-2.16,5012,NA,NA,NA,NA,rectangles,null,null,NA,NA,critical,d,t,c,240,164,240,164,164,240,spektor,0,w,240,164,164,240,240,164,39360,39360,39360,dc,null,null,null,null,null,null,"[1,3]"
NA,canvas-keyboard-response,105,183094,0.0-6.0-3.16,5012,NA,NA,NA,NA,clear_screen,null,null,NA,NA,critical,d,t,c,240,164,240,164,164,240,spektor,0,w,240,164,164,240,240,164,39360,39360,39360,dc,null,null,null,null,null,null,"[1,3]"
NA,canvas-keyboard-response,106,183612,0.0-6.0-4.16,5012,NA,NA,NA,NA,make choice,501,3,NA,NA,critical,d,t,c,240,164,240,164,164,240,spektor,0,w,240,164,164,240,240,164,39360,39360,39360,dc,null,null,null,null,null,null,"[1,3]"
NA,canvas-keyboard-response,107,183772,0.0-6.0-5.16,5012,NA,NA,NA,NA,clear_screen,null,null,NA,NA,critical,d,t,c,240,164,240,164,164,240,spektor,0,w,240,164,164,240,240,164,39360,39360,39360,dc,null,null,null,null,null,null,"[1,3]"
NA,canvas-keyboard-response,108,183980,0.0-6.0-0.17,5012,NA,NA,NA,NA,pre trial waiting period,null,null,NA,NA,catch,l,sh,sw,237,250,205,203,182,168,spektor,null,null,null,null,null,null,null,null,null,null,null,NA,180,200,260,200,36000,52000,"[1,2]"
NA,canvas-keyboard-response,109,184145,0.0-6.0-1.17,5012,NA,NA,NA,NA,clear_screen,null,null,NA,NA,catch,l,sh,sw,237,250,205,203,182,168,spektor,null,null,null,null,null,null,null,null,null,null,null,NA,180,200,260,200,36000,52000,"[1,2]"
NA,canvas-keyboard-response,110,185485,0.0-6.0-2.17,5012,NA,NA,NA,NA,rectangles,null,null,NA,NA,catch,l,sh,sw,237,250,205,203,182,168,spektor,null,null,null,null,null,null,null,null,null,null,null,NA,180,200,260,200,36000,52000,"[1,2]"
NA,canvas-keyboard-response,111,185648,0.0-6.0-3.17,5012,NA,NA,NA,NA,clear_screen,null,null,NA,NA,catch,l,sh,sw,237,250,205,203,182,168,spektor,null,null,null,null,null,null,null,null,null,null,null,NA,180,200,260,200,36000,52000,"[1,2]"
NA,canvas-keyboard-response,112,186517,0.0-6.0-4.17,5012,NA,NA,NA,NA,make choice,853,1,NA,NA,catch,l,sh,sw,237,250,205,203,182,168,spektor,null,null,null,null,null,null,null,null,null,null,null,NA,180,200,260,200,36000,52000,"[1,2]"
NA,canvas-keyboard-response,113,186680,0.0-6.0-5.17,5012,NA,NA,NA,NA,clear_screen,null,null,NA,NA,catch,l,sh,sw,237,250,205,203,182,168,spektor,null,null,null,null,null,null,null,null,null,null,null,NA,180,200,260,200,36000,52000,"[1,2]"
NA,canvas-keyboard-response,114,186890,0.0-6.0-0.18,5012,NA,NA,NA,NA,pre trial waiting period,null,null,NA,NA,catch,sh,l,sw,222,217,287,170,161,170,trueblood,null,null,null,null,null,null,null,null,null,null,null,NA,180,200,260,200,36000,52000,"[1,2]"
NA,canvas-keyboard-response,115,187050,0.0-6.0-1.18,5012,NA,NA,NA,NA,clear_screen,null,null,NA,NA,catch,sh,l,sw,222,217,287,170,161,170,trueblood,null,null,null,null,null,null,null,null,null,null,null,NA,180,200,260,200,36000,52000,"[1,2]"
NA,canvas-keyboard-response,116,188390,0.0-6.0-2.18,5012,NA,NA,NA,NA,rectangles,null,null,NA,NA,catch,sh,l,sw,222,217,287,170,161,170,trueblood,null,null,null,null,null,null,null,null,null,null,null,NA,180,200,260,200,36000,52000,"[1,2]"
NA,canvas-keyboard-response,117,188553,0.0-6.0-3.18,5012,NA,NA,NA,NA,clear_screen,null,null,NA,NA,catch,sh,l,sw,222,217,287,170,161,170,trueblood,null,null,null,null,null,null,null,null,null,null,null,NA,180,200,260,200,36000,52000,"[1,2]"
NA,canvas-keyboard-response,118,189051,0.0-6.0-4.18,5012,NA,NA,NA,NA,make choice,484,2,NA,NA,catch,sh,l,sw,222,217,287,170,161,170,trueblood,null,null,null,null,null,null,null,null,null,null,null,NA,180,200,260,200,36000,52000,"[1,2]"
NA,canvas-keyboard-response,119,189209,0.0-6.0-5.18,5012,NA,NA,NA,NA,clear_screen,null,null,NA,NA,catch,sh,l,sw,222,217,287,170,161,170,trueblood,null,null,null,null,null,null,null,null,null,null,null,NA,180,200,260,200,36000,52000,"[1,2]"
NA,canvas-keyboard-response,120,189413,0.0-6.0-0.19,5012,NA,NA,NA,NA,pre trial waiting period,null,null,NA,NA,critical,d,c,t,232.8713,160.6713,164,240,240,164,spektor,0.05,w,240,164,164,240,232.8713,160.6713,39360,39360,37415.7294,dc,null,null,null,null,null,null,"[1,2]"
NA,canvas-keyboard-response,121,189572,0.0-6.0-1.19,5012,NA,NA,NA,NA,clear_screen,null,null,NA,NA,critical,d,c,t,232.8713,160.6713,164,240,240,164,spektor,0.05,w,240,164,164,240,232.8713,160.6713,39360,39360,37415.7294,dc,null,null,null,null,null,null,"[1,2]"
NA,canvas-keyboard-response,122,190910,0.0-6.0-2.19,5012,NA,NA,NA,NA,rectangles,null,null,NA,NA,critical,d,c,t,232.8713,160.6713,164,240,240,164,spektor,0.05,w,240,164,164,240,232.8713,160.6713,39360,39360,37415.7294,dc,null,null,null,null,null,null,"[1,2]"
NA,canvas-keyboard-response,123,191074,0.0-6.0-3.19,5012,NA,NA,NA,NA,clear_screen,null,null,NA,NA,critical,d,c,t,232.8713,160.6713,164,240,240,164,spektor,0.05,w,240,164,164,240,232.8713,160.6713,39360,39360,37415.7294,dc,null,null,null,null,null,null,"[1,2]"
NA,canvas-keyboard-response,124,191813,0.0-6.0-4.19,5012,NA,NA,NA,NA,make choice,723,2,NA,NA,critical,d,c,t,232.8713,160.6713,164,240,240,164,spektor,0.05,w,240,164,164,240,232.8713,160.6713,39360,39360,37415.7294,dc,null,null,null,null,null,null,"[1,2]"
NA,canvas-keyboard-response,125,191979,0.0-6.0-5.19,5012,NA,NA,NA,NA,clear_screen,null,null,NA,NA,critical,d,c,t,232.8713,160.6713,164,240,240,164,spektor,0.05,w,240,164,164,240,232.8713,160.6713,39360,39360,37415.7294,dc,null,null,null,null,null,null,"[1,2]"
NA,canvas-keyboard-response,126,192191,0.0-6.0-0.20,5012,NA,NA,NA,NA,pre trial waiting period,null,null,NA,NA,critical,d,c,t,220.0396,154.6796,164,240,240,164,spektor,0.14,w,240,164,164,240,220.0396,154.6796,39360,39360,34035.6388,dc,null,null,null,null,null,null,"[1,2]"
NA,canvas-keyboard-response,127,192353,0.0-6.0-1.20,5012,NA,NA,NA,NA,clear_screen,null,null,NA,NA,critical,d,c,t,220.0396,154.6796,164,240,240,164,spektor,0.14,w,240,164,164,240,220.0396,154.6796,39360,39360,34035.6388,dc,null,null,null,null,null,null,"[1,2]"
NA,canvas-keyboard-response,128,193695,0.0-6.0-2.20,5012,NA,NA,NA,NA,rectangles,null,null,NA,NA,critical,d,c,t,220.0396,154.6796,164,240,240,164,spektor,0.14,w,240,164,164,240,220.0396,154.6796,39360,39360,34035.6388,dc,null,null,null,null,null,null,"[1,2]"
NA,canvas-keyboard-response,129,193862,0.0-6.0-3.20,5012,NA,NA,NA,NA,clear_screen,null,null,NA,NA,critical,d,c,t,220.0396,154.6796,164,240,240,164,spektor,0.14,w,240,164,164,240,220.0396,154.6796,39360,39360,34035.6388,dc,null,null,null,null,null,null,"[1,2]"
NA,canvas-keyboard-response,130,194525,0.0-6.0-4.20,5012,NA,NA,NA,NA,make choice,648,2,NA,NA,critical,d,c,t,220.0396,154.6796,164,240,240,164,spektor,0.14,w,240,164,164,240,220.0396,154.6796,39360,39360,34035.6388,dc,null,null,null,null,null,null,"[1,2]"
NA,canvas-keyboard-response,131,194689,0.0-6.0-5.20,5012,NA,NA,NA,NA,clear_screen,null,null,NA,NA,critical,d,c,t,220.0396,154.6796,164,240,240,164,spektor,0.14,w,240,164,164,240,220.0396,154.6796,39360,39360,34035.6388,dc,null,null,null,null,null,null,"[1,2]"
NA,canvas-keyboard-response,132,194898,0.0-6.0-0.21,5012,NA,NA,NA,NA,pre trial waiting period,null,null,NA,NA,critical,d,c,t,237.1485,162.6685,164,240,240,164,trueblood,0.02,w,240,164,164,240,237.1485,162.6685,39360,39360,38576.5967,tc,null,null,null,null,null,null,"[3,2]"
NA,canvas-keyboard-response,133,195060,0.0-6.0-1.21,5012,NA,NA,NA,NA,clear_screen,null,null,NA,NA,critical,d,c,t,237.1485,162.6685,164,240,240,164,trueblood,0.02,w,240,164,164,240,237.1485,162.6685,39360,39360,38576.5967,tc,null,null,null,null,null,null,"[3,2]"
NA,canvas-keyboard-response,134,196402,0.0-6.0-2.21,5012,NA,NA,NA,NA,rectangles,null,null,NA,NA,critical,d,c,t,237.1485,162.6685,164,240,240,164,trueblood,0.02,w,240,164,164,240,237.1485,162.6685,39360,39360,38576.5967,tc,null,null,null,null,null,null,"[3,2]"
NA,canvas-keyboard-response,135,196566,0.0-6.0-3.21,5012,NA,NA,NA,NA,clear_screen,null,null,NA,NA,critical,d,c,t,237.1485,162.6685,164,240,240,164,trueblood,0.02,w,240,164,164,240,237.1485,162.6685,39360,39360,38576.5967,tc,null,null,null,null,null,null,"[3,2]"
NA,canvas-keyboard-response,136,197357,0.0-6.0-4.21,5012,NA,NA,NA,NA,make choice,775,3,NA,NA,critical,d,c,t,237.1485,162.6685,164,240,240,164,trueblood,0.02,w,240,164,164,240,237.1485,162.6685,39360,39360,38576.5967,tc,null,null,null,null,null,null,"[3,2]"
NA,canvas-keyboard-response,137,197524,0.0-6.0-5.21,5012,NA,NA,NA,NA,clear_screen,null,null,NA,NA,critical,d,c,t,237.1485,162.6685,164,240,240,164,trueblood,0.02,w,240,164,164,240,237.1485,162.6685,39360,39360,38576.5967,tc,null,null,null,null,null,null,"[3,2]"
NA,canvas-keyboard-response,138,197739,0.0-6.0-0.22,5012,NA,NA,NA,NA,pre trial waiting period,null,null,NA,NA,catch,sw,l,sh,180,200,231,226,188,167,trueblood,null,null,null,null,null,null,null,null,null,null,null,NA,180,200,260,200,36000,52000,"[1,2]"
NA,canvas-keyboard-response,139,197901,0.0-6.0-1.22,5012,NA,NA,NA,NA,clear_screen,null,null,NA,NA,catch,sw,l,sh,180,200,231,226,188,167,trueblood,null,null,null,null,null,null,null,null,null,null,null,NA,180,200,260,200,36000,52000,"[1,2]"
NA,canvas-keyboard-response,140,199243,0.0-6.0-2.22,5012,NA,NA,NA,NA,rectangles,null,null,NA,NA,catch,sw,l,sh,180,200,231,226,188,167,trueblood,null,null,null,null,null,null,null,null,null,null,null,NA,180,200,260,200,36000,52000,"[1,2]"
NA,canvas-keyboard-response,141,199409,0.0-6.0-3.22,5012,NA,NA,NA,NA,clear_screen,null,null,NA,NA,catch,sw,l,sh,180,200,231,226,188,167,trueblood,null,null,null,null,null,null,null,null,null,null,null,NA,180,200,260,200,36000,52000,"[1,2]"
NA,canvas-keyboard-response,142,200021,0.0-6.0-4.22,5012,NA,NA,NA,NA,make choice,597,2,NA,NA,catch,sw,l,sh,180,200,231,226,188,167,trueblood,null,null,null,null,null,null,null,null,null,null,null,NA,180,200,260,200,36000,52000,"[1,2]"
NA,canvas-keyboard-response,143,200185,0.0-6.0-5.22,5012,NA,NA,NA,NA,clear_screen,null,null,NA,NA,catch,sw,l,sh,180,200,231,226,188,167,trueblood,null,null,null,null,null,null,null,null,null,null,null,NA,180,200,260,200,36000,52000,"[1,2]"
NA,canvas-keyboard-response,144,200396,0.0-6.0-0.23,5012,NA,NA,NA,NA,pre trial waiting period,null,null,NA,NA,critical,t,d,c,164,240,162.6685,237.1485,240,164,trueblood,0.02,h,164,240,240,164,162.6685,237.1485,39360,39360,38576.5967,dc,null,null,null,null,null,null,"[2,3]"
NA,canvas-keyboard-response,145,200560,0.0-6.0-1.23,5012,NA,NA,NA,NA,clear_screen,null,null,NA,NA,critical,t,d,c,164,240,162.6685,237.1485,240,164,trueblood,0.02,h,164,240,240,164,162.6685,237.1485,39360,39360,38576.5967,dc,null,null,null,null,null,null,"[2,3]"
NA,canvas-keyboard-response,146,201903,0.0-6.0-2.23,5012,NA,NA,NA,NA,rectangles,null,null,NA,NA,critical,t,d,c,164,240,162.6685,237.1485,240,164,trueblood,0.02,h,164,240,240,164,162.6685,237.1485,39360,39360,38576.5967,dc,null,null,null,null,null,null,"[2,3]"
NA,canvas-keyboard-response,147,202068,0.0-6.0-3.23,5012,NA,NA,NA,NA,clear_screen,null,null,NA,NA,critical,t,d,c,164,240,162.6685,237.1485,240,164,trueblood,0.02,h,164,240,240,164,162.6685,237.1485,39360,39360,38576.5967,dc,null,null,null,null,null,null,"[2,3]"
NA,canvas-keyboard-response,148,202563,0.0-6.0-4.23,5012,NA,NA,NA,NA,make choice,480,3,NA,NA,critical,t,d,c,164,240,162.6685,237.1485,240,164,trueblood,0.02,h,164,240,240,164,162.6685,237.1485,39360,39360,38576.5967,dc,null,null,null,null,null,null,"[2,3]"
NA,canvas-keyboard-response,149,202726,0.0-6.0-5.23,5012,NA,NA,NA,NA,clear_screen,null,null,NA,NA,critical,t,d,c,164,240,162.6685,237.1485,240,164,trueblood,0.02,h,164,240,240,164,162.6685,237.1485,39360,39360,38576.5967,dc,null,null,null,null,null,null,"[2,3]"
NA,canvas-keyboard-response,150,202942,0.0-6.0-0.24,5012,NA,NA,NA,NA,pre trial waiting period,null,null,NA,NA,critical,t,d,c,240,164,232.8713,160.6713,164,240,trueblood,0.05,w,240,164,164,240,232.8713,160.6713,39360,39360,37415.7294,td,null,null,null,null,null,null,"[1,2]"
NA,canvas-keyboard-response,151,203102,0.0-6.0-1.24,5012,NA,NA,NA,NA,clear_screen,null,null,NA,NA,critical,t,d,c,240,164,232.8713,160.6713,164,240,trueblood,0.05,w,240,164,164,240,232.8713,160.6713,39360,39360,37415.7294,td,null,null,null,null,null,null,"[1,2]"
NA,canvas-keyboard-response,152,204444,0.0-6.0-2.24,5012,NA,NA,NA,NA,rectangles,null,null,NA,NA,critical,t,d,c,240,164,232.8713,160.6713,164,240,trueblood,0.05,w,240,164,164,240,232.8713,160.6713,39360,39360,37415.7294,td,null,null,null,null,null,null,"[1,2]"
NA,canvas-keyboard-response,153,204612,0.0-6.0-3.24,5012,NA,NA,NA,NA,clear_screen,null,null,NA,NA,critical,t,d,c,240,164,232.8713,160.6713,164,240,trueblood,0.05,w,240,164,164,240,232.8713,160.6713,39360,39360,37415.7294,td,null,null,null,null,null,null,"[1,2]"
NA,canvas-keyboard-response,154,205404,0.0-6.0-4.24,5012,NA,NA,NA,NA,make choice,773,2,NA,NA,critical,t,d,c,240,164,232.8713,160.6713,164,240,trueblood,0.05,w,240,164,164,240,232.8713,160.6713,39360,39360,37415.7294,td,null,null,null,null,null,null,"[1,2]"
NA,canvas-keyboard-response,155,205569,0.0-6.0-5.24,5012,NA,NA,NA,NA,clear_screen,null,null,NA,NA,critical,t,d,c,240,164,232.8713,160.6713,164,240,trueblood,0.05,w,240,164,164,240,232.8713,160.6713,39360,39360,37415.7294,td,null,null,null,null,null,null,"[1,2]"
NA,canvas-keyboard-response,156,205783,0.0-6.0-0.25,5012,NA,NA,NA,NA,pre trial waiting period,null,null,NA,NA,critical,t,d,c,240,164,237.1485,162.6685,164,240,spektor,0.02,w,240,164,164,240,237.1485,162.6685,39360,39360,38576.5967,td,null,null,null,null,null,null,"[1,2]"
NA,canvas-keyboard-response,157,205942,0.0-6.0-1.25,5012,NA,NA,NA,NA,clear_screen,null,null,NA,NA,critical,t,d,c,240,164,237.1485,162.6685,164,240,spektor,0.02,w,240,164,164,240,237.1485,162.6685,39360,39360,38576.5967,td,null,null,null,null,null,null,"[1,2]"
NA,canvas-keyboard-response,158,207285,0.0-6.0-2.25,5012,NA,NA,NA,NA,rectangles,null,null,NA,NA,critical,t,d,c,240,164,237.1485,162.6685,164,240,spektor,0.02,w,240,164,164,240,237.1485,162.6685,39360,39360,38576.5967,td,null,null,null,null,null,null,"[1,2]"
NA,canvas-keyboard-response,159,207453,0.0-6.0-3.25,5012,NA,NA,NA,NA,clear_screen,null,null,NA,NA,critical,t,d,c,240,164,237.1485,162.6685,164,240,spektor,0.02,w,240,164,164,240,237.1485,162.6685,39360,39360,38576.5967,td,null,null,null,null,null,null,"[1,2]"
NA,canvas-keyboard-response,160,208020,0.0-6.0-4.25,5012,NA,NA,NA,NA,make choice,551,1,NA,NA,critical,t,d,c,240,164,237.1485,162.6685,164,240,spektor,0.02,w,240,164,164,240,237.1485,162.6685,39360,39360,38576.5967,td,null,null,null,null,null,null,"[1,2]"
NA,canvas-keyboard-response,161,208185,0.0-6.0-5.25,5012,NA,NA,NA,NA,clear_screen,null,null,NA,NA,critical,t,d,c,240,164,237.1485,162.6685,164,240,spektor,0.02,w,240,164,164,240,237.1485,162.6685,39360,39360,38576.5967,td,null,null,null,null,null,null,"[1,2]"
NA,canvas-keyboard-response,162,208396,0.0-6.0-0.26,5012,NA,NA,NA,NA,pre trial waiting period,null,null,NA,NA,critical,d,c,t,220.0396,154.6796,164,240,240,164,spektor,0.14,w,240,164,164,240,220.0396,154.6796,39360,39360,34035.6388,td,null,null,null,null,null,null,"[3,1]"
NA,canvas-keyboard-response,163,208556,0.0-6.0-1.26,5012,NA,NA,NA,NA,clear_screen,null,null,NA,NA,critical,d,c,t,220.0396,154.6796,164,240,240,164,spektor,0.14,w,240,164,164,240,220.0396,154.6796,39360,39360,34035.6388,td,null,null,null,null,null,null,"[3,1]"
NA,canvas-keyboard-response,164,209899,0.0-6.0-2.26,5012,NA,NA,NA,NA,rectangles,null,null,NA,NA,critical,d,c,t,220.0396,154.6796,164,240,240,164,spektor,0.14,w,240,164,164,240,220.0396,154.6796,39360,39360,34035.6388,td,null,null,null,null,null,null,"[3,1]"
NA,canvas-keyboard-response,165,210065,0.0-6.0-3.26,5012,NA,NA,NA,NA,clear_screen,null,null,NA,NA,critical,d,c,t,220.0396,154.6796,164,240,240,164,spektor,0.14,w,240,164,164,240,220.0396,154.6796,39360,39360,34035.6388,td,null,null,null,null,null,null,"[3,1]"
NA,canvas-keyboard-response,166,210869,0.0-6.0-4.26,5012,NA,NA,NA,NA,make choice,787,3,NA,NA,critical,d,c,t,220.0396,154.6796,164,240,240,164,spektor,0.14,w,240,164,164,240,220.0396,154.6796,39360,39360,34035.6388,td,null,null,null,null,null,null,"[3,1]"
NA,canvas-keyboard-response,167,211038,0.0-6.0-5.26,5012,NA,NA,NA,NA,clear_screen,null,null,NA,NA,critical,d,c,t,220.0396,154.6796,164,240,240,164,spektor,0.14,w,240,164,164,240,220.0396,154.6796,39360,39360,34035.6388,td,null,null,null,null,null,null,"[3,1]"
NA,canvas-keyboard-response,168,211252,0.0-6.0-0.27,5012,NA,NA,NA,NA,pre trial waiting period,null,null,NA,NA,critical,t,d,c,240,164,232.8713,160.6713,164,240,trueblood,0.05,w,240,164,164,240,232.8713,160.6713,39360,39360,37415.7294,dc,null,null,null,null,null,null,"[2,3]"
NA,canvas-keyboard-response,169,211414,0.0-6.0-1.27,5012,NA,NA,NA,NA,clear_screen,null,null,NA,NA,critical,t,d,c,240,164,232.8713,160.6713,164,240,trueblood,0.05,w,240,164,164,240,232.8713,160.6713,39360,39360,37415.7294,dc,null,null,null,null,null,null,"[2,3]"
NA,canvas-keyboard-response,170,212757,0.0-6.0-2.27,5012,NA,NA,NA,NA,rectangles,null,null,NA,NA,critical,t,d,c,240,164,232.8713,160.6713,164,240,trueblood,0.05,w,240,164,164,240,232.8713,160.6713,39360,39360,37415.7294,dc,null,null,null,null,null,null,"[2,3]"
NA,canvas-keyboard-response,171,212923,0.0-6.0-3.27,5012,NA,NA,NA,NA,clear_screen,null,null,NA,NA,critical,t,d,c,240,164,232.8713,160.6713,164,240,trueblood,0.05,w,240,164,164,240,232.8713,160.6713,39360,39360,37415.7294,dc,null,null,null,null,null,null,"[2,3]"
NA,canvas-keyboard-response,172,213418,0.0-6.0-4.27,5012,NA,NA,NA,NA,make choice,483,2,NA,NA,critical,t,d,c,240,164,232.8713,160.6713,164,240,trueblood,0.05,w,240,164,164,240,232.8713,160.6713,39360,39360,37415.7294,dc,null,null,null,null,null,null,"[2,3]"
NA,canvas-keyboard-response,173,213577,0.0-6.0-5.27,5012,NA,NA,NA,NA,clear_screen,null,null,NA,NA,critical,t,d,c,240,164,232.8713,160.6713,164,240,trueblood,0.05,w,240,164,164,240,232.8713,160.6713,39360,39360,37415.7294,dc,null,null,null,null,null,null,"[2,3]"
NA,canvas-keyboard-response,174,213788,0.0-6.0-0.28,5012,NA,NA,NA,NA,pre trial waiting period,null,null,NA,NA,critical,t,c,d,240,164,164,240,227.1683,158.0083,trueblood,0.09,w,240,164,164,240,227.1683,158.0083,39360,39360,35894.4834,dc,null,null,null,null,null,null,"[3,2]"
NA,canvas-keyboard-response,175,213948,0.0-6.0-1.28,5012,NA,NA,NA,NA,clear_screen,null,null,NA,NA,critical,t,c,d,240,164,164,240,227.1683,158.0083,trueblood,0.09,w,240,164,164,240,227.1683,158.0083,39360,39360,35894.4834,dc,null,null,null,null,null,null,"[3,2]"
NA,canvas-keyboard-response,176,215289,0.0-6.0-2.28,5012,NA,NA,NA,NA,rectangles,null,null,NA,NA,critical,t,c,d,240,164,164,240,227.1683,158.0083,trueblood,0.09,w,240,164,164,240,227.1683,158.0083,39360,39360,35894.4834,dc,null,null,null,null,null,null,"[3,2]"
NA,canvas-keyboard-response,177,215454,0.0-6.0-3.28,5012,NA,NA,NA,NA,clear_screen,null,null,NA,NA,critical,t,c,d,240,164,164,240,227.1683,158.0083,trueblood,0.09,w,240,164,164,240,227.1683,158.0083,39360,39360,35894.4834,dc,null,null,null,null,null,null,"[3,2]"
NA,canvas-keyboard-response,178,216126,0.0-6.0-4.28,5012,NA,NA,NA,NA,make choice,652,2,NA,NA,critical,t,c,d,240,164,164,240,227.1683,158.0083,trueblood,0.09,w,240,164,164,240,227.1683,158.0083,39360,39360,35894.4834,dc,null,null,null,null,null,null,"[3,2]"
NA,canvas-keyboard-response,179,216290,0.0-6.0-5.28,5012,NA,NA,NA,NA,clear_screen,null,null,NA,NA,critical,t,c,d,240,164,164,240,227.1683,158.0083,trueblood,0.09,w,240,164,164,240,227.1683,158.0083,39360,39360,35894.4834,dc,null,null,null,null,null,null,"[3,2]"
NA,canvas-keyboard-response,180,216501,0.0-6.0-0.29,5012,NA,NA,NA,NA,pre trial waiting period,null,null,NA,NA,critical,d,t,c,158.0083,227.1683,164,240,240,164,spektor,0.09,h,164,240,240,164,158.0083,227.1683,39360,39360,35894.4834,dc,null,null,null,null,null,null,"[1,3]"
NA,canvas-keyboard-response,181,216662,0.0-6.0-1.29,5012,NA,NA,NA,NA,clear_screen,null,null,NA,NA,critical,d,t,c,158.0083,227.1683,164,240,240,164,spektor,0.09,h,164,240,240,164,158.0083,227.1683,39360,39360,35894.4834,dc,null,null,null,null,null,null,"[1,3]"
NA,canvas-keyboard-response,182,218008,0.0-6.0-2.29,5012,NA,NA,NA,NA,rectangles,null,null,NA,NA,critical,d,t,c,158.0083,227.1683,164,240,240,164,spektor,0.09,h,164,240,240,164,158.0083,227.1683,39360,39360,35894.4834,dc,null,null,null,null,null,null,"[1,3]"
NA,canvas-keyboard-response,183,218176,0.0-6.0-3.29,5012,NA,NA,NA,NA,clear_screen,null,null,NA,NA,critical,d,t,c,158.0083,227.1683,164,240,240,164,spektor,0.09,h,164,240,240,164,158.0083,227.1683,39360,39360,35894.4834,dc,null,null,null,null,null,null,"[1,3]"
NA,canvas-keyboard-response,184,218861,0.0-6.0-4.29,5012,NA,NA,NA,NA,make choice,668,3,NA,NA,critical,d,t,c,158.0083,227.1683,164,240,240,164,spektor,0.09,h,164,240,240,164,158.0083,227.1683,39360,39360,35894.4834,dc,null,null,null,null,null,null,"[1,3]"
NA,canvas-keyboard-response,185,219027,0.0-6.0-5.29,5012,NA,NA,NA,NA,clear_screen,null,null,NA,NA,critical,d,t,c,158.0083,227.1683,164,240,240,164,spektor,0.09,h,164,240,240,164,158.0083,227.1683,39360,39360,35894.4834,dc,null,null,null,null,null,null,"[1,3]"
NA,canvas-keyboard-response,186,219238,0.0-6.0-0.30,5012,NA,NA,NA,NA,pre trial waiting period,null,null,NA,NA,catch,l,sw,sh,198,223,197,232,233,166,trueblood,null,null,null,null,null,null,null,null,null,null,null,NA,180,200,260,200,36000,52000,"[1,2]"
NA,canvas-keyboard-response,187,219399,0.0-6.0-1.30,5012,NA,NA,NA,NA,clear_screen,null,null,NA,NA,catch,l,sw,sh,198,223,197,232,233,166,trueblood,null,null,null,null,null,null,null,null,null,null,null,NA,180,200,260,200,36000,52000,"[1,2]"
NA,canvas-keyboard-response,188,220739,0.0-6.0-2.30,5012,NA,NA,NA,NA,rectangles,null,null,NA,NA,catch,l,sw,sh,198,223,197,232,233,166,trueblood,null,null,null,null,null,null,null,null,null,null,null,NA,180,200,260,200,36000,52000,"[1,2]"
NA,canvas-keyboard-response,189,220905,0.0-6.0-3.30,5012,NA,NA,NA,NA,clear_screen,null,null,NA,NA,catch,l,sw,sh,198,223,197,232,233,166,trueblood,null,null,null,null,null,null,null,null,null,null,null,NA,180,200,260,200,36000,52000,"[1,2]"
NA,canvas-keyboard-response,190,221469,0.0-6.0-4.30,5012,NA,NA,NA,NA,make choice,545,2,NA,NA,catch,l,sw,sh,198,223,197,232,233,166,trueblood,null,null,null,null,null,null,null,null,null,null,null,NA,180,200,260,200,36000,52000,"[1,2]"
NA,canvas-keyboard-response,191,221634,0.0-6.0-5.30,5012,NA,NA,NA,NA,clear_screen,null,null,NA,NA,catch,l,sw,sh,198,223,197,232,233,166,trueblood,null,null,null,null,null,null,null,null,null,null,null,NA,180,200,260,200,36000,52000,"[1,2]"
NA,canvas-keyboard-response,192,221849,0.0-6.0-0.31,5012,NA,NA,NA,NA,pre trial waiting period,null,null,NA,NA,critical,t,d,c,164,240,154.6796,220.0396,240,164,trueblood,0.14,h,164,240,240,164,154.6796,220.0396,39360,39360,34035.6388,dc,null,null,null,null,null,null,"[2,3]"
NA,canvas-keyboard-response,193,222008,0.0-6.0-1.31,5012,NA,NA,NA,NA,clear_screen,null,null,NA,NA,critical,t,d,c,164,240,154.6796,220.0396,240,164,trueblood,0.14,h,164,240,240,164,154.6796,220.0396,39360,39360,34035.6388,dc,null,null,null,null,null,null,"[2,3]"
NA,canvas-keyboard-response,194,223351,0.0-6.0-2.31,5012,NA,NA,NA,NA,rectangles,null,null,NA,NA,critical,t,d,c,164,240,154.6796,220.0396,240,164,trueblood,0.14,h,164,240,240,164,154.6796,220.0396,39360,39360,34035.6388,dc,null,null,null,null,null,null,"[2,3]"
NA,canvas-keyboard-response,195,223518,0.0-6.0-3.31,5012,NA,NA,NA,NA,clear_screen,null,null,NA,NA,critical,t,d,c,164,240,154.6796,220.0396,240,164,trueblood,0.14,h,164,240,240,164,154.6796,220.0396,39360,39360,34035.6388,dc,null,null,null,null,null,null,"[2,3]"
NA,canvas-keyboard-response,196,224125,0.0-6.0-4.31,5012,NA,NA,NA,NA,make choice,589,3,NA,NA,critical,t,d,c,164,240,154.6796,220.0396,240,164,trueblood,0.14,h,164,240,240,164,154.6796,220.0396,39360,39360,34035.6388,dc,null,null,null,null,null,null,"[2,3]"
NA,canvas-keyboard-response,197,224293,0.0-6.0-5.31,5012,NA,NA,NA,NA,clear_screen,null,null,NA,NA,critical,t,d,c,164,240,154.6796,220.0396,240,164,trueblood,0.14,h,164,240,240,164,154.6796,220.0396,39360,39360,34035.6388,dc,null,null,null,null,null,null,"[2,3]"
NA,canvas-keyboard-response,198,224508,0.0-6.0-0.32,5012,NA,NA,NA,NA,pre trial waiting period,null,null,NA,NA,catch,l,sw,sh,197,269,183,214,220,195,spektor,null,null,null,null,null,null,null,null,null,null,null,NA,180,200,260,200,36000,52000,"[1,3]"
NA,canvas-keyboard-response,199,224669,0.0-6.0-1.32,5012,NA,NA,NA,NA,clear_screen,null,null,NA,NA,catch,l,sw,sh,197,269,183,214,220,195,spektor,null,null,null,null,null,null,null,null,null,null,null,NA,180,200,260,200,36000,52000,"[1,3]"
NA,canvas-keyboard-response,200,226013,0.0-6.0-2.32,5012,NA,NA,NA,NA,rectangles,null,null,NA,NA,catch,l,sw,sh,197,269,183,214,220,195,spektor,null,null,null,null,null,null,null,null,null,null,null,NA,180,200,260,200,36000,52000,"[1,3]"
NA,canvas-keyboard-response,201,226181,0.0-6.0-3.32,5012,NA,NA,NA,NA,clear_screen,null,null,NA,NA,catch,l,sw,sh,197,269,183,214,220,195,spektor,null,null,null,null,null,null,null,null,null,null,null,NA,180,200,260,200,36000,52000,"[1,3]"
NA,canvas-keyboard-response,202,227437,0.0-6.0-4.32,5012,NA,NA,NA,NA,make choice,1241,1,NA,NA,catch,l,sw,sh,197,269,183,214,220,195,spektor,null,null,null,null,null,null,null,null,null,null,null,NA,180,200,260,200,36000,52000,"[1,3]"
NA,canvas-keyboard-response,203,227602,0.0-6.0-5.32,5012,NA,NA,NA,NA,clear_screen,null,null,NA,NA,catch,l,sw,sh,197,269,183,214,220,195,spektor,null,null,null,null,null,null,null,null,null,null,null,NA,180,200,260,200,36000,52000,"[1,3]"
NA,canvas-keyboard-response,204,227815,0.0-6.0-0.33,5012,NA,NA,NA,NA,pre trial waiting period,null,null,NA,NA,critical,d,c,t,220.0396,154.6796,164,240,240,164,trueblood,0.14,w,240,164,164,240,220.0396,154.6796,39360,39360,34035.6388,td,null,null,null,null,null,null,"[3,1]"
NA,canvas-keyboard-response,205,227977,0.0-6.0-1.33,5012,NA,NA,NA,NA,clear_screen,null,null,NA,NA,critical,d,c,t,220.0396,154.6796,164,240,240,164,trueblood,0.14,w,240,164,164,240,220.0396,154.6796,39360,39360,34035.6388,td,null,null,null,null,null,null,"[3,1]"
NA,canvas-keyboard-response,206,229320,0.0-6.0-2.33,5012,NA,NA,NA,NA,rectangles,null,null,NA,NA,critical,d,c,t,220.0396,154.6796,164,240,240,164,trueblood,0.14,w,240,164,164,240,220.0396,154.6796,39360,39360,34035.6388,td,null,null,null,null,null,null,"[3,1]"
NA,canvas-keyboard-response,207,229487,0.0-6.0-3.33,5012,NA,NA,NA,NA,clear_screen,null,null,NA,NA,critical,d,c,t,220.0396,154.6796,164,240,240,164,trueblood,0.14,w,240,164,164,240,220.0396,154.6796,39360,39360,34035.6388,td,null,null,null,null,null,null,"[3,1]"
NA,canvas-keyboard-response,208,230165,0.0-6.0-4.33,5012,NA,NA,NA,NA,make choice,660,3,NA,NA,critical,d,c,t,220.0396,154.6796,164,240,240,164,trueblood,0.14,w,240,164,164,240,220.0396,154.6796,39360,39360,34035.6388,td,null,null,null,null,null,null,"[3,1]"
NA,canvas-keyboard-response,209,230332,0.0-6.0-5.33,5012,NA,NA,NA,NA,clear_screen,null,null,NA,NA,critical,d,c,t,220.0396,154.6796,164,240,240,164,trueblood,0.14,w,240,164,164,240,220.0396,154.6796,39360,39360,34035.6388,td,null,null,null,null,null,null,"[3,1]"
NA,canvas-keyboard-response,210,230543,0.0-6.0-0.34,5012,NA,NA,NA,NA,pre trial waiting period,null,null,NA,NA,catch,l,sh,sw,239,205,172,204,147,192,trueblood,null,null,null,null,null,null,null,null,null,null,null,NA,180,200,260,200,36000,52000,"[1,3]"
NA,canvas-keyboard-response,211,230704,0.0-6.0-1.34,5012,NA,NA,NA,NA,clear_screen,null,null,NA,NA,catch,l,sh,sw,239,205,172,204,147,192,trueblood,null,null,null,null,null,null,null,null,null,null,null,NA,180,200,260,200,36000,52000,"[1,3]"
NA,canvas-keyboard-response,212,232045,0.0-6.0-2.34,5012,NA,NA,NA,NA,rectangles,null,null,NA,NA,catch,l,sh,sw,239,205,172,204,147,192,trueblood,null,null,null,null,null,null,null,null,null,null,null,NA,180,200,260,200,36000,52000,"[1,3]"
NA,canvas-keyboard-response,213,232212,0.0-6.0-3.34,5012,NA,NA,NA,NA,clear_screen,null,null,NA,NA,catch,l,sh,sw,239,205,172,204,147,192,trueblood,null,null,null,null,null,null,null,null,null,null,null,NA,180,200,260,200,36000,52000,"[1,3]"
NA,canvas-keyboard-response,214,232821,0.0-6.0-4.34,5012,NA,NA,NA,NA,make choice,589,1,NA,NA,catch,l,sh,sw,239,205,172,204,147,192,trueblood,null,null,null,null,null,null,null,null,null,null,null,NA,180,200,260,200,36000,52000,"[1,3]"
NA,canvas-keyboard-response,215,232989,0.0-6.0-5.34,5012,NA,NA,NA,NA,clear_screen,null,null,NA,NA,catch,l,sh,sw,239,205,172,204,147,192,trueblood,null,null,null,null,null,null,null,null,null,null,null,NA,180,200,260,200,36000,52000,"[1,3]"
NA,canvas-keyboard-response,216,233205,0.0-6.0-0.35,5012,NA,NA,NA,NA,pre trial waiting period,null,null,NA,NA,critical,t,d,c,240,164,232.8713,160.6713,164,240,spektor,0.05,w,240,164,164,240,232.8713,160.6713,39360,39360,37415.7294,tc,null,null,null,null,null,null,"[1,3]"
NA,canvas-keyboard-response,217,233365,0.0-6.0-1.35,5012,NA,NA,NA,NA,clear_screen,null,null,NA,NA,critical,t,d,c,240,164,232.8713,160.6713,164,240,spektor,0.05,w,240,164,164,240,232.8713,160.6713,39360,39360,37415.7294,tc,null,null,null,null,null,null,"[1,3]"
NA,canvas-keyboard-response,218,234707,0.0-6.0-2.35,5012,NA,NA,NA,NA,rectangles,null,null,NA,NA,critical,t,d,c,240,164,232.8713,160.6713,164,240,spektor,0.05,w,240,164,164,240,232.8713,160.6713,39360,39360,37415.7294,tc,null,null,null,null,null,null,"[1,3]"
NA,canvas-keyboard-response,219,234878,0.0-6.0-3.35,5012,NA,NA,NA,NA,clear_screen,null,null,NA,NA,critical,t,d,c,240,164,232.8713,160.6713,164,240,spektor,0.05,w,240,164,164,240,232.8713,160.6713,39360,39360,37415.7294,tc,null,null,null,null,null,null,"[1,3]"
NA,canvas-keyboard-response,220,235395,0.0-6.0-4.35,5012,NA,NA,NA,NA,make choice,497,3,NA,NA,critical,t,d,c,240,164,232.8713,160.6713,164,240,spektor,0.05,w,240,164,164,240,232.8713,160.6713,39360,39360,37415.7294,tc,null,null,null,null,null,null,"[1,3]"
NA,canvas-keyboard-response,221,235558,0.0-6.0-5.35,5012,NA,NA,NA,NA,clear_screen,null,null,NA,NA,critical,t,d,c,240,164,232.8713,160.6713,164,240,spektor,0.05,w,240,164,164,240,232.8713,160.6713,39360,39360,37415.7294,tc,null,null,null,null,null,null,"[1,3]"
NA,canvas-keyboard-response,222,235772,0.0-6.0-0.36,5012,NA,NA,NA,NA,pre trial waiting period,null,null,NA,NA,critical,c,d,t,240,164,158.0083,227.1683,164,240,trueblood,0.09,h,164,240,240,164,158.0083,227.1683,39360,39360,35894.4834,td,null,null,null,null,null,null,"[3,2]"
NA,canvas-keyboard-response,223,235936,0.0-6.0-1.36,5012,NA,NA,NA,NA,clear_screen,null,null,NA,NA,critical,c,d,t,240,164,158.0083,227.1683,164,240,trueblood,0.09,h,164,240,240,164,158.0083,227.1683,39360,39360,35894.4834,td,null,null,null,null,null,null,"[3,2]"
NA,canvas-keyboard-response,224,237278,0.0-6.0-2.36,5012,NA,NA,NA,NA,rectangles,null,null,NA,NA,critical,c,d,t,240,164,158.0083,227.1683,164,240,trueblood,0.09,h,164,240,240,164,158.0083,227.1683,39360,39360,35894.4834,td,null,null,null,null,null,null,"[3,2]"
NA,canvas-keyboard-response,225,237446,0.0-6.0-3.36,5012,NA,NA,NA,NA,clear_screen,null,null,NA,NA,critical,c,d,t,240,164,158.0083,227.1683,164,240,trueblood,0.09,h,164,240,240,164,158.0083,227.1683,39360,39360,35894.4834,td,null,null,null,null,null,null,"[3,2]"
NA,canvas-keyboard-response,226,238053,0.0-6.0-4.36,5012,NA,NA,NA,NA,make choice,588,2,NA,NA,critical,c,d,t,240,164,158.0083,227.1683,164,240,trueblood,0.09,h,164,240,240,164,158.0083,227.1683,39360,39360,35894.4834,td,null,null,null,null,null,null,"[3,2]"
NA,canvas-keyboard-response,227,238219,0.0-6.0-5.36,5012,NA,NA,NA,NA,clear_screen,null,null,NA,NA,critical,c,d,t,240,164,158.0083,227.1683,164,240,trueblood,0.09,h,164,240,240,164,158.0083,227.1683,39360,39360,35894.4834,td,null,null,null,null,null,null,"[3,2]"
NA,canvas-keyboard-response,228,238433,0.0-6.0-0.37,5012,NA,NA,NA,NA,pre trial waiting period,null,null,NA,NA,catch,sh,sw,l,182,174,187,239,286,177,trueblood,null,null,null,null,null,null,null,null,null,null,null,NA,180,200,260,200,36000,52000,"[2,3]"
NA,canvas-keyboard-response,229,238595,0.0-6.0-1.37,5012,NA,NA,NA,NA,clear_screen,null,null,NA,NA,catch,sh,sw,l,182,174,187,239,286,177,trueblood,null,null,null,null,null,null,null,null,null,null,null,NA,180,200,260,200,36000,52000,"[2,3]"
NA,canvas-keyboard-response,230,239939,0.0-6.0-2.37,5012,NA,NA,NA,NA,rectangles,null,null,NA,NA,catch,sh,sw,l,182,174,187,239,286,177,trueblood,null,null,null,null,null,null,null,null,null,null,null,NA,180,200,260,200,36000,52000,"[2,3]"
NA,canvas-keyboard-response,231,240106,0.0-6.0-3.37,5012,NA,NA,NA,NA,clear_screen,null,null,NA,NA,catch,sh,sw,l,182,174,187,239,286,177,trueblood,null,null,null,null,null,null,null,null,null,null,null,NA,180,200,260,200,36000,52000,"[2,3]"
NA,canvas-keyboard-response,232,240917,0.0-6.0-4.37,5012,NA,NA,NA,NA,make choice,791,3,NA,NA,catch,sh,sw,l,182,174,187,239,286,177,trueblood,null,null,null,null,null,null,null,null,null,null,null,NA,180,200,260,200,36000,52000,"[2,3]"
NA,canvas-keyboard-response,233,241084,0.0-6.0-5.37,5012,NA,NA,NA,NA,clear_screen,null,null,NA,NA,catch,sh,sw,l,182,174,187,239,286,177,trueblood,null,null,null,null,null,null,null,null,null,null,null,NA,180,200,260,200,36000,52000,"[2,3]"
NA,canvas-keyboard-response,234,241300,0.0-6.0-0.38,5012,NA,NA,NA,NA,pre trial waiting period,null,null,NA,NA,catch,sh,sw,l,239,203,175,203,245,218,trueblood,null,null,null,null,null,null,null,null,null,null,null,NA,180,200,260,200,36000,52000,"[2,3]"
NA,canvas-keyboard-response,235,241461,0.0-6.0-1.38,5012,NA,NA,NA,NA,clear_screen,null,null,NA,NA,catch,sh,sw,l,239,203,175,203,245,218,trueblood,null,null,null,null,null,null,null,null,null,null,null,NA,180,200,260,200,36000,52000,"[2,3]"
NA,canvas-keyboard-response,236,242804,0.0-6.0-2.38,5012,NA,NA,NA,NA,rectangles,null,null,NA,NA,catch,sh,sw,l,239,203,175,203,245,218,trueblood,null,null,null,null,null,null,null,null,null,null,null,NA,180,200,260,200,36000,52000,"[2,3]"
NA,canvas-keyboard-response,237,242974,0.0-6.0-3.38,5012,NA,NA,NA,NA,clear_screen,null,null,NA,NA,catch,sh,sw,l,239,203,175,203,245,218,trueblood,null,null,null,null,null,null,null,null,null,null,null,NA,180,200,260,200,36000,52000,"[2,3]"
NA,canvas-keyboard-response,238,243845,0.0-6.0-4.38,5012,NA,NA,NA,NA,make choice,853,3,NA,NA,catch,sh,sw,l,239,203,175,203,245,218,trueblood,null,null,null,null,null,null,null,null,null,null,null,NA,180,200,260,200,36000,52000,"[2,3]"
NA,canvas-keyboard-response,239,244011,0.0-6.0-5.38,5012,NA,NA,NA,NA,clear_screen,null,null,NA,NA,catch,sh,sw,l,239,203,175,203,245,218,trueblood,null,null,null,null,null,null,null,null,null,null,null,NA,180,200,260,200,36000,52000,"[2,3]"
NA,canvas-keyboard-response,240,244229,0.0-6.0-0.39,5012,NA,NA,NA,NA,pre trial waiting period,null,null,NA,NA,catch,l,sw,sh,257,208,176,233,202,151,trueblood,null,null,null,null,null,null,null,null,null,null,null,NA,180,200,260,200,36000,52000,"[1,2]"
NA,canvas-keyboard-response,241,244389,0.0-6.0-1.39,5012,NA,NA,NA,NA,clear_screen,null,null,NA,NA,catch,l,sw,sh,257,208,176,233,202,151,trueblood,null,null,null,null,null,null,null,null,null,null,null,NA,180,200,260,200,36000,52000,"[1,2]"
NA,canvas-keyboard-response,242,245734,0.0-6.0-2.39,5012,NA,NA,NA,NA,rectangles,null,null,NA,NA,catch,l,sw,sh,257,208,176,233,202,151,trueblood,null,null,null,null,null,null,null,null,null,null,null,NA,180,200,260,200,36000,52000,"[1,2]"
NA,canvas-keyboard-response,243,245903,0.0-6.0-3.39,5012,NA,NA,NA,NA,clear_screen,null,null,NA,NA,catch,l,sw,sh,257,208,176,233,202,151,trueblood,null,null,null,null,null,null,null,null,null,null,null,NA,180,200,260,200,36000,52000,"[1,2]"
NA,canvas-keyboard-response,244,247837,0.0-6.0-4.39,5012,NA,NA,NA,NA,make choice,1917,1,NA,NA,catch,l,sw,sh,257,208,176,233,202,151,trueblood,null,null,null,null,null,null,null,null,null,null,null,NA,180,200,260,200,36000,52000,"[1,2]"
NA,canvas-keyboard-response,245,248006,0.0-6.0-5.39,5012,NA,NA,NA,NA,clear_screen,null,null,NA,NA,catch,l,sw,sh,257,208,176,233,202,151,trueblood,null,null,null,null,null,null,null,null,null,null,null,NA,180,200,260,200,36000,52000,"[1,2]"
NA,canvas-keyboard-response,246,248221,0.0-6.0-0.40,5012,NA,NA,NA,NA,pre trial waiting period,null,null,NA,NA,catch,sh,sw,l,190,180,187,211,169,274,trueblood,null,null,null,null,null,null,null,null,null,null,null,NA,180,200,260,200,36000,52000,"[2,3]"
NA,canvas-keyboard-response,247,248381,0.0-6.0-1.40,5012,NA,NA,NA,NA,clear_screen,null,null,NA,NA,catch,sh,sw,l,190,180,187,211,169,274,trueblood,null,null,null,null,null,null,null,null,null,null,null,NA,180,200,260,200,36000,52000,"[2,3]"
NA,canvas-keyboard-response,248,249725,0.0-6.0-2.40,5012,NA,NA,NA,NA,rectangles,null,null,NA,NA,catch,sh,sw,l,190,180,187,211,169,274,trueblood,null,null,null,null,null,null,null,null,null,null,null,NA,180,200,260,200,36000,52000,"[2,3]"
NA,canvas-keyboard-response,249,249893,0.0-6.0-3.40,5012,NA,NA,NA,NA,clear_screen,null,null,NA,NA,catch,sh,sw,l,190,180,187,211,169,274,trueblood,null,null,null,null,null,null,null,null,null,null,null,NA,180,200,260,200,36000,52000,"[2,3]"
NA,canvas-keyboard-response,250,250661,0.0-6.0-4.40,5012,NA,NA,NA,NA,make choice,748,3,NA,NA,catch,sh,sw,l,190,180,187,211,169,274,trueblood,null,null,null,null,null,null,null,null,null,null,null,NA,180,200,260,200,36000,52000,"[2,3]"
NA,canvas-keyboard-response,251,250830,0.0-6.0-5.40,5012,NA,NA,NA,NA,clear_screen,null,null,NA,NA,catch,sh,sw,l,190,180,187,211,169,274,trueblood,null,null,null,null,null,null,null,null,null,null,null,NA,180,200,260,200,36000,52000,"[2,3]"
NA,canvas-keyboard-response,252,251042,0.0-6.0-0.41,5012,NA,NA,NA,NA,pre trial waiting period,null,null,NA,NA,critical,d,t,c,220.0396,154.6796,240,164,164,240,spektor,0.14,w,240,164,164,240,220.0396,154.6796,39360,39360,34035.6388,tc,null,null,null,null,null,null,"[2,3]"
NA,canvas-keyboard-response,253,251202,0.0-6.0-1.41,5012,NA,NA,NA,NA,clear_screen,null,null,NA,NA,critical,d,t,c,220.0396,154.6796,240,164,164,240,spektor,0.14,w,240,164,164,240,220.0396,154.6796,39360,39360,34035.6388,tc,null,null,null,null,null,null,"[2,3]"
NA,canvas-keyboard-response,254,252548,0.0-6.0-2.41,5012,NA,NA,NA,NA,rectangles,null,null,NA,NA,critical,d,t,c,220.0396,154.6796,240,164,164,240,spektor,0.14,w,240,164,164,240,220.0396,154.6796,39360,39360,34035.6388,tc,null,null,null,null,null,null,"[2,3]"
NA,canvas-keyboard-response,255,252717,0.0-6.0-3.41,5012,NA,NA,NA,NA,clear_screen,null,null,NA,NA,critical,d,t,c,220.0396,154.6796,240,164,164,240,spektor,0.14,w,240,164,164,240,220.0396,154.6796,39360,39360,34035.6388,tc,null,null,null,null,null,null,"[2,3]"
NA,canvas-keyboard-response,256,253173,0.0-6.0-4.41,5012,NA,NA,NA,NA,make choice,435,2,NA,NA,critical,d,t,c,220.0396,154.6796,240,164,164,240,spektor,0.14,w,240,164,164,240,220.0396,154.6796,39360,39360,34035.6388,tc,null,null,null,null,null,null,"[2,3]"
NA,canvas-keyboard-response,257,253342,0.0-6.0-5.41,5012,NA,NA,NA,NA,clear_screen,null,null,NA,NA,critical,d,t,c,220.0396,154.6796,240,164,164,240,spektor,0.14,w,240,164,164,240,220.0396,154.6796,39360,39360,34035.6388,tc,null,null,null,null,null,null,"[2,3]"
NA,canvas-keyboard-response,258,253556,0.0-6.0-0.42,5012,NA,NA,NA,NA,pre trial waiting period,null,null,NA,NA,critical,c,t,d,240,164,164,240,154.6796,220.0396,spektor,0.14,h,164,240,240,164,154.6796,220.0396,39360,39360,34035.6388,tc,null,null,null,null,null,null,"[2,1]"
NA,canvas-keyboard-response,259,253716,0.0-6.0-1.42,5012,NA,NA,NA,NA,clear_screen,null,null,NA,NA,critical,c,t,d,240,164,164,240,154.6796,220.0396,spektor,0.14,h,164,240,240,164,154.6796,220.0396,39360,39360,34035.6388,tc,null,null,null,null,null,null,"[2,1]"
NA,canvas-keyboard-response,260,255060,0.0-6.0-2.42,5012,NA,NA,NA,NA,rectangles,null,null,NA,NA,critical,c,t,d,240,164,164,240,154.6796,220.0396,spektor,0.14,h,164,240,240,164,154.6796,220.0396,39360,39360,34035.6388,tc,null,null,null,null,null,null,"[2,1]"
NA,canvas-keyboard-response,261,255229,0.0-6.0-3.42,5012,NA,NA,NA,NA,clear_screen,null,null,NA,NA,critical,c,t,d,240,164,164,240,154.6796,220.0396,spektor,0.14,h,164,240,240,164,154.6796,220.0396,39360,39360,34035.6388,tc,null,null,null,null,null,null,"[2,1]"
NA,canvas-keyboard-response,262,255637,0.0-6.0-4.42,5012,NA,NA,NA,NA,make choice,390,2,NA,NA,critical,c,t,d,240,164,164,240,154.6796,220.0396,spektor,0.14,h,164,240,240,164,154.6796,220.0396,39360,39360,34035.6388,tc,null,null,null,null,null,null,"[2,1]"
NA,canvas-keyboard-response,263,255807,0.0-6.0-5.42,5012,NA,NA,NA,NA,clear_screen,null,null,NA,NA,critical,c,t,d,240,164,164,240,154.6796,220.0396,spektor,0.14,h,164,240,240,164,154.6796,220.0396,39360,39360,34035.6388,tc,null,null,null,null,null,null,"[2,1]"
NA,canvas-keyboard-response,264,256021,0.0-6.0-0.43,5012,NA,NA,NA,NA,pre trial waiting period,null,null,NA,NA,critical,t,d,c,240,164,227.1683,158.0083,164,240,trueblood,0.09,w,240,164,164,240,227.1683,158.0083,39360,39360,35894.4834,tc,null,null,null,null,null,null,"[1,3]"
NA,canvas-keyboard-response,265,256185,0.0-6.0-1.43,5012,NA,NA,NA,NA,clear_screen,null,null,NA,NA,critical,t,d,c,240,164,227.1683,158.0083,164,240,trueblood,0.09,w,240,164,164,240,227.1683,158.0083,39360,39360,35894.4834,tc,null,null,null,null,null,null,"[1,3]"
NA,canvas-keyboard-response,266,257529,0.0-6.0-2.43,5012,NA,NA,NA,NA,rectangles,null,null,NA,NA,critical,t,d,c,240,164,227.1683,158.0083,164,240,trueblood,0.09,w,240,164,164,240,227.1683,158.0083,39360,39360,35894.4834,tc,null,null,null,null,null,null,"[1,3]"
NA,canvas-keyboard-response,267,257698,0.0-6.0-3.43,5012,NA,NA,NA,NA,clear_screen,null,null,NA,NA,critical,t,d,c,240,164,227.1683,158.0083,164,240,trueblood,0.09,w,240,164,164,240,227.1683,158.0083,39360,39360,35894.4834,tc,null,null,null,null,null,null,"[1,3]"
NA,canvas-keyboard-response,268,258141,0.0-6.0-4.43,5012,NA,NA,NA,NA,make choice,423,3,NA,NA,critical,t,d,c,240,164,227.1683,158.0083,164,240,trueblood,0.09,w,240,164,164,240,227.1683,158.0083,39360,39360,35894.4834,tc,null,null,null,null,null,null,"[1,3]"
NA,canvas-keyboard-response,269,258309,0.0-6.0-5.43,5012,NA,NA,NA,NA,clear_screen,null,null,NA,NA,critical,t,d,c,240,164,227.1683,158.0083,164,240,trueblood,0.09,w,240,164,164,240,227.1683,158.0083,39360,39360,35894.4834,tc,null,null,null,null,null,null,"[1,3]"
NA,canvas-keyboard-response,270,258525,0.0-6.0-0.44,5012,NA,NA,NA,NA,pre trial waiting period,null,null,NA,NA,catch,l,sw,sh,281,231,150,167,183,171,spektor,null,null,null,null,null,null,null,null,null,null,null,NA,180,200,260,200,36000,52000,"[1,2]"
NA,canvas-keyboard-response,271,258688,0.0-6.0-1.44,5012,NA,NA,NA,NA,clear_screen,null,null,NA,NA,catch,l,sw,sh,281,231,150,167,183,171,spektor,null,null,null,null,null,null,null,null,null,null,null,NA,180,200,260,200,36000,52000,"[1,2]"
NA,canvas-keyboard-response,272,260034,0.0-6.0-2.44,5012,NA,NA,NA,NA,rectangles,null,null,NA,NA,catch,l,sw,sh,281,231,150,167,183,171,spektor,null,null,null,null,null,null,null,null,null,null,null,NA,180,200,260,200,36000,52000,"[1,2]"
NA,canvas-keyboard-response,273,260204,0.0-6.0-3.44,5012,NA,NA,NA,NA,clear_screen,null,null,NA,NA,catch,l,sw,sh,281,231,150,167,183,171,spektor,null,null,null,null,null,null,null,null,null,null,null,NA,180,200,260,200,36000,52000,"[1,2]"
NA,canvas-keyboard-response,274,260844,0.0-6.0-4.44,5012,NA,NA,NA,NA,make choice,620,1,NA,NA,catch,l,sw,sh,281,231,150,167,183,171,spektor,null,null,null,null,null,null,null,null,null,null,null,NA,180,200,260,200,36000,52000,"[1,2]"
NA,canvas-keyboard-response,275,261011,0.0-6.0-5.44,5012,NA,NA,NA,NA,clear_screen,null,null,NA,NA,catch,l,sw,sh,281,231,150,167,183,171,spektor,null,null,null,null,null,null,null,null,null,null,null,NA,180,200,260,200,36000,52000,"[1,2]"
NA,canvas-keyboard-response,276,261226,0.0-6.0-0.45,5012,NA,NA,NA,NA,pre trial waiting period,null,null,NA,NA,critical,d,c,t,237.1485,162.6685,164,240,240,164,trueblood,0.02,w,240,164,164,240,237.1485,162.6685,39360,39360,38576.5967,dc,null,null,null,null,null,null,"[1,2]"
NA,canvas-keyboard-response,277,261386,0.0-6.0-1.45,5012,NA,NA,NA,NA,clear_screen,null,null,NA,NA,critical,d,c,t,237.1485,162.6685,164,240,240,164,trueblood,0.02,w,240,164,164,240,237.1485,162.6685,39360,39360,38576.5967,dc,null,null,null,null,null,null,"[1,2]"
NA,canvas-keyboard-response,278,262730,0.0-6.0-2.45,5012,NA,NA,NA,NA,rectangles,null,null,NA,NA,critical,d,c,t,237.1485,162.6685,164,240,240,164,trueblood,0.02,w,240,164,164,240,237.1485,162.6685,39360,39360,38576.5967,dc,null,null,null,null,null,null,"[1,2]"
NA,canvas-keyboard-response,279,262899,0.0-6.0-3.45,5012,NA,NA,NA,NA,clear_screen,null,null,NA,NA,critical,d,c,t,237.1485,162.6685,164,240,240,164,trueblood,0.02,w,240,164,164,240,237.1485,162.6685,39360,39360,38576.5967,dc,null,null,null,null,null,null,"[1,2]"
NA,canvas-keyboard-response,280,263973,0.0-6.0-4.45,5012,NA,NA,NA,NA,make choice,1049,2,NA,NA,critical,d,c,t,237.1485,162.6685,164,240,240,164,trueblood,0.02,w,240,164,164,240,237.1485,162.6685,39360,39360,38576.5967,dc,null,null,null,null,null,null,"[1,2]"
NA,canvas-keyboard-response,281,264146,0.0-6.0-5.45,5012,NA,NA,NA,NA,clear_screen,null,null,NA,NA,critical,d,c,t,237.1485,162.6685,164,240,240,164,trueblood,0.02,w,240,164,164,240,237.1485,162.6685,39360,39360,38576.5967,dc,null,null,null,null,null,null,"[1,2]"
NA,canvas-keyboard-response,282,264362,0.0-6.0-0.46,5012,NA,NA,NA,NA,pre trial waiting period,null,null,NA,NA,critical,d,t,c,164,240,164,240,240,164,trueblood,0,h,164,240,240,164,164,240,39360,39360,39360,dc,null,null,null,null,null,null,"[1,3]"
NA,canvas-keyboard-response,283,264525,0.0-6.0-1.46,5012,NA,NA,NA,NA,clear_screen,null,null,NA,NA,critical,d,t,c,164,240,164,240,240,164,trueblood,0,h,164,240,240,164,164,240,39360,39360,39360,dc,null,null,null,null,null,null,"[1,3]"
NA,canvas-keyboard-response,284,265872,0.0-6.0-2.46,5012,NA,NA,NA,NA,rectangles,null,null,NA,NA,critical,d,t,c,164,240,164,240,240,164,trueblood,0,h,164,240,240,164,164,240,39360,39360,39360,dc,null,null,null,null,null,null,"[1,3]"
NA,canvas-keyboard-response,285,266044,0.0-6.0-3.46,5012,NA,NA,NA,NA,clear_screen,null,null,NA,NA,critical,d,t,c,164,240,164,240,240,164,trueblood,0,h,164,240,240,164,164,240,39360,39360,39360,dc,null,null,null,null,null,null,"[1,3]"
NA,canvas-keyboard-response,286,267117,0.0-6.0-4.46,5012,NA,NA,NA,NA,make choice,1052,3,NA,NA,critical,d,t,c,164,240,164,240,240,164,trueblood,0,h,164,240,240,164,164,240,39360,39360,39360,dc,null,null,null,null,null,null,"[1,3]"
NA,canvas-keyboard-response,287,267288,0.0-6.0-5.46,5012,NA,NA,NA,NA,clear_screen,null,null,NA,NA,critical,d,t,c,164,240,164,240,240,164,trueblood,0,h,164,240,240,164,164,240,39360,39360,39360,dc,null,null,null,null,null,null,"[1,3]"
NA,canvas-keyboard-response,288,267506,0.0-6.0-0.47,5012,NA,NA,NA,NA,pre trial waiting period,null,null,NA,NA,critical,t,c,d,240,164,164,240,227.1683,158.0083,spektor,0.09,w,240,164,164,240,227.1683,158.0083,39360,39360,35894.4834,dc,null,null,null,null,null,null,"[3,2]"
NA,canvas-keyboard-response,289,267666,0.0-6.0-1.47,5012,NA,NA,NA,NA,clear_screen,null,null,NA,NA,critical,t,c,d,240,164,164,240,227.1683,158.0083,spektor,0.09,w,240,164,164,240,227.1683,158.0083,39360,39360,35894.4834,dc,null,null,null,null,null,null,"[3,2]"
NA,canvas-keyboard-response,290,269013,0.0-6.0-2.47,5012,NA,NA,NA,NA,rectangles,null,null,NA,NA,critical,t,c,d,240,164,164,240,227.1683,158.0083,spektor,0.09,w,240,164,164,240,227.1683,158.0083,39360,39360,35894.4834,dc,null,null,null,null,null,null,"[3,2]"
NA,canvas-keyboard-response,291,269184,0.0-6.0-3.47,5012,NA,NA,NA,NA,clear_screen,null,null,NA,NA,critical,t,c,d,240,164,164,240,227.1683,158.0083,spektor,0.09,w,240,164,164,240,227.1683,158.0083,39360,39360,35894.4834,dc,null,null,null,null,null,null,"[3,2]"
NA,canvas-keyboard-response,292,269692,0.0-6.0-4.47,5012,NA,NA,NA,NA,make choice,488,2,NA,NA,critical,t,c,d,240,164,164,240,227.1683,158.0083,spektor,0.09,w,240,164,164,240,227.1683,158.0083,39360,39360,35894.4834,dc,null,null,null,null,null,null,"[3,2]"
NA,canvas-keyboard-response,293,269857,0.0-6.0-5.47,5012,NA,NA,NA,NA,clear_screen,null,null,NA,NA,critical,t,c,d,240,164,164,240,227.1683,158.0083,spektor,0.09,w,240,164,164,240,227.1683,158.0083,39360,39360,35894.4834,dc,null,null,null,null,null,null,"[3,2]"
NA,canvas-keyboard-response,294,270075,0.0-6.0-0.48,5012,NA,NA,NA,NA,pre trial waiting period,null,null,NA,NA,critical,d,c,t,237.1485,162.6685,164,240,240,164,trueblood,0.02,w,240,164,164,240,237.1485,162.6685,39360,39360,38576.5967,td,null,null,null,null,null,null,"[3,1]"
NA,canvas-keyboard-response,295,270237,0.0-6.0-1.48,5012,NA,NA,NA,NA,clear_screen,null,null,NA,NA,critical,d,c,t,237.1485,162.6685,164,240,240,164,trueblood,0.02,w,240,164,164,240,237.1485,162.6685,39360,39360,38576.5967,td,null,null,null,null,null,null,"[3,1]"
NA,canvas-keyboard-response,296,271585,0.0-6.0-2.48,5012,NA,NA,NA,NA,rectangles,null,null,NA,NA,critical,d,c,t,237.1485,162.6685,164,240,240,164,trueblood,0.02,w,240,164,164,240,237.1485,162.6685,39360,39360,38576.5967,td,null,null,null,null,null,null,"[3,1]"
NA,canvas-keyboard-response,297,271755,0.0-6.0-3.48,5012,NA,NA,NA,NA,clear_screen,null,null,NA,NA,critical,d,c,t,237.1485,162.6685,164,240,240,164,trueblood,0.02,w,240,164,164,240,237.1485,162.6685,39360,39360,38576.5967,td,null,null,null,null,null,null,"[3,1]"
NA,canvas-keyboard-response,298,272589,0.0-6.0-4.48,5012,NA,NA,NA,NA,make choice,813,1,NA,NA,critical,d,c,t,237.1485,162.6685,164,240,240,164,trueblood,0.02,w,240,164,164,240,237.1485,162.6685,39360,39360,38576.5967,td,null,null,null,null,null,null,"[3,1]"
NA,canvas-keyboard-response,299,272758,0.0-6.0-5.48,5012,NA,NA,NA,NA,clear_screen,null,null,NA,NA,critical,d,c,t,237.1485,162.6685,164,240,240,164,trueblood,0.02,w,240,164,164,240,237.1485,162.6685,39360,39360,38576.5967,td,null,null,null,null,null,null,"[3,1]"
NA,canvas-keyboard-response,300,272974,0.0-6.0-0.49,5012,NA,NA,NA,NA,pre trial waiting period,null,null,NA,NA,catch,sw,l,sh,180,200,243,195,191,218,spektor,null,null,null,null,null,null,null,null,null,null,null,NA,180,200,260,200,36000,52000,"[1,2]"
NA,canvas-keyboard-response,301,273135,0.0-6.0-1.49,5012,NA,NA,NA,NA,clear_screen,null,null,NA,NA,catch,sw,l,sh,180,200,243,195,191,218,spektor,null,null,null,null,null,null,null,null,null,null,null,NA,180,200,260,200,36000,52000,"[1,2]"
NA,canvas-keyboard-response,302,274481,0.0-6.0-2.49,5012,NA,NA,NA,NA,rectangles,null,null,NA,NA,catch,sw,l,sh,180,200,243,195,191,218,spektor,null,null,null,null,null,null,null,null,null,null,null,NA,180,200,260,200,36000,52000,"[1,2]"
NA,canvas-keyboard-response,303,274652,0.0-6.0-3.49,5012,NA,NA,NA,NA,clear_screen,null,null,NA,NA,catch,sw,l,sh,180,200,243,195,191,218,spektor,null,null,null,null,null,null,null,null,null,null,null,NA,180,200,260,200,36000,52000,"[1,2]"
NA,canvas-keyboard-response,304,275516,0.0-6.0-4.49,5012,NA,NA,NA,NA,make choice,844,2,NA,NA,catch,sw,l,sh,180,200,243,195,191,218,spektor,null,null,null,null,null,null,null,null,null,null,null,NA,180,200,260,200,36000,52000,"[1,2]"
NA,canvas-keyboard-response,305,275685,0.0-6.0-5.49,5012,NA,NA,NA,NA,clear_screen,null,null,NA,NA,catch,sw,l,sh,180,200,243,195,191,218,spektor,null,null,null,null,null,null,null,null,null,null,null,NA,180,200,260,200,36000,52000,"[1,2]"
NA,canvas-keyboard-response,306,275900,0.0-6.0-0.50,5012,NA,NA,NA,NA,pre trial waiting period,null,null,NA,NA,catch,l,sh,sw,181,256,207,153,187,209,trueblood,null,null,null,null,null,null,null,null,null,null,null,NA,180,200,260,200,36000,52000,"[1,2]"
NA,canvas-keyboard-response,307,276062,0.0-6.0-1.50,5012,NA,NA,NA,NA,clear_screen,null,null,NA,NA,catch,l,sh,sw,181,256,207,153,187,209,trueblood,null,null,null,null,null,null,null,null,null,null,null,NA,180,200,260,200,36000,52000,"[1,2]"
NA,canvas-keyboard-response,308,277409,0.0-6.0-2.50,5012,NA,NA,NA,NA,rectangles,null,null,NA,NA,catch,l,sh,sw,181,256,207,153,187,209,trueblood,null,null,null,null,null,null,null,null,null,null,null,NA,180,200,260,200,36000,52000,"[1,2]"
NA,canvas-keyboard-response,309,277579,0.0-6.0-3.50,5012,NA,NA,NA,NA,clear_screen,null,null,NA,NA,catch,l,sh,sw,181,256,207,153,187,209,trueblood,null,null,null,null,null,null,null,null,null,null,null,NA,180,200,260,200,36000,52000,"[1,2]"
NA,canvas-keyboard-response,310,278221,0.0-6.0-4.50,5012,NA,NA,NA,NA,make choice,625,1,NA,NA,catch,l,sh,sw,181,256,207,153,187,209,trueblood,null,null,null,null,null,null,null,null,null,null,null,NA,180,200,260,200,36000,52000,"[1,2]"
NA,canvas-keyboard-response,311,278392,0.0-6.0-5.50,5012,NA,NA,NA,NA,clear_screen,null,null,NA,NA,catch,l,sh,sw,181,256,207,153,187,209,trueblood,null,null,null,null,null,null,null,null,null,null,null,NA,180,200,260,200,36000,52000,"[1,2]"
NA,canvas-keyboard-response,312,278608,0.0-6.0-0.51,5012,NA,NA,NA,NA,pre trial waiting period,null,null,NA,NA,critical,d,t,c,227.1683,158.0083,240,164,164,240,trueblood,0.09,w,240,164,164,240,227.1683,158.0083,39360,39360,35894.4834,td,null,null,null,null,null,null,"[2,1]"
NA,canvas-keyboard-response,313,278768,0.0-6.0-1.51,5012,NA,NA,NA,NA,clear_screen,null,null,NA,NA,critical,d,t,c,227.1683,158.0083,240,164,164,240,trueblood,0.09,w,240,164,164,240,227.1683,158.0083,39360,39360,35894.4834,td,null,null,null,null,null,null,"[2,1]"
NA,canvas-keyboard-response,314,280113,0.0-6.0-2.51,5012,NA,NA,NA,NA,rectangles,null,null,NA,NA,critical,d,t,c,227.1683,158.0083,240,164,164,240,trueblood,0.09,w,240,164,164,240,227.1683,158.0083,39360,39360,35894.4834,td,null,null,null,null,null,null,"[2,1]"
NA,canvas-keyboard-response,315,280283,0.0-6.0-3.51,5012,NA,NA,NA,NA,clear_screen,null,null,NA,NA,critical,d,t,c,227.1683,158.0083,240,164,164,240,trueblood,0.09,w,240,164,164,240,227.1683,158.0083,39360,39360,35894.4834,td,null,null,null,null,null,null,"[2,1]"
NA,canvas-keyboard-response,316,281053,0.0-6.0-4.51,5012,NA,NA,NA,NA,make choice,748,2,NA,NA,critical,d,t,c,227.1683,158.0083,240,164,164,240,trueblood,0.09,w,240,164,164,240,227.1683,158.0083,39360,39360,35894.4834,td,null,null,null,null,null,null,"[2,1]"
NA,canvas-keyboard-response,317,281222,0.0-6.0-5.51,5012,NA,NA,NA,NA,clear_screen,null,null,NA,NA,critical,d,t,c,227.1683,158.0083,240,164,164,240,trueblood,0.09,w,240,164,164,240,227.1683,158.0083,39360,39360,35894.4834,td,null,null,null,null,null,null,"[2,1]"
NA,canvas-keyboard-response,318,281438,0.0-6.0-0.52,5012,NA,NA,NA,NA,pre trial waiting period,null,null,NA,NA,catch,sh,sw,l,236,146,200,214,255,163,trueblood,null,null,null,null,null,null,null,null,null,null,null,NA,180,200,260,200,36000,52000,"[1,3]"
NA,canvas-keyboard-response,319,281599,0.0-6.0-1.52,5012,NA,NA,NA,NA,clear_screen,null,null,NA,NA,catch,sh,sw,l,236,146,200,214,255,163,trueblood,null,null,null,null,null,null,null,null,null,null,null,NA,180,200,260,200,36000,52000,"[1,3]"
NA,canvas-keyboard-response,320,282946,0.0-6.0-2.52,5012,NA,NA,NA,NA,rectangles,null,null,NA,NA,catch,sh,sw,l,236,146,200,214,255,163,trueblood,null,null,null,null,null,null,null,null,null,null,null,NA,180,200,260,200,36000,52000,"[1,3]"
NA,canvas-keyboard-response,321,283117,0.0-6.0-3.52,5012,NA,NA,NA,NA,clear_screen,null,null,NA,NA,catch,sh,sw,l,236,146,200,214,255,163,trueblood,null,null,null,null,null,null,null,null,null,null,null,NA,180,200,260,200,36000,52000,"[1,3]"
NA,canvas-keyboard-response,322,283716,0.0-6.0-4.52,5012,NA,NA,NA,NA,make choice,577,3,NA,NA,catch,sh,sw,l,236,146,200,214,255,163,trueblood,null,null,null,null,null,null,null,null,null,null,null,NA,180,200,260,200,36000,52000,"[1,3]"
NA,canvas-keyboard-response,323,283880,0.0-6.0-5.52,5012,NA,NA,NA,NA,clear_screen,null,null,NA,NA,catch,sh,sw,l,236,146,200,214,255,163,trueblood,null,null,null,null,null,null,null,null,null,null,null,NA,180,200,260,200,36000,52000,"[1,3]"
NA,canvas-keyboard-response,324,284096,0.0-6.0-0.53,5012,NA,NA,NA,NA,pre trial waiting period,null,null,NA,NA,critical,t,d,c,164,240,164,240,240,164,spektor,0,h,164,240,240,164,164,240,39360,39360,39360,td,null,null,null,null,null,null,"[1,2]"
NA,canvas-keyboard-response,325,284256,0.0-6.0-1.53,5012,NA,NA,NA,NA,clear_screen,null,null,NA,NA,critical,t,d,c,164,240,164,240,240,164,spektor,0,h,164,240,240,164,164,240,39360,39360,39360,td,null,null,null,null,null,null,"[1,2]"
NA,canvas-keyboard-response,326,285601,0.0-6.0-2.53,5012,NA,NA,NA,NA,rectangles,null,null,NA,NA,critical,t,d,c,164,240,164,240,240,164,spektor,0,h,164,240,240,164,164,240,39360,39360,39360,td,null,null,null,null,null,null,"[1,2]"
NA,canvas-keyboard-response,327,285773,0.0-6.0-3.53,5012,NA,NA,NA,NA,clear_screen,null,null,NA,NA,critical,t,d,c,164,240,164,240,240,164,spektor,0,h,164,240,240,164,164,240,39360,39360,39360,td,null,null,null,null,null,null,"[1,2]"
NA,canvas-keyboard-response,328,286283,0.0-6.0-4.53,5012,NA,NA,NA,NA,make choice,489,1,NA,NA,critical,t,d,c,164,240,164,240,240,164,spektor,0,h,164,240,240,164,164,240,39360,39360,39360,td,null,null,null,null,null,null,"[1,2]"
NA,canvas-keyboard-response,329,286450,0.0-6.0-5.53,5012,NA,NA,NA,NA,clear_screen,null,null,NA,NA,critical,t,d,c,164,240,164,240,240,164,spektor,0,h,164,240,240,164,164,240,39360,39360,39360,td,null,null,null,null,null,null,"[1,2]"
NA,canvas-keyboard-response,330,286669,0.0-6.0-0.54,5012,NA,NA,NA,NA,pre trial waiting period,null,null,NA,NA,catch,sh,l,sw,165,140,212,270,173,162,spektor,null,null,null,null,null,null,null,null,null,null,null,NA,180,200,260,200,36000,52000,"[2,3]"
NA,canvas-keyboard-response,331,286828,0.0-6.0-1.54,5012,NA,NA,NA,NA,clear_screen,null,null,NA,NA,catch,sh,l,sw,165,140,212,270,173,162,spektor,null,null,null,null,null,null,null,null,null,null,null,NA,180,200,260,200,36000,52000,"[2,3]"
NA,canvas-keyboard-response,332,288174,0.0-6.0-2.54,5012,NA,NA,NA,NA,rectangles,null,null,NA,NA,catch,sh,l,sw,165,140,212,270,173,162,spektor,null,null,null,null,null,null,null,null,null,null,null,NA,180,200,260,200,36000,52000,"[2,3]"
NA,canvas-keyboard-response,333,288345,0.0-6.0-3.54,5012,NA,NA,NA,NA,clear_screen,null,null,NA,NA,catch,sh,l,sw,165,140,212,270,173,162,spektor,null,null,null,null,null,null,null,null,null,null,null,NA,180,200,260,200,36000,52000,"[2,3]"
NA,canvas-keyboard-response,334,288900,0.0-6.0-4.54,5012,NA,NA,NA,NA,make choice,534,2,NA,NA,catch,sh,l,sw,165,140,212,270,173,162,spektor,null,null,null,null,null,null,null,null,null,null,null,NA,180,200,260,200,36000,52000,"[2,3]"
NA,canvas-keyboard-response,335,289069,0.0-6.0-5.54,5012,NA,NA,NA,NA,clear_screen,null,null,NA,NA,catch,sh,l,sw,165,140,212,270,173,162,spektor,null,null,null,null,null,null,null,null,null,null,null,NA,180,200,260,200,36000,52000,"[2,3]"
NA,canvas-keyboard-response,336,289287,0.0-6.0-0.55,5012,NA,NA,NA,NA,pre trial waiting period,null,null,NA,NA,catch,l,sh,sw,266,234,206,164,173,224,trueblood,null,null,null,null,null,null,null,null,null,null,null,NA,180,200,260,200,36000,52000,"[1,2]"
NA,canvas-keyboard-response,337,289447,0.0-6.0-1.55,5012,NA,NA,NA,NA,clear_screen,null,null,NA,NA,catch,l,sh,sw,266,234,206,164,173,224,trueblood,null,null,null,null,null,null,null,null,null,null,null,NA,180,200,260,200,36000,52000,"[1,2]"
NA,canvas-keyboard-response,338,290791,0.0-6.0-2.55,5012,NA,NA,NA,NA,rectangles,null,null,NA,NA,catch,l,sh,sw,266,234,206,164,173,224,trueblood,null,null,null,null,null,null,null,null,null,null,null,NA,180,200,260,200,36000,52000,"[1,2]"
NA,canvas-keyboard-response,339,290965,0.0-6.0-3.55,5012,NA,NA,NA,NA,clear_screen,null,null,NA,NA,catch,l,sh,sw,266,234,206,164,173,224,trueblood,null,null,null,null,null,null,null,null,null,null,null,NA,180,200,260,200,36000,52000,"[1,2]"
NA,canvas-keyboard-response,340,291365,0.0-6.0-4.55,5012,NA,NA,NA,NA,make choice,379,1,NA,NA,catch,l,sh,sw,266,234,206,164,173,224,trueblood,null,null,null,null,null,null,null,null,null,null,null,NA,180,200,260,200,36000,52000,"[1,2]"
NA,canvas-keyboard-response,341,291534,0.0-6.0-5.55,5012,NA,NA,NA,NA,clear_screen,null,null,NA,NA,catch,l,sh,sw,266,234,206,164,173,224,trueblood,null,null,null,null,null,null,null,null,null,null,null,NA,180,200,260,200,36000,52000,"[1,2]"
NA,canvas-keyboard-response,342,291749,0.0-6.0-0.56,5012,NA,NA,NA,NA,pre trial waiting period,null,null,NA,NA,critical,c,t,d,240,164,164,240,154.6796,220.0396,spektor,0.14,h,164,240,240,164,154.6796,220.0396,39360,39360,34035.6388,dc,null,null,null,null,null,null,"[3,1]"
NA,canvas-keyboard-response,343,291910,0.0-6.0-1.56,5012,NA,NA,NA,NA,clear_screen,null,null,NA,NA,critical,c,t,d,240,164,164,240,154.6796,220.0396,spektor,0.14,h,164,240,240,164,154.6796,220.0396,39360,39360,34035.6388,dc,null,null,null,null,null,null,"[3,1]"
NA,canvas-keyboard-response,344,293258,0.0-6.0-2.56,5012,NA,NA,NA,NA,rectangles,null,null,NA,NA,critical,c,t,d,240,164,164,240,154.6796,220.0396,spektor,0.14,h,164,240,240,164,154.6796,220.0396,39360,39360,34035.6388,dc,null,null,null,null,null,null,"[3,1]"
NA,canvas-keyboard-response,345,293429,0.0-6.0-3.56,5012,NA,NA,NA,NA,clear_screen,null,null,NA,NA,critical,c,t,d,240,164,164,240,154.6796,220.0396,spektor,0.14,h,164,240,240,164,154.6796,220.0396,39360,39360,34035.6388,dc,null,null,null,null,null,null,"[3,1]"
NA,canvas-keyboard-response,346,294766,0.0-6.0-4.56,5012,NA,NA,NA,NA,make choice,1315,1,NA,NA,critical,c,t,d,240,164,164,240,154.6796,220.0396,spektor,0.14,h,164,240,240,164,154.6796,220.0396,39360,39360,34035.6388,dc,null,null,null,null,null,null,"[3,1]"
NA,canvas-keyboard-response,347,294937,0.0-6.0-5.56,5012,NA,NA,NA,NA,clear_screen,null,null,NA,NA,critical,c,t,d,240,164,164,240,154.6796,220.0396,spektor,0.14,h,164,240,240,164,154.6796,220.0396,39360,39360,34035.6388,dc,null,null,null,null,null,null,"[3,1]"
NA,canvas-keyboard-response,348,295155,0.0-6.0-0.57,5012,NA,NA,NA,NA,pre trial waiting period,null,null,NA,NA,catch,sw,l,sh,180,200,227,260,214,174,spektor,null,null,null,null,null,null,null,null,null,null,null,NA,180,200,260,200,36000,52000,"[1,2]"
NA,canvas-keyboard-response,349,295316,0.0-6.0-1.57,5012,NA,NA,NA,NA,clear_screen,null,null,NA,NA,catch,sw,l,sh,180,200,227,260,214,174,spektor,null,null,null,null,null,null,null,null,null,null,null,NA,180,200,260,200,36000,52000,"[1,2]"
NA,canvas-keyboard-response,350,296665,0.0-6.0-2.57,5012,NA,NA,NA,NA,rectangles,null,null,NA,NA,catch,sw,l,sh,180,200,227,260,214,174,spektor,null,null,null,null,null,null,null,null,null,null,null,NA,180,200,260,200,36000,52000,"[1,2]"
NA,canvas-keyboard-response,351,296834,0.0-6.0-3.57,5012,NA,NA,NA,NA,clear_screen,null,null,NA,NA,catch,sw,l,sh,180,200,227,260,214,174,spektor,null,null,null,null,null,null,null,null,null,null,null,NA,180,200,260,200,36000,52000,"[1,2]"
NA,canvas-keyboard-response,352,297452,0.0-6.0-4.57,5012,NA,NA,NA,NA,make choice,597,2,NA,NA,catch,sw,l,sh,180,200,227,260,214,174,spektor,null,null,null,null,null,null,null,null,null,null,null,NA,180,200,260,200,36000,52000,"[1,2]"
NA,canvas-keyboard-response,353,297623,0.0-6.0-5.57,5012,NA,NA,NA,NA,clear_screen,null,null,NA,NA,catch,sw,l,sh,180,200,227,260,214,174,spektor,null,null,null,null,null,null,null,null,null,null,null,NA,180,200,260,200,36000,52000,"[1,2]"
NA,canvas-keyboard-response,354,297843,0.0-6.0-0.58,5012,NA,NA,NA,NA,pre trial waiting period,null,null,NA,NA,critical,t,d,c,240,164,232.8713,160.6713,164,240,trueblood,0.05,w,240,164,164,240,232.8713,160.6713,39360,39360,37415.7294,tc,null,null,null,null,null,null,"[1,3]"
NA,canvas-keyboard-response,355,298003,0.0-6.0-1.58,5012,NA,NA,NA,NA,clear_screen,null,null,NA,NA,critical,t,d,c,240,164,232.8713,160.6713,164,240,trueblood,0.05,w,240,164,164,240,232.8713,160.6713,39360,39360,37415.7294,tc,null,null,null,null,null,null,"[1,3]"
NA,canvas-keyboard-response,356,299351,0.0-6.0-2.58,5012,NA,NA,NA,NA,rectangles,null,null,NA,NA,critical,t,d,c,240,164,232.8713,160.6713,164,240,trueblood,0.05,w,240,164,164,240,232.8713,160.6713,39360,39360,37415.7294,tc,null,null,null,null,null,null,"[1,3]"
NA,canvas-keyboard-response,357,299522,0.0-6.0-3.58,5012,NA,NA,NA,NA,clear_screen,null,null,NA,NA,critical,t,d,c,240,164,232.8713,160.6713,164,240,trueblood,0.05,w,240,164,164,240,232.8713,160.6713,39360,39360,37415.7294,tc,null,null,null,null,null,null,"[1,3]"
NA,canvas-keyboard-response,358,300205,0.0-6.0-4.58,5012,NA,NA,NA,NA,make choice,663,3,NA,NA,critical,t,d,c,240,164,232.8713,160.6713,164,240,trueblood,0.05,w,240,164,164,240,232.8713,160.6713,39360,39360,37415.7294,tc,null,null,null,null,null,null,"[1,3]"
NA,canvas-keyboard-response,359,300374,0.0-6.0-5.58,5012,NA,NA,NA,NA,clear_screen,null,null,NA,NA,critical,t,d,c,240,164,232.8713,160.6713,164,240,trueblood,0.05,w,240,164,164,240,232.8713,160.6713,39360,39360,37415.7294,tc,null,null,null,null,null,null,"[1,3]"
NA,canvas-keyboard-response,360,300593,0.0-6.0-0.59,5012,NA,NA,NA,NA,pre trial waiting period,null,null,NA,NA,catch,sh,sw,l,187,203,157,227,230,231,spektor,null,null,null,null,null,null,null,null,null,null,null,NA,180,200,260,200,36000,52000,"[2,3]"
NA,canvas-keyboard-response,361,300754,0.0-6.0-1.59,5012,NA,NA,NA,NA,clear_screen,null,null,NA,NA,catch,sh,sw,l,187,203,157,227,230,231,spektor,null,null,null,null,null,null,null,null,null,null,null,NA,180,200,260,200,36000,52000,"[2,3]"
NA,canvas-keyboard-response,362,302103,0.0-6.0-2.59,5012,NA,NA,NA,NA,rectangles,null,null,NA,NA,catch,sh,sw,l,187,203,157,227,230,231,spektor,null,null,null,null,null,null,null,null,null,null,null,NA,180,200,260,200,36000,52000,"[2,3]"
NA,canvas-keyboard-response,363,302276,0.0-6.0-3.59,5012,NA,NA,NA,NA,clear_screen,null,null,NA,NA,catch,sh,sw,l,187,203,157,227,230,231,spektor,null,null,null,null,null,null,null,null,null,null,null,NA,180,200,260,200,36000,52000,"[2,3]"
NA,canvas-keyboard-response,364,302933,0.0-6.0-4.59,5012,NA,NA,NA,NA,make choice,635,3,NA,NA,catch,sh,sw,l,187,203,157,227,230,231,spektor,null,null,null,null,null,null,null,null,null,null,null,NA,180,200,260,200,36000,52000,"[2,3]"
NA,canvas-keyboard-response,365,303103,0.0-6.0-5.59,5012,NA,NA,NA,NA,clear_screen,null,null,NA,NA,catch,sh,sw,l,187,203,157,227,230,231,spektor,null,null,null,null,null,null,null,null,null,null,null,NA,180,200,260,200,36000,52000,"[2,3]"
NA,canvas-keyboard-response,366,303320,0.0-6.0-0.60,5012,NA,NA,NA,NA,pre trial waiting period,null,null,NA,NA,critical,d,t,c,160.6713,232.8713,164,240,240,164,trueblood,0.05,h,164,240,240,164,160.6713,232.8713,39360,39360,37415.7294,dc,null,null,null,null,null,null,"[1,3]"
NA,canvas-keyboard-response,367,303479,0.0-6.0-1.60,5012,NA,NA,NA,NA,clear_screen,null,null,NA,NA,critical,d,t,c,160.6713,232.8713,164,240,240,164,trueblood,0.05,h,164,240,240,164,160.6713,232.8713,39360,39360,37415.7294,dc,null,null,null,null,null,null,"[1,3]"
NA,canvas-keyboard-response,368,304828,0.0-6.0-2.60,5012,NA,NA,NA,NA,rectangles,null,null,NA,NA,critical,d,t,c,160.6713,232.8713,164,240,240,164,trueblood,0.05,h,164,240,240,164,160.6713,232.8713,39360,39360,37415.7294,dc,null,null,null,null,null,null,"[1,3]"
NA,canvas-keyboard-response,369,305000,0.0-6.0-3.60,5012,NA,NA,NA,NA,clear_screen,null,null,NA,NA,critical,d,t,c,160.6713,232.8713,164,240,240,164,trueblood,0.05,h,164,240,240,164,160.6713,232.8713,39360,39360,37415.7294,dc,null,null,null,null,null,null,"[1,3]"
NA,canvas-keyboard-response,370,305765,0.0-6.0-4.60,5012,NA,NA,NA,NA,make choice,739,3,NA,NA,critical,d,t,c,160.6713,232.8713,164,240,240,164,trueblood,0.05,h,164,240,240,164,160.6713,232.8713,39360,39360,37415.7294,dc,null,null,null,null,null,null,"[1,3]"
NA,canvas-keyboard-response,371,305936,0.0-6.0-5.60,5012,NA,NA,NA,NA,clear_screen,null,null,NA,NA,critical,d,t,c,160.6713,232.8713,164,240,240,164,trueblood,0.05,h,164,240,240,164,160.6713,232.8713,39360,39360,37415.7294,dc,null,null,null,null,null,null,"[1,3]"
NA,canvas-keyboard-response,372,306156,0.0-6.0-0.61,5012,NA,NA,NA,NA,pre trial waiting period,null,null,NA,NA,catch,sw,sh,l,180,200,208,201,228,223,spektor,null,null,null,null,null,null,null,null,null,null,null,NA,180,200,260,200,36000,52000,"[1,3]"
NA,canvas-keyboard-response,373,306317,0.0-6.0-1.61,5012,NA,NA,NA,NA,clear_screen,null,null,NA,NA,catch,sw,sh,l,180,200,208,201,228,223,spektor,null,null,null,null,null,null,null,null,null,null,null,NA,180,200,260,200,36000,52000,"[1,3]"
NA,canvas-keyboard-response,374,307665,0.0-6.0-2.61,5012,NA,NA,NA,NA,rectangles,null,null,NA,NA,catch,sw,sh,l,180,200,208,201,228,223,spektor,null,null,null,null,null,null,null,null,null,null,null,NA,180,200,260,200,36000,52000,"[1,3]"
NA,canvas-keyboard-response,375,307837,0.0-6.0-3.61,5012,NA,NA,NA,NA,clear_screen,null,null,NA,NA,catch,sw,sh,l,180,200,208,201,228,223,spektor,null,null,null,null,null,null,null,null,null,null,null,NA,180,200,260,200,36000,52000,"[1,3]"
NA,canvas-keyboard-response,376,310909,0.0-6.0-4.61,5012,NA,NA,NA,NA,make choice,3051,3,NA,NA,catch,sw,sh,l,180,200,208,201,228,223,spektor,null,null,null,null,null,null,null,null,null,null,null,NA,180,200,260,200,36000,52000,"[1,3]"
NA,canvas-keyboard-response,377,311078,0.0-6.0-5.61,5012,NA,NA,NA,NA,clear_screen,null,null,NA,NA,catch,sw,sh,l,180,200,208,201,228,223,spektor,null,null,null,null,null,null,null,null,null,null,null,NA,180,200,260,200,36000,52000,"[1,3]"
NA,canvas-keyboard-response,378,311296,0.0-6.0-0.62,5012,NA,NA,NA,NA,pre trial waiting period,null,null,NA,NA,catch,sh,sw,l,223,218,193,183,197,279,trueblood,null,null,null,null,null,null,null,null,null,null,null,NA,180,200,260,200,36000,52000,"[2,3]"
NA,canvas-keyboard-response,379,311455,0.0-6.0-1.62,5012,NA,NA,NA,NA,clear_screen,null,null,NA,NA,catch,sh,sw,l,223,218,193,183,197,279,trueblood,null,null,null,null,null,null,null,null,null,null,null,NA,180,200,260,200,36000,52000,"[2,3]"
NA,canvas-keyboard-response,380,312798,0.0-6.0-2.62,5012,NA,NA,NA,NA,rectangles,null,null,NA,NA,catch,sh,sw,l,223,218,193,183,197,279,trueblood,null,null,null,null,null,null,null,null,null,null,null,NA,180,200,260,200,36000,52000,"[2,3]"
NA,canvas-keyboard-response,381,312970,0.0-6.0-3.62,5012,NA,NA,NA,NA,clear_screen,null,null,NA,NA,catch,sh,sw,l,223,218,193,183,197,279,trueblood,null,null,null,null,null,null,null,null,null,null,null,NA,180,200,260,200,36000,52000,"[2,3]"
NA,canvas-keyboard-response,382,313508,0.0-6.0-4.62,5012,NA,NA,NA,NA,make choice,515,3,NA,NA,catch,sh,sw,l,223,218,193,183,197,279,trueblood,null,null,null,null,null,null,null,null,null,null,null,NA,180,200,260,200,36000,52000,"[2,3]"
NA,canvas-keyboard-response,383,313677,0.0-6.0-5.62,5012,NA,NA,NA,NA,clear_screen,null,null,NA,NA,catch,sh,sw,l,223,218,193,183,197,279,trueblood,null,null,null,null,null,null,null,null,null,null,null,NA,180,200,260,200,36000,52000,"[2,3]"
NA,canvas-keyboard-response,384,313896,0.0-6.0-0.63,5012,NA,NA,NA,NA,pre trial waiting period,null,null,NA,NA,critical,t,c,d,164,240,240,164,164,240,trueblood,0,h,164,240,240,164,164,240,39360,39360,39360,tc,null,null,null,null,null,null,"[1,2]"
NA,canvas-keyboard-response,385,314056,0.0-6.0-1.63,5012,NA,NA,NA,NA,clear_screen,null,null,NA,NA,critical,t,c,d,164,240,240,164,164,240,trueblood,0,h,164,240,240,164,164,240,39360,39360,39360,tc,null,null,null,null,null,null,"[1,2]"
NA,canvas-keyboard-response,386,315406,0.0-6.0-2.63,5012,NA,NA,NA,NA,rectangles,null,null,NA,NA,critical,t,c,d,164,240,240,164,164,240,trueblood,0,h,164,240,240,164,164,240,39360,39360,39360,tc,null,null,null,null,null,null,"[1,2]"
NA,canvas-keyboard-response,387,315579,0.0-6.0-3.63,5012,NA,NA,NA,NA,clear_screen,null,null,NA,NA,critical,t,c,d,164,240,240,164,164,240,trueblood,0,h,164,240,240,164,164,240,39360,39360,39360,tc,null,null,null,null,null,null,"[1,2]"
NA,canvas-keyboard-response,388,316309,0.0-6.0-4.63,5012,NA,NA,NA,NA,make choice,709,2,NA,NA,critical,t,c,d,164,240,240,164,164,240,trueblood,0,h,164,240,240,164,164,240,39360,39360,39360,tc,null,null,null,null,null,null,"[1,2]"
NA,canvas-keyboard-response,389,316480,0.0-6.0-5.63,5012,NA,NA,NA,NA,clear_screen,null,null,NA,NA,critical,t,c,d,164,240,240,164,164,240,trueblood,0,h,164,240,240,164,164,240,39360,39360,39360,tc,null,null,null,null,null,null,"[1,2]"
NA,canvas-keyboard-response,390,316698,0.0-6.0-0.64,5012,NA,NA,NA,NA,pre trial waiting period,null,null,NA,NA,catch,sw,l,sh,180,200,280,194,221,143,spektor,null,null,null,null,null,null,null,null,null,null,null,NA,180,200,260,200,36000,52000,"[1,2]"
NA,canvas-keyboard-response,391,316862,0.0-6.0-1.64,5012,NA,NA,NA,NA,clear_screen,null,null,NA,NA,catch,sw,l,sh,180,200,280,194,221,143,spektor,null,null,null,null,null,null,null,null,null,null,null,NA,180,200,260,200,36000,52000,"[1,2]"
NA,canvas-keyboard-response,392,318208,0.0-6.0-2.64,5012,NA,NA,NA,NA,rectangles,null,null,NA,NA,catch,sw,l,sh,180,200,280,194,221,143,spektor,null,null,null,null,null,null,null,null,null,null,null,NA,180,200,260,200,36000,52000,"[1,2]"
NA,canvas-keyboard-response,393,318382,0.0-6.0-3.64,5012,NA,NA,NA,NA,clear_screen,null,null,NA,NA,catch,sw,l,sh,180,200,280,194,221,143,spektor,null,null,null,null,null,null,null,null,null,null,null,NA,180,200,260,200,36000,52000,"[1,2]"
NA,canvas-keyboard-response,394,319244,0.0-6.0-4.64,5012,NA,NA,NA,NA,make choice,843,2,NA,NA,catch,sw,l,sh,180,200,280,194,221,143,spektor,null,null,null,null,null,null,null,null,null,null,null,NA,180,200,260,200,36000,52000,"[1,2]"
NA,canvas-keyboard-response,395,319417,0.0-6.0-5.64,5012,NA,NA,NA,NA,clear_screen,null,null,NA,NA,catch,sw,l,sh,180,200,280,194,221,143,spektor,null,null,null,null,null,null,null,null,null,null,null,NA,180,200,260,200,36000,52000,"[1,2]"
NA,canvas-keyboard-response,396,319636,0.0-6.0-0.65,5012,NA,NA,NA,NA,pre trial waiting period,null,null,NA,NA,critical,t,d,c,164,240,160.6713,232.8713,240,164,spektor,0.05,h,164,240,240,164,160.6713,232.8713,39360,39360,37415.7294,tc,null,null,null,null,null,null,"[1,3]"
NA,canvas-keyboard-response,397,319798,0.0-6.0-1.65,5012,NA,NA,NA,NA,clear_screen,null,null,NA,NA,critical,t,d,c,164,240,160.6713,232.8713,240,164,spektor,0.05,h,164,240,240,164,160.6713,232.8713,39360,39360,37415.7294,tc,null,null,null,null,null,null,"[1,3]"
