success,trial_type,trial_index,time_elapsed,internal_node_id,sub_n,timeout,failed_images,failed_audio,failed_video,screen_id,rt,response,stimulus,view_history,trial,r1,r2,r3,w1,h1,w2,h2,w3,h3,display,tdd,tdo,tw,th,cw,ch,dw,dh,ta,ca,da,probe,csls,csss,clls,clss,sa,la,probe_rects
TRUE,fullscreen,0,3277,0.0-0.0,5018,NA,NA,NA,NA,NA,NA,NA,NA,NA,NA,NA,NA,NA,NA,NA,NA,NA,NA,NA,NA,NA,NA,NA,NA,NA,NA,NA,NA,NA,NA,NA,NA,NA,NA,NA,NA,NA,NA,NA
TRUE,preload,1,3299,0.0-1.0,5018,FALSE,NA,NA,NA,img preload,NA,NA,NA,NA,NA,NA,NA,NA,NA,NA,NA,NA,NA,NA,NA,NA,NA,NA,NA,NA,NA,NA,NA,NA,NA,NA,NA,NA,NA,NA,NA,NA,NA,NA
NA,survey-html-form,2,7143,0.0-2.0,5018,NA,NA,NA,NA,enter-sub-number,3824,"{""response"":""10""}",NA,NA,NA,NA,NA,NA,NA,NA,NA,NA,NA,NA,NA,NA,NA,NA,NA,NA,NA,NA,NA,NA,NA,NA,NA,NA,NA,NA,NA,NA,NA,NA
NA,image-button-response,3,18337,0.0-3.0,5018,NA,NA,NA,NA,NA,11084,0,consent.png,NA,NA,NA,NA,NA,NA,NA,NA,NA,NA,NA,NA,NA,NA,NA,NA,NA,NA,NA,NA,NA,NA,NA,NA,NA,NA,NA,NA,NA,NA,NA
NA,html-button-response,4,21752,0.0-4.0,5018,NA,NA,NA,NA,intro mssg,3410,0,"<div style= ""font-size:25px;"" <p> <strong> Welcome! </strong><br> <p style=""color:#8B0000; font-size:25px;""><strong> Please do NOT exit full screen until you are done with the experiment. </strong> </p><p style=""font-size:25px;color:#8B0000;""> <strong> Your data will be lost <br> if you try to go back or refresh the page after the experiment starts. Feel free to click ""previous"" during the instructions, however.</strong> </p><br><p> <strong> Thanks in advance for your contribution to our research! </strong></p>",NA,NA,NA,NA,NA,NA,NA,NA,NA,NA,NA,NA,NA,NA,NA,NA,NA,NA,NA,NA,NA,NA,NA,NA,NA,NA,NA,NA,NA,NA,NA
NA,instructions,5,43536,0.0-5.0,5018,NA,NA,NA,NA,instructions,21779,NA,NA,NA,NA,NA,NA,NA,NA,NA,NA,NA,NA,NA,NA,NA,NA,NA,NA,NA,NA,NA,NA,NA,NA,NA,NA,NA,NA,NA,NA,NA,NA,NA
NA,canvas-keyboard-response,6,43740,0.0-6.0-0.0,5018,NA,NA,NA,NA,pre trial waiting period,null,null,NA,NA,critical,t,d,c,240,164,227.1683,158.0083,164,240,trueblood,0.09,w,240,164,164,240,227.1683,158.0083,39360,39360,35894.4834,td,null,null,null,null,null,null,"[1,2]"
NA,canvas-keyboard-response,7,43903,0.0-6.0-1.0,5018,NA,NA,NA,NA,clear_screen,null,null,NA,NA,critical,t,d,c,240,164,227.1683,158.0083,164,240,trueblood,0.09,w,240,164,164,240,227.1683,158.0083,39360,39360,35894.4834,td,null,null,null,null,null,null,"[1,2]"
NA,canvas-keyboard-response,8,45251,0.0-6.0-2.0,5018,NA,NA,NA,NA,rectangles,null,null,NA,NA,critical,t,d,c,240,164,227.1683,158.0083,164,240,trueblood,0.09,w,240,164,164,240,227.1683,158.0083,39360,39360,35894.4834,td,null,null,null,null,null,null,"[1,2]"
NA,canvas-keyboard-response,9,45412,0.0-6.0-3.0,5018,NA,NA,NA,NA,clear_screen,null,null,NA,NA,critical,t,d,c,240,164,227.1683,158.0083,164,240,trueblood,0.09,w,240,164,164,240,227.1683,158.0083,39360,39360,35894.4834,td,null,null,null,null,null,null,"[1,2]"
NA,canvas-keyboard-response,10,48149,0.0-6.0-4.0,5018,NA,NA,NA,NA,make choice,2719,2,NA,NA,critical,t,d,c,240,164,227.1683,158.0083,164,240,trueblood,0.09,w,240,164,164,240,227.1683,158.0083,39360,39360,35894.4834,td,null,null,null,null,null,null,"[1,2]"
NA,canvas-keyboard-response,11,48312,0.0-6.0-5.0,5018,NA,NA,NA,NA,clear_screen,null,null,NA,NA,critical,t,d,c,240,164,227.1683,158.0083,164,240,trueblood,0.09,w,240,164,164,240,227.1683,158.0083,39360,39360,35894.4834,td,null,null,null,null,null,null,"[1,2]"
NA,canvas-keyboard-response,12,48515,0.0-6.0-0.1,5018,NA,NA,NA,NA,pre trial waiting period,null,null,NA,NA,critical,c,t,d,240,164,164,240,158.0083,227.1683,spektor,0.09,h,164,240,240,164,158.0083,227.1683,39360,39360,35894.4834,dc,null,null,null,null,null,null,"[3,1]"
NA,canvas-keyboard-response,13,48675,0.0-6.0-1.1,5018,NA,NA,NA,NA,clear_screen,null,null,NA,NA,critical,c,t,d,240,164,164,240,158.0083,227.1683,spektor,0.09,h,164,240,240,164,158.0083,227.1683,39360,39360,35894.4834,dc,null,null,null,null,null,null,"[3,1]"
NA,canvas-keyboard-response,14,50013,0.0-6.0-2.1,5018,NA,NA,NA,NA,rectangles,null,null,NA,NA,critical,c,t,d,240,164,164,240,158.0083,227.1683,spektor,0.09,h,164,240,240,164,158.0083,227.1683,39360,39360,35894.4834,dc,null,null,null,null,null,null,"[3,1]"
NA,canvas-keyboard-response,15,50175,0.0-6.0-3.1,5018,NA,NA,NA,NA,clear_screen,null,null,NA,NA,critical,c,t,d,240,164,164,240,158.0083,227.1683,spektor,0.09,h,164,240,240,164,158.0083,227.1683,39360,39360,35894.4834,dc,null,null,null,null,null,null,"[3,1]"
NA,canvas-keyboard-response,16,52613,0.0-6.0-4.1,5018,NA,NA,NA,NA,make choice,2427,3,NA,NA,critical,c,t,d,240,164,164,240,158.0083,227.1683,spektor,0.09,h,164,240,240,164,158.0083,227.1683,39360,39360,35894.4834,dc,null,null,null,null,null,null,"[3,1]"
NA,canvas-keyboard-response,17,52777,0.0-6.0-5.1,5018,NA,NA,NA,NA,clear_screen,null,null,NA,NA,critical,c,t,d,240,164,164,240,158.0083,227.1683,spektor,0.09,h,164,240,240,164,158.0083,227.1683,39360,39360,35894.4834,dc,null,null,null,null,null,null,"[3,1]"
NA,canvas-keyboard-response,18,52981,0.0-6.0-0.2,5018,NA,NA,NA,NA,pre trial waiting period,null,null,NA,NA,critical,d,c,t,220.0396,154.6796,164,240,240,164,trueblood,0.14,w,240,164,164,240,220.0396,154.6796,39360,39360,34035.6388,dc,null,null,null,null,null,null,"[1,2]"
NA,canvas-keyboard-response,19,53141,0.0-6.0-1.2,5018,NA,NA,NA,NA,clear_screen,null,null,NA,NA,critical,d,c,t,220.0396,154.6796,164,240,240,164,trueblood,0.14,w,240,164,164,240,220.0396,154.6796,39360,39360,34035.6388,dc,null,null,null,null,null,null,"[1,2]"
NA,canvas-keyboard-response,20,54478,0.0-6.0-2.2,5018,NA,NA,NA,NA,rectangles,null,null,NA,NA,critical,d,c,t,220.0396,154.6796,164,240,240,164,trueblood,0.14,w,240,164,164,240,220.0396,154.6796,39360,39360,34035.6388,dc,null,null,null,null,null,null,"[1,2]"
NA,canvas-keyboard-response,21,54639,0.0-6.0-3.2,5018,NA,NA,NA,NA,clear_screen,null,null,NA,NA,critical,d,c,t,220.0396,154.6796,164,240,240,164,trueblood,0.14,w,240,164,164,240,220.0396,154.6796,39360,39360,34035.6388,dc,null,null,null,null,null,null,"[1,2]"
NA,canvas-keyboard-response,22,55541,0.0-6.0-4.2,5018,NA,NA,NA,NA,make choice,892,2,NA,NA,critical,d,c,t,220.0396,154.6796,164,240,240,164,trueblood,0.14,w,240,164,164,240,220.0396,154.6796,39360,39360,34035.6388,dc,null,null,null,null,null,null,"[1,2]"
NA,canvas-keyboard-response,23,55702,0.0-6.0-5.2,5018,NA,NA,NA,NA,clear_screen,null,null,NA,NA,critical,d,c,t,220.0396,154.6796,164,240,240,164,trueblood,0.14,w,240,164,164,240,220.0396,154.6796,39360,39360,34035.6388,dc,null,null,null,null,null,null,"[1,2]"
NA,canvas-keyboard-response,24,55906,0.0-6.0-0.3,5018,NA,NA,NA,NA,pre trial waiting period,null,null,NA,NA,critical,c,t,d,240,164,164,240,160.6713,232.8713,spektor,0.05,h,164,240,240,164,160.6713,232.8713,39360,39360,37415.7294,dc,null,null,null,null,null,null,"[3,1]"
NA,canvas-keyboard-response,25,56065,0.0-6.0-1.3,5018,NA,NA,NA,NA,clear_screen,null,null,NA,NA,critical,c,t,d,240,164,164,240,160.6713,232.8713,spektor,0.05,h,164,240,240,164,160.6713,232.8713,39360,39360,37415.7294,dc,null,null,null,null,null,null,"[3,1]"
NA,canvas-keyboard-response,26,57405,0.0-6.0-2.3,5018,NA,NA,NA,NA,rectangles,null,null,NA,NA,critical,c,t,d,240,164,164,240,160.6713,232.8713,spektor,0.05,h,164,240,240,164,160.6713,232.8713,39360,39360,37415.7294,dc,null,null,null,null,null,null,"[3,1]"
NA,canvas-keyboard-response,27,57566,0.0-6.0-3.3,5018,NA,NA,NA,NA,clear_screen,null,null,NA,NA,critical,c,t,d,240,164,164,240,160.6713,232.8713,spektor,0.05,h,164,240,240,164,160.6713,232.8713,39360,39360,37415.7294,dc,null,null,null,null,null,null,"[3,1]"
NA,canvas-keyboard-response,28,58262,0.0-6.0-4.3,5018,NA,NA,NA,NA,make choice,684,1,NA,NA,critical,c,t,d,240,164,164,240,160.6713,232.8713,spektor,0.05,h,164,240,240,164,160.6713,232.8713,39360,39360,37415.7294,dc,null,null,null,null,null,null,"[3,1]"
NA,canvas-keyboard-response,29,58424,0.0-6.0-5.3,5018,NA,NA,NA,NA,clear_screen,null,null,NA,NA,critical,c,t,d,240,164,164,240,160.6713,232.8713,spektor,0.05,h,164,240,240,164,160.6713,232.8713,39360,39360,37415.7294,dc,null,null,null,null,null,null,"[3,1]"
NA,canvas-keyboard-response,30,58627,0.0-6.0-0.4,5018,NA,NA,NA,NA,pre trial waiting period,null,null,NA,NA,critical,c,d,t,240,164,154.6796,220.0396,164,240,spektor,0.14,h,164,240,240,164,154.6796,220.0396,39360,39360,34035.6388,tc,null,null,null,null,null,null,"[3,1]"
NA,canvas-keyboard-response,31,58784,0.0-6.0-1.4,5018,NA,NA,NA,NA,clear_screen,null,null,NA,NA,critical,c,d,t,240,164,154.6796,220.0396,164,240,spektor,0.14,h,164,240,240,164,154.6796,220.0396,39360,39360,34035.6388,tc,null,null,null,null,null,null,"[3,1]"
NA,canvas-keyboard-response,32,60121,0.0-6.0-2.4,5018,NA,NA,NA,NA,rectangles,null,null,NA,NA,critical,c,d,t,240,164,154.6796,220.0396,164,240,spektor,0.14,h,164,240,240,164,154.6796,220.0396,39360,39360,34035.6388,tc,null,null,null,null,null,null,"[3,1]"
NA,canvas-keyboard-response,33,60283,0.0-6.0-3.4,5018,NA,NA,NA,NA,clear_screen,null,null,NA,NA,critical,c,d,t,240,164,154.6796,220.0396,164,240,spektor,0.14,h,164,240,240,164,154.6796,220.0396,39360,39360,34035.6388,tc,null,null,null,null,null,null,"[3,1]"
NA,canvas-keyboard-response,34,61157,0.0-6.0-4.4,5018,NA,NA,NA,NA,make choice,863,3,NA,NA,critical,c,d,t,240,164,154.6796,220.0396,164,240,spektor,0.14,h,164,240,240,164,154.6796,220.0396,39360,39360,34035.6388,tc,null,null,null,null,null,null,"[3,1]"
NA,canvas-keyboard-response,35,61320,0.0-6.0-5.4,5018,NA,NA,NA,NA,clear_screen,null,null,NA,NA,critical,c,d,t,240,164,154.6796,220.0396,164,240,spektor,0.14,h,164,240,240,164,154.6796,220.0396,39360,39360,34035.6388,tc,null,null,null,null,null,null,"[3,1]"
NA,canvas-keyboard-response,36,61524,0.0-6.0-0.5,5018,NA,NA,NA,NA,pre trial waiting period,null,null,NA,NA,critical,d,t,c,240,164,240,164,164,240,trueblood,0,w,240,164,164,240,240,164,39360,39360,39360,td,null,null,null,null,null,null,"[2,1]"
NA,canvas-keyboard-response,37,61683,0.0-6.0-1.5,5018,NA,NA,NA,NA,clear_screen,null,null,NA,NA,critical,d,t,c,240,164,240,164,164,240,trueblood,0,w,240,164,164,240,240,164,39360,39360,39360,td,null,null,null,null,null,null,"[2,1]"
NA,canvas-keyboard-response,38,63020,0.0-6.0-2.5,5018,NA,NA,NA,NA,rectangles,null,null,NA,NA,critical,d,t,c,240,164,240,164,164,240,trueblood,0,w,240,164,164,240,240,164,39360,39360,39360,td,null,null,null,null,null,null,"[2,1]"
NA,canvas-keyboard-response,39,63182,0.0-6.0-3.5,5018,NA,NA,NA,NA,clear_screen,null,null,NA,NA,critical,d,t,c,240,164,240,164,164,240,trueblood,0,w,240,164,164,240,240,164,39360,39360,39360,td,null,null,null,null,null,null,"[2,1]"
NA,canvas-keyboard-response,40,63886,0.0-6.0-4.5,5018,NA,NA,NA,NA,make choice,692,1,NA,NA,critical,d,t,c,240,164,240,164,164,240,trueblood,0,w,240,164,164,240,240,164,39360,39360,39360,td,null,null,null,null,null,null,"[2,1]"
NA,canvas-keyboard-response,41,64055,0.0-6.0-5.5,5018,NA,NA,NA,NA,clear_screen,null,null,NA,NA,critical,d,t,c,240,164,240,164,164,240,trueblood,0,w,240,164,164,240,240,164,39360,39360,39360,td,null,null,null,null,null,null,"[2,1]"
NA,canvas-keyboard-response,42,64266,0.0-6.0-0.6,5018,NA,NA,NA,NA,pre trial waiting period,null,null,NA,NA,critical,d,c,t,232.8713,160.6713,164,240,240,164,trueblood,0.05,w,240,164,164,240,232.8713,160.6713,39360,39360,37415.7294,tc,null,null,null,null,null,null,"[3,2]"
NA,canvas-keyboard-response,43,64427,0.0-6.0-1.6,5018,NA,NA,NA,NA,clear_screen,null,null,NA,NA,critical,d,c,t,232.8713,160.6713,164,240,240,164,trueblood,0.05,w,240,164,164,240,232.8713,160.6713,39360,39360,37415.7294,tc,null,null,null,null,null,null,"[3,2]"
NA,canvas-keyboard-response,44,65766,0.0-6.0-2.6,5018,NA,NA,NA,NA,rectangles,null,null,NA,NA,critical,d,c,t,232.8713,160.6713,164,240,240,164,trueblood,0.05,w,240,164,164,240,232.8713,160.6713,39360,39360,37415.7294,tc,null,null,null,null,null,null,"[3,2]"
NA,canvas-keyboard-response,45,65929,0.0-6.0-3.6,5018,NA,NA,NA,NA,clear_screen,null,null,NA,NA,critical,d,c,t,232.8713,160.6713,164,240,240,164,trueblood,0.05,w,240,164,164,240,232.8713,160.6713,39360,39360,37415.7294,tc,null,null,null,null,null,null,"[3,2]"
NA,canvas-keyboard-response,46,67333,0.0-6.0-4.6,5018,NA,NA,NA,NA,make choice,1392,2,NA,NA,critical,d,c,t,232.8713,160.6713,164,240,240,164,trueblood,0.05,w,240,164,164,240,232.8713,160.6713,39360,39360,37415.7294,tc,null,null,null,null,null,null,"[3,2]"
NA,canvas-keyboard-response,47,67497,0.0-6.0-5.6,5018,NA,NA,NA,NA,clear_screen,null,null,NA,NA,critical,d,c,t,232.8713,160.6713,164,240,240,164,trueblood,0.05,w,240,164,164,240,232.8713,160.6713,39360,39360,37415.7294,tc,null,null,null,null,null,null,"[3,2]"
NA,canvas-keyboard-response,48,67703,0.0-6.0-0.7,5018,NA,NA,NA,NA,pre trial waiting period,null,null,NA,NA,catch,l,sh,sw,238,223,164,203,207,220,spektor,null,null,null,null,null,null,null,null,null,null,null,NA,180,200,260,200,36000,52000,"[1,3]"
NA,canvas-keyboard-response,49,67862,0.0-6.0-1.7,5018,NA,NA,NA,NA,clear_screen,null,null,NA,NA,catch,l,sh,sw,238,223,164,203,207,220,spektor,null,null,null,null,null,null,null,null,null,null,null,NA,180,200,260,200,36000,52000,"[1,3]"
NA,canvas-keyboard-response,50,69204,0.0-6.0-2.7,5018,NA,NA,NA,NA,rectangles,null,null,NA,NA,catch,l,sh,sw,238,223,164,203,207,220,spektor,null,null,null,null,null,null,null,null,null,null,null,NA,180,200,260,200,36000,52000,"[1,3]"
NA,canvas-keyboard-response,51,69367,0.0-6.0-3.7,5018,NA,NA,NA,NA,clear_screen,null,null,NA,NA,catch,l,sh,sw,238,223,164,203,207,220,spektor,null,null,null,null,null,null,null,null,null,null,null,NA,180,200,260,200,36000,52000,"[1,3]"
NA,canvas-keyboard-response,52,70637,0.0-6.0-4.7,5018,NA,NA,NA,NA,make choice,1258,1,NA,NA,catch,l,sh,sw,238,223,164,203,207,220,spektor,null,null,null,null,null,null,null,null,null,null,null,NA,180,200,260,200,36000,52000,"[1,3]"
NA,canvas-keyboard-response,53,70800,0.0-6.0-5.7,5018,NA,NA,NA,NA,clear_screen,null,null,NA,NA,catch,l,sh,sw,238,223,164,203,207,220,spektor,null,null,null,null,null,null,null,null,null,null,null,NA,180,200,260,200,36000,52000,"[1,3]"
NA,canvas-keyboard-response,54,71006,0.0-6.0-0.8,5018,NA,NA,NA,NA,pre trial waiting period,null,null,NA,NA,critical,t,d,c,240,164,232.8713,160.6713,164,240,trueblood,0.05,w,240,164,164,240,232.8713,160.6713,39360,39360,37415.7294,td,null,null,null,null,null,null,"[1,2]"
NA,canvas-keyboard-response,55,71164,0.0-6.0-1.8,5018,NA,NA,NA,NA,clear_screen,null,null,NA,NA,critical,t,d,c,240,164,232.8713,160.6713,164,240,trueblood,0.05,w,240,164,164,240,232.8713,160.6713,39360,39360,37415.7294,td,null,null,null,null,null,null,"[1,2]"
NA,canvas-keyboard-response,56,72503,0.0-6.0-2.8,5018,NA,NA,NA,NA,rectangles,null,null,NA,NA,critical,t,d,c,240,164,232.8713,160.6713,164,240,trueblood,0.05,w,240,164,164,240,232.8713,160.6713,39360,39360,37415.7294,td,null,null,null,null,null,null,"[1,2]"
NA,canvas-keyboard-response,57,72666,0.0-6.0-3.8,5018,NA,NA,NA,NA,clear_screen,null,null,NA,NA,critical,t,d,c,240,164,232.8713,160.6713,164,240,trueblood,0.05,w,240,164,164,240,232.8713,160.6713,39360,39360,37415.7294,td,null,null,null,null,null,null,"[1,2]"
NA,canvas-keyboard-response,58,74021,0.0-6.0-4.8,5018,NA,NA,NA,NA,make choice,1342,2,NA,NA,critical,t,d,c,240,164,232.8713,160.6713,164,240,trueblood,0.05,w,240,164,164,240,232.8713,160.6713,39360,39360,37415.7294,td,null,null,null,null,null,null,"[1,2]"
NA,canvas-keyboard-response,59,74186,0.0-6.0-5.8,5018,NA,NA,NA,NA,clear_screen,null,null,NA,NA,critical,t,d,c,240,164,232.8713,160.6713,164,240,trueblood,0.05,w,240,164,164,240,232.8713,160.6713,39360,39360,37415.7294,td,null,null,null,null,null,null,"[1,2]"
NA,canvas-keyboard-response,60,74392,0.0-6.0-0.9,5018,NA,NA,NA,NA,pre trial waiting period,null,null,NA,NA,catch,l,sw,sh,163,280,181,199,237,195,trueblood,null,null,null,null,null,null,null,null,null,null,null,NA,180,200,260,200,36000,52000,"[1,2]"
NA,canvas-keyboard-response,61,74553,0.0-6.0-1.9,5018,NA,NA,NA,NA,clear_screen,null,null,NA,NA,catch,l,sw,sh,163,280,181,199,237,195,trueblood,null,null,null,null,null,null,null,null,null,null,null,NA,180,200,260,200,36000,52000,"[1,2]"
NA,canvas-keyboard-response,62,75894,0.0-6.0-2.9,5018,NA,NA,NA,NA,rectangles,null,null,NA,NA,catch,l,sw,sh,163,280,181,199,237,195,trueblood,null,null,null,null,null,null,null,null,null,null,null,NA,180,200,260,200,36000,52000,"[1,2]"
NA,canvas-keyboard-response,63,76057,0.0-6.0-3.9,5018,NA,NA,NA,NA,clear_screen,null,null,NA,NA,catch,l,sw,sh,163,280,181,199,237,195,trueblood,null,null,null,null,null,null,null,null,null,null,null,NA,180,200,260,200,36000,52000,"[1,2]"
NA,canvas-keyboard-response,64,76829,0.0-6.0-4.9,5018,NA,NA,NA,NA,make choice,760,1,NA,NA,catch,l,sw,sh,163,280,181,199,237,195,trueblood,null,null,null,null,null,null,null,null,null,null,null,NA,180,200,260,200,36000,52000,"[1,2]"
NA,canvas-keyboard-response,65,76991,0.0-6.0-5.9,5018,NA,NA,NA,NA,clear_screen,null,null,NA,NA,catch,l,sw,sh,163,280,181,199,237,195,trueblood,null,null,null,null,null,null,null,null,null,null,null,NA,180,200,260,200,36000,52000,"[1,2]"
NA,canvas-keyboard-response,66,77198,0.0-6.0-0.10,5018,NA,NA,NA,NA,pre trial waiting period,null,null,NA,NA,critical,d,t,c,162.6685,237.1485,164,240,240,164,trueblood,0.02,h,164,240,240,164,162.6685,237.1485,39360,39360,38576.5967,td,null,null,null,null,null,null,"[2,1]"
NA,canvas-keyboard-response,67,77359,0.0-6.0-1.10,5018,NA,NA,NA,NA,clear_screen,null,null,NA,NA,critical,d,t,c,162.6685,237.1485,164,240,240,164,trueblood,0.02,h,164,240,240,164,162.6685,237.1485,39360,39360,38576.5967,td,null,null,null,null,null,null,"[2,1]"
NA,canvas-keyboard-response,68,78701,0.0-6.0-2.10,5018,NA,NA,NA,NA,rectangles,null,null,NA,NA,critical,d,t,c,162.6685,237.1485,164,240,240,164,trueblood,0.02,h,164,240,240,164,162.6685,237.1485,39360,39360,38576.5967,td,null,null,null,null,null,null,"[2,1]"
NA,canvas-keyboard-response,69,78864,0.0-6.0-3.10,5018,NA,NA,NA,NA,clear_screen,null,null,NA,NA,critical,d,t,c,162.6685,237.1485,164,240,240,164,trueblood,0.02,h,164,240,240,164,162.6685,237.1485,39360,39360,38576.5967,td,null,null,null,null,null,null,"[2,1]"
NA,canvas-keyboard-response,70,79677,0.0-6.0-4.10,5018,NA,NA,NA,NA,make choice,798,2,NA,NA,critical,d,t,c,162.6685,237.1485,164,240,240,164,trueblood,0.02,h,164,240,240,164,162.6685,237.1485,39360,39360,38576.5967,td,null,null,null,null,null,null,"[2,1]"
NA,canvas-keyboard-response,71,79840,0.0-6.0-5.10,5018,NA,NA,NA,NA,clear_screen,null,null,NA,NA,critical,d,t,c,162.6685,237.1485,164,240,240,164,trueblood,0.02,h,164,240,240,164,162.6685,237.1485,39360,39360,38576.5967,td,null,null,null,null,null,null,"[2,1]"
NA,canvas-keyboard-response,72,80049,0.0-6.0-0.11,5018,NA,NA,NA,NA,pre trial waiting period,null,null,NA,NA,critical,t,d,c,240,164,232.8713,160.6713,164,240,spektor,0.05,w,240,164,164,240,232.8713,160.6713,39360,39360,37415.7294,dc,null,null,null,null,null,null,"[2,3]"
NA,canvas-keyboard-response,73,80206,0.0-6.0-1.11,5018,NA,NA,NA,NA,clear_screen,null,null,NA,NA,critical,t,d,c,240,164,232.8713,160.6713,164,240,spektor,0.05,w,240,164,164,240,232.8713,160.6713,39360,39360,37415.7294,dc,null,null,null,null,null,null,"[2,3]"
NA,canvas-keyboard-response,74,81546,0.0-6.0-2.11,5018,NA,NA,NA,NA,rectangles,null,null,NA,NA,critical,t,d,c,240,164,232.8713,160.6713,164,240,spektor,0.05,w,240,164,164,240,232.8713,160.6713,39360,39360,37415.7294,dc,null,null,null,null,null,null,"[2,3]"
NA,canvas-keyboard-response,75,81709,0.0-6.0-3.11,5018,NA,NA,NA,NA,clear_screen,null,null,NA,NA,critical,t,d,c,240,164,232.8713,160.6713,164,240,spektor,0.05,w,240,164,164,240,232.8713,160.6713,39360,39360,37415.7294,dc,null,null,null,null,null,null,"[2,3]"
NA,canvas-keyboard-response,76,82381,0.0-6.0-4.11,5018,NA,NA,NA,NA,make choice,657,3,NA,NA,critical,t,d,c,240,164,232.8713,160.6713,164,240,spektor,0.05,w,240,164,164,240,232.8713,160.6713,39360,39360,37415.7294,dc,null,null,null,null,null,null,"[2,3]"
NA,canvas-keyboard-response,77,82545,0.0-6.0-5.11,5018,NA,NA,NA,NA,clear_screen,null,null,NA,NA,critical,t,d,c,240,164,232.8713,160.6713,164,240,spektor,0.05,w,240,164,164,240,232.8713,160.6713,39360,39360,37415.7294,dc,null,null,null,null,null,null,"[2,3]"
NA,canvas-keyboard-response,78,82753,0.0-6.0-0.12,5018,NA,NA,NA,NA,pre trial waiting period,null,null,NA,NA,critical,c,t,d,240,164,164,240,160.6713,232.8713,trueblood,0.05,h,164,240,240,164,160.6713,232.8713,39360,39360,37415.7294,td,null,null,null,null,null,null,"[2,3]"
NA,canvas-keyboard-response,79,82912,0.0-6.0-1.12,5018,NA,NA,NA,NA,clear_screen,null,null,NA,NA,critical,c,t,d,240,164,164,240,160.6713,232.8713,trueblood,0.05,h,164,240,240,164,160.6713,232.8713,39360,39360,37415.7294,td,null,null,null,null,null,null,"[2,3]"
NA,canvas-keyboard-response,80,84251,0.0-6.0-2.12,5018,NA,NA,NA,NA,rectangles,null,null,NA,NA,critical,c,t,d,240,164,164,240,160.6713,232.8713,trueblood,0.05,h,164,240,240,164,160.6713,232.8713,39360,39360,37415.7294,td,null,null,null,null,null,null,"[2,3]"
NA,canvas-keyboard-response,81,84413,0.0-6.0-3.12,5018,NA,NA,NA,NA,clear_screen,null,null,NA,NA,critical,c,t,d,240,164,164,240,160.6713,232.8713,trueblood,0.05,h,164,240,240,164,160.6713,232.8713,39360,39360,37415.7294,td,null,null,null,null,null,null,"[2,3]"
NA,canvas-keyboard-response,82,85334,0.0-6.0-4.12,5018,NA,NA,NA,NA,make choice,908,2,NA,NA,critical,c,t,d,240,164,164,240,160.6713,232.8713,trueblood,0.05,h,164,240,240,164,160.6713,232.8713,39360,39360,37415.7294,td,null,null,null,null,null,null,"[2,3]"
NA,canvas-keyboard-response,83,85497,0.0-6.0-5.12,5018,NA,NA,NA,NA,clear_screen,null,null,NA,NA,critical,c,t,d,240,164,164,240,160.6713,232.8713,trueblood,0.05,h,164,240,240,164,160.6713,232.8713,39360,39360,37415.7294,td,null,null,null,null,null,null,"[2,3]"
NA,canvas-keyboard-response,84,85704,0.0-6.0-0.13,5018,NA,NA,NA,NA,pre trial waiting period,null,null,NA,NA,catch,l,sh,sw,231,166,191,203,200,199,trueblood,null,null,null,null,null,null,null,null,null,null,null,NA,180,200,260,200,36000,52000,"[1,2]"
NA,canvas-keyboard-response,85,85863,0.0-6.0-1.13,5018,NA,NA,NA,NA,clear_screen,null,null,NA,NA,catch,l,sh,sw,231,166,191,203,200,199,trueblood,null,null,null,null,null,null,null,null,null,null,null,NA,180,200,260,200,36000,52000,"[1,2]"
NA,canvas-keyboard-response,86,87203,0.0-6.0-2.13,5018,NA,NA,NA,NA,rectangles,null,null,NA,NA,catch,l,sh,sw,231,166,191,203,200,199,trueblood,null,null,null,null,null,null,null,null,null,null,null,NA,180,200,260,200,36000,52000,"[1,2]"
NA,canvas-keyboard-response,87,87366,0.0-6.0-3.13,5018,NA,NA,NA,NA,clear_screen,null,null,NA,NA,catch,l,sh,sw,231,166,191,203,200,199,trueblood,null,null,null,null,null,null,null,null,null,null,null,NA,180,200,260,200,36000,52000,"[1,2]"
NA,canvas-keyboard-response,88,88485,0.0-6.0-4.13,5018,NA,NA,NA,NA,make choice,1106,2,NA,NA,catch,l,sh,sw,231,166,191,203,200,199,trueblood,null,null,null,null,null,null,null,null,null,null,null,NA,180,200,260,200,36000,52000,"[1,2]"
NA,canvas-keyboard-response,89,88648,0.0-6.0-5.13,5018,NA,NA,NA,NA,clear_screen,null,null,NA,NA,catch,l,sh,sw,231,166,191,203,200,199,trueblood,null,null,null,null,null,null,null,null,null,null,null,NA,180,200,260,200,36000,52000,"[1,2]"
NA,canvas-keyboard-response,90,88857,0.0-6.0-0.14,5018,NA,NA,NA,NA,pre trial waiting period,null,null,NA,NA,catch,l,sw,sh,244,192,145,185,188,141,spektor,null,null,null,null,null,null,null,null,null,null,null,NA,180,200,260,200,36000,52000,"[1,2]"
NA,canvas-keyboard-response,91,89016,0.0-6.0-1.14,5018,NA,NA,NA,NA,clear_screen,null,null,NA,NA,catch,l,sw,sh,244,192,145,185,188,141,spektor,null,null,null,null,null,null,null,null,null,null,null,NA,180,200,260,200,36000,52000,"[1,2]"
NA,canvas-keyboard-response,92,90357,0.0-6.0-2.14,5018,NA,NA,NA,NA,rectangles,null,null,NA,NA,catch,l,sw,sh,244,192,145,185,188,141,spektor,null,null,null,null,null,null,null,null,null,null,null,NA,180,200,260,200,36000,52000,"[1,2]"
NA,canvas-keyboard-response,93,90524,0.0-6.0-3.14,5018,NA,NA,NA,NA,clear_screen,null,null,NA,NA,catch,l,sw,sh,244,192,145,185,188,141,spektor,null,null,null,null,null,null,null,null,null,null,null,NA,180,200,260,200,36000,52000,"[1,2]"
NA,canvas-keyboard-response,94,91301,0.0-6.0-4.14,5018,NA,NA,NA,NA,make choice,764,1,NA,NA,catch,l,sw,sh,244,192,145,185,188,141,spektor,null,null,null,null,null,null,null,null,null,null,null,NA,180,200,260,200,36000,52000,"[1,2]"
NA,canvas-keyboard-response,95,91464,0.0-6.0-5.14,5018,NA,NA,NA,NA,clear_screen,null,null,NA,NA,catch,l,sw,sh,244,192,145,185,188,141,spektor,null,null,null,null,null,null,null,null,null,null,null,NA,180,200,260,200,36000,52000,"[1,2]"
NA,canvas-keyboard-response,96,91673,0.0-6.0-0.15,5018,NA,NA,NA,NA,pre trial waiting period,null,null,NA,NA,catch,sh,sw,l,231,207,149,236,172,266,spektor,null,null,null,null,null,null,null,null,null,null,null,NA,180,200,260,200,36000,52000,"[2,3]"
NA,canvas-keyboard-response,97,91833,0.0-6.0-1.15,5018,NA,NA,NA,NA,clear_screen,null,null,NA,NA,catch,sh,sw,l,231,207,149,236,172,266,spektor,null,null,null,null,null,null,null,null,null,null,null,NA,180,200,260,200,36000,52000,"[2,3]"
NA,canvas-keyboard-response,98,93176,0.0-6.0-2.15,5018,NA,NA,NA,NA,rectangles,null,null,NA,NA,catch,sh,sw,l,231,207,149,236,172,266,spektor,null,null,null,null,null,null,null,null,null,null,null,NA,180,200,260,200,36000,52000,"[2,3]"
NA,canvas-keyboard-response,99,93340,0.0-6.0-3.15,5018,NA,NA,NA,NA,clear_screen,null,null,NA,NA,catch,sh,sw,l,231,207,149,236,172,266,spektor,null,null,null,null,null,null,null,null,null,null,null,NA,180,200,260,200,36000,52000,"[2,3]"
NA,canvas-keyboard-response,100,95684,0.0-6.0-4.15,5018,NA,NA,NA,NA,make choice,2331,3,NA,NA,catch,sh,sw,l,231,207,149,236,172,266,spektor,null,null,null,null,null,null,null,null,null,null,null,NA,180,200,260,200,36000,52000,"[2,3]"
NA,canvas-keyboard-response,101,95849,0.0-6.0-5.15,5018,NA,NA,NA,NA,clear_screen,null,null,NA,NA,catch,sh,sw,l,231,207,149,236,172,266,spektor,null,null,null,null,null,null,null,null,null,null,null,NA,180,200,260,200,36000,52000,"[2,3]"
NA,canvas-keyboard-response,102,96057,0.0-6.0-0.16,5018,NA,NA,NA,NA,pre trial waiting period,null,null,NA,NA,critical,c,d,t,240,164,164,240,164,240,spektor,0,h,164,240,240,164,164,240,39360,39360,39360,tc,null,null,null,null,null,null,"[3,1]"
NA,canvas-keyboard-response,103,96217,0.0-6.0-1.16,5018,NA,NA,NA,NA,clear_screen,null,null,NA,NA,critical,c,d,t,240,164,164,240,164,240,spektor,0,h,164,240,240,164,164,240,39360,39360,39360,tc,null,null,null,null,null,null,"[3,1]"
NA,canvas-keyboard-response,104,97557,0.0-6.0-2.16,5018,NA,NA,NA,NA,rectangles,null,null,NA,NA,critical,c,d,t,240,164,164,240,164,240,spektor,0,h,164,240,240,164,164,240,39360,39360,39360,tc,null,null,null,null,null,null,"[3,1]"
NA,canvas-keyboard-response,105,97722,0.0-6.0-3.16,5018,NA,NA,NA,NA,clear_screen,null,null,NA,NA,critical,c,d,t,240,164,164,240,164,240,spektor,0,h,164,240,240,164,164,240,39360,39360,39360,tc,null,null,null,null,null,null,"[3,1]"
NA,canvas-keyboard-response,106,99430,0.0-6.0-4.16,5018,NA,NA,NA,NA,make choice,1693,1,NA,NA,critical,c,d,t,240,164,164,240,164,240,spektor,0,h,164,240,240,164,164,240,39360,39360,39360,tc,null,null,null,null,null,null,"[3,1]"
NA,canvas-keyboard-response,107,99607,0.0-6.0-5.16,5018,NA,NA,NA,NA,clear_screen,null,null,NA,NA,critical,c,d,t,240,164,164,240,164,240,spektor,0,h,164,240,240,164,164,240,39360,39360,39360,tc,null,null,null,null,null,null,"[3,1]"
NA,canvas-keyboard-response,108,99822,0.0-6.0-0.17,5018,NA,NA,NA,NA,pre trial waiting period,null,null,NA,NA,catch,l,sh,sw,214,266,160,141,190,202,spektor,null,null,null,null,null,null,null,null,null,null,null,NA,180,200,260,200,36000,52000,"[1,3]"
NA,canvas-keyboard-response,109,99982,0.0-6.0-1.17,5018,NA,NA,NA,NA,clear_screen,null,null,NA,NA,catch,l,sh,sw,214,266,160,141,190,202,spektor,null,null,null,null,null,null,null,null,null,null,null,NA,180,200,260,200,36000,52000,"[1,3]"
NA,canvas-keyboard-response,110,101328,0.0-6.0-2.17,5018,NA,NA,NA,NA,rectangles,null,null,NA,NA,catch,l,sh,sw,214,266,160,141,190,202,spektor,null,null,null,null,null,null,null,null,null,null,null,NA,180,200,260,200,36000,52000,"[1,3]"
NA,canvas-keyboard-response,111,101497,0.0-6.0-3.17,5018,NA,NA,NA,NA,clear_screen,null,null,NA,NA,catch,l,sh,sw,214,266,160,141,190,202,spektor,null,null,null,null,null,null,null,null,null,null,null,NA,180,200,260,200,36000,52000,"[1,3]"
NA,canvas-keyboard-response,112,102421,0.0-6.0-4.17,5018,NA,NA,NA,NA,make choice,904,1,NA,NA,catch,l,sh,sw,214,266,160,141,190,202,spektor,null,null,null,null,null,null,null,null,null,null,null,NA,180,200,260,200,36000,52000,"[1,3]"
NA,canvas-keyboard-response,113,102592,0.0-6.0-5.17,5018,NA,NA,NA,NA,clear_screen,null,null,NA,NA,catch,l,sh,sw,214,266,160,141,190,202,spektor,null,null,null,null,null,null,null,null,null,null,null,NA,180,200,260,200,36000,52000,"[1,3]"
NA,canvas-keyboard-response,114,102807,0.0-6.0-0.18,5018,NA,NA,NA,NA,pre trial waiting period,null,null,NA,NA,catch,l,sh,sw,191,243,200,206,206,168,spektor,null,null,null,null,null,null,null,null,null,null,null,NA,180,200,260,200,36000,52000,"[1,3]"
NA,canvas-keyboard-response,115,102967,0.0-6.0-1.18,5018,NA,NA,NA,NA,clear_screen,null,null,NA,NA,catch,l,sh,sw,191,243,200,206,206,168,spektor,null,null,null,null,null,null,null,null,null,null,null,NA,180,200,260,200,36000,52000,"[1,3]"
NA,canvas-keyboard-response,116,104314,0.0-6.0-2.18,5018,NA,NA,NA,NA,rectangles,null,null,NA,NA,catch,l,sh,sw,191,243,200,206,206,168,spektor,null,null,null,null,null,null,null,null,null,null,null,NA,180,200,260,200,36000,52000,"[1,3]"
NA,canvas-keyboard-response,117,104479,0.0-6.0-3.18,5018,NA,NA,NA,NA,clear_screen,null,null,NA,NA,catch,l,sh,sw,191,243,200,206,206,168,spektor,null,null,null,null,null,null,null,null,null,null,null,NA,180,200,260,200,36000,52000,"[1,3]"
NA,canvas-keyboard-response,118,105181,0.0-6.0-4.18,5018,NA,NA,NA,NA,make choice,683,1,NA,NA,catch,l,sh,sw,191,243,200,206,206,168,spektor,null,null,null,null,null,null,null,null,null,null,null,NA,180,200,260,200,36000,52000,"[1,3]"
NA,canvas-keyboard-response,119,105346,0.0-6.0-5.18,5018,NA,NA,NA,NA,clear_screen,null,null,NA,NA,catch,l,sh,sw,191,243,200,206,206,168,spektor,null,null,null,null,null,null,null,null,null,null,null,NA,180,200,260,200,36000,52000,"[1,3]"
NA,canvas-keyboard-response,120,105557,0.0-6.0-0.19,5018,NA,NA,NA,NA,pre trial waiting period,null,null,NA,NA,catch,sw,l,sh,180,200,298,183,220,143,trueblood,null,null,null,null,null,null,null,null,null,null,null,NA,180,200,260,200,36000,52000,"[1,2]"
NA,canvas-keyboard-response,121,105717,0.0-6.0-1.19,5018,NA,NA,NA,NA,clear_screen,null,null,NA,NA,catch,sw,l,sh,180,200,298,183,220,143,trueblood,null,null,null,null,null,null,null,null,null,null,null,NA,180,200,260,200,36000,52000,"[1,2]"
NA,canvas-keyboard-response,122,107059,0.0-6.0-2.19,5018,NA,NA,NA,NA,rectangles,null,null,NA,NA,catch,sw,l,sh,180,200,298,183,220,143,trueblood,null,null,null,null,null,null,null,null,null,null,null,NA,180,200,260,200,36000,52000,"[1,2]"
NA,canvas-keyboard-response,123,107225,0.0-6.0-3.19,5018,NA,NA,NA,NA,clear_screen,null,null,NA,NA,catch,sw,l,sh,180,200,298,183,220,143,trueblood,null,null,null,null,null,null,null,null,null,null,null,NA,180,200,260,200,36000,52000,"[1,2]"
NA,canvas-keyboard-response,124,108501,0.0-6.0-4.19,5018,NA,NA,NA,NA,make choice,1260,2,NA,NA,catch,sw,l,sh,180,200,298,183,220,143,trueblood,null,null,null,null,null,null,null,null,null,null,null,NA,180,200,260,200,36000,52000,"[1,2]"
NA,canvas-keyboard-response,125,108665,0.0-6.0-5.19,5018,NA,NA,NA,NA,clear_screen,null,null,NA,NA,catch,sw,l,sh,180,200,298,183,220,143,trueblood,null,null,null,null,null,null,null,null,null,null,null,NA,180,200,260,200,36000,52000,"[1,2]"
NA,canvas-keyboard-response,126,108875,0.0-6.0-0.20,5018,NA,NA,NA,NA,pre trial waiting period,null,null,NA,NA,critical,c,t,d,164,240,240,164,240,164,spektor,0,w,240,164,164,240,240,164,39360,39360,39360,dc,null,null,null,null,null,null,"[3,1]"
NA,canvas-keyboard-response,127,109035,0.0-6.0-1.20,5018,NA,NA,NA,NA,clear_screen,null,null,NA,NA,critical,c,t,d,164,240,240,164,240,164,spektor,0,w,240,164,164,240,240,164,39360,39360,39360,dc,null,null,null,null,null,null,"[3,1]"
NA,canvas-keyboard-response,128,110378,0.0-6.0-2.20,5018,NA,NA,NA,NA,rectangles,null,null,NA,NA,critical,c,t,d,164,240,240,164,240,164,spektor,0,w,240,164,164,240,240,164,39360,39360,39360,dc,null,null,null,null,null,null,"[3,1]"
NA,canvas-keyboard-response,129,110543,0.0-6.0-3.20,5018,NA,NA,NA,NA,clear_screen,null,null,NA,NA,critical,c,t,d,164,240,240,164,240,164,spektor,0,w,240,164,164,240,240,164,39360,39360,39360,dc,null,null,null,null,null,null,"[3,1]"
NA,canvas-keyboard-response,130,111429,0.0-6.0-4.20,5018,NA,NA,NA,NA,make choice,869,1,NA,NA,critical,c,t,d,164,240,240,164,240,164,spektor,0,w,240,164,164,240,240,164,39360,39360,39360,dc,null,null,null,null,null,null,"[3,1]"
NA,canvas-keyboard-response,131,111597,0.0-6.0-5.20,5018,NA,NA,NA,NA,clear_screen,null,null,NA,NA,critical,c,t,d,164,240,240,164,240,164,spektor,0,w,240,164,164,240,240,164,39360,39360,39360,dc,null,null,null,null,null,null,"[3,1]"
NA,canvas-keyboard-response,132,111807,0.0-6.0-0.21,5018,NA,NA,NA,NA,pre trial waiting period,null,null,NA,NA,critical,t,c,d,164,240,240,164,154.6796,220.0396,trueblood,0.14,h,164,240,240,164,154.6796,220.0396,39360,39360,34035.6388,td,null,null,null,null,null,null,"[1,3]"
NA,canvas-keyboard-response,133,111966,0.0-6.0-1.21,5018,NA,NA,NA,NA,clear_screen,null,null,NA,NA,critical,t,c,d,164,240,240,164,154.6796,220.0396,trueblood,0.14,h,164,240,240,164,154.6796,220.0396,39360,39360,34035.6388,td,null,null,null,null,null,null,"[1,3]"
NA,canvas-keyboard-response,134,113308,0.0-6.0-2.21,5018,NA,NA,NA,NA,rectangles,null,null,NA,NA,critical,t,c,d,164,240,240,164,154.6796,220.0396,trueblood,0.14,h,164,240,240,164,154.6796,220.0396,39360,39360,34035.6388,td,null,null,null,null,null,null,"[1,3]"
NA,canvas-keyboard-response,135,113472,0.0-6.0-3.21,5018,NA,NA,NA,NA,clear_screen,null,null,NA,NA,critical,t,c,d,164,240,240,164,154.6796,220.0396,trueblood,0.14,h,164,240,240,164,154.6796,220.0396,39360,39360,34035.6388,td,null,null,null,null,null,null,"[1,3]"
NA,canvas-keyboard-response,136,114101,0.0-6.0-4.21,5018,NA,NA,NA,NA,make choice,614,1,NA,NA,critical,t,c,d,164,240,240,164,154.6796,220.0396,trueblood,0.14,h,164,240,240,164,154.6796,220.0396,39360,39360,34035.6388,td,null,null,null,null,null,null,"[1,3]"
NA,canvas-keyboard-response,137,114265,0.0-6.0-5.21,5018,NA,NA,NA,NA,clear_screen,null,null,NA,NA,critical,t,c,d,164,240,240,164,154.6796,220.0396,trueblood,0.14,h,164,240,240,164,154.6796,220.0396,39360,39360,34035.6388,td,null,null,null,null,null,null,"[1,3]"
NA,canvas-keyboard-response,138,114476,0.0-6.0-0.22,5018,NA,NA,NA,NA,pre trial waiting period,null,null,NA,NA,critical,c,t,d,240,164,164,240,164,240,trueblood,0,h,164,240,240,164,164,240,39360,39360,39360,dc,null,null,null,null,null,null,"[3,1]"
NA,canvas-keyboard-response,139,114634,0.0-6.0-1.22,5018,NA,NA,NA,NA,clear_screen,null,null,NA,NA,critical,c,t,d,240,164,164,240,164,240,trueblood,0,h,164,240,240,164,164,240,39360,39360,39360,dc,null,null,null,null,null,null,"[3,1]"
NA,canvas-keyboard-response,140,115976,0.0-6.0-2.22,5018,NA,NA,NA,NA,rectangles,null,null,NA,NA,critical,c,t,d,240,164,164,240,164,240,trueblood,0,h,164,240,240,164,164,240,39360,39360,39360,dc,null,null,null,null,null,null,"[3,1]"
NA,canvas-keyboard-response,141,116143,0.0-6.0-3.22,5018,NA,NA,NA,NA,clear_screen,null,null,NA,NA,critical,c,t,d,240,164,164,240,164,240,trueblood,0,h,164,240,240,164,164,240,39360,39360,39360,dc,null,null,null,null,null,null,"[3,1]"
NA,canvas-keyboard-response,142,116981,0.0-6.0-4.22,5018,NA,NA,NA,NA,make choice,821,1,NA,NA,critical,c,t,d,240,164,164,240,164,240,trueblood,0,h,164,240,240,164,164,240,39360,39360,39360,dc,null,null,null,null,null,null,"[3,1]"
NA,canvas-keyboard-response,143,117146,0.0-6.0-5.22,5018,NA,NA,NA,NA,clear_screen,null,null,NA,NA,critical,c,t,d,240,164,164,240,164,240,trueblood,0,h,164,240,240,164,164,240,39360,39360,39360,dc,null,null,null,null,null,null,"[3,1]"
NA,canvas-keyboard-response,144,117358,0.0-6.0-0.23,5018,NA,NA,NA,NA,pre trial waiting period,null,null,NA,NA,critical,d,t,c,232.8713,160.6713,240,164,164,240,spektor,0.05,w,240,164,164,240,232.8713,160.6713,39360,39360,37415.7294,tc,null,null,null,null,null,null,"[2,3]"
NA,canvas-keyboard-response,145,117516,0.0-6.0-1.23,5018,NA,NA,NA,NA,clear_screen,null,null,NA,NA,critical,d,t,c,232.8713,160.6713,240,164,164,240,spektor,0.05,w,240,164,164,240,232.8713,160.6713,39360,39360,37415.7294,tc,null,null,null,null,null,null,"[2,3]"
NA,canvas-keyboard-response,146,118861,0.0-6.0-2.23,5018,NA,NA,NA,NA,rectangles,null,null,NA,NA,critical,d,t,c,232.8713,160.6713,240,164,164,240,spektor,0.05,w,240,164,164,240,232.8713,160.6713,39360,39360,37415.7294,tc,null,null,null,null,null,null,"[2,3]"
NA,canvas-keyboard-response,147,119028,0.0-6.0-3.23,5018,NA,NA,NA,NA,clear_screen,null,null,NA,NA,critical,d,t,c,232.8713,160.6713,240,164,164,240,spektor,0.05,w,240,164,164,240,232.8713,160.6713,39360,39360,37415.7294,tc,null,null,null,null,null,null,"[2,3]"
NA,canvas-keyboard-response,148,120165,0.0-6.0-4.23,5018,NA,NA,NA,NA,make choice,1120,2,NA,NA,critical,d,t,c,232.8713,160.6713,240,164,164,240,spektor,0.05,w,240,164,164,240,232.8713,160.6713,39360,39360,37415.7294,tc,null,null,null,null,null,null,"[2,3]"
NA,canvas-keyboard-response,149,120332,0.0-6.0-5.23,5018,NA,NA,NA,NA,clear_screen,null,null,NA,NA,critical,d,t,c,232.8713,160.6713,240,164,164,240,spektor,0.05,w,240,164,164,240,232.8713,160.6713,39360,39360,37415.7294,tc,null,null,null,null,null,null,"[2,3]"
NA,canvas-keyboard-response,150,120544,0.0-6.0-0.24,5018,NA,NA,NA,NA,pre trial waiting period,null,null,NA,NA,catch,l,sh,sw,223,205,235,183,163,198,trueblood,null,null,null,null,null,null,null,null,null,null,null,NA,180,200,260,200,36000,52000,"[1,3]"
NA,canvas-keyboard-response,151,120702,0.0-6.0-1.24,5018,NA,NA,NA,NA,clear_screen,null,null,NA,NA,catch,l,sh,sw,223,205,235,183,163,198,trueblood,null,null,null,null,null,null,null,null,null,null,null,NA,180,200,260,200,36000,52000,"[1,3]"
NA,canvas-keyboard-response,152,122044,0.0-6.0-2.24,5018,NA,NA,NA,NA,rectangles,null,null,NA,NA,catch,l,sh,sw,223,205,235,183,163,198,trueblood,null,null,null,null,null,null,null,null,null,null,null,NA,180,200,260,200,36000,52000,"[1,3]"
NA,canvas-keyboard-response,153,122210,0.0-6.0-3.24,5018,NA,NA,NA,NA,clear_screen,null,null,NA,NA,catch,l,sh,sw,223,205,235,183,163,198,trueblood,null,null,null,null,null,null,null,null,null,null,null,NA,180,200,260,200,36000,52000,"[1,3]"
NA,canvas-keyboard-response,154,123141,0.0-6.0-4.24,5018,NA,NA,NA,NA,make choice,913,1,NA,NA,catch,l,sh,sw,223,205,235,183,163,198,trueblood,null,null,null,null,null,null,null,null,null,null,null,NA,180,200,260,200,36000,52000,"[1,3]"
NA,canvas-keyboard-response,155,123308,0.0-6.0-5.24,5018,NA,NA,NA,NA,clear_screen,null,null,NA,NA,catch,l,sh,sw,223,205,235,183,163,198,trueblood,null,null,null,null,null,null,null,null,null,null,null,NA,180,200,260,200,36000,52000,"[1,3]"
NA,canvas-keyboard-response,156,123519,0.0-6.0-0.25,5018,NA,NA,NA,NA,pre trial waiting period,null,null,NA,NA,critical,t,c,d,164,240,240,164,164,240,spektor,0,h,164,240,240,164,164,240,39360,39360,39360,dc,null,null,null,null,null,null,"[3,2]"
NA,canvas-keyboard-response,157,123679,0.0-6.0-1.25,5018,NA,NA,NA,NA,clear_screen,null,null,NA,NA,critical,t,c,d,164,240,240,164,164,240,spektor,0,h,164,240,240,164,164,240,39360,39360,39360,dc,null,null,null,null,null,null,"[3,2]"
NA,canvas-keyboard-response,158,125026,0.0-6.0-2.25,5018,NA,NA,NA,NA,rectangles,null,null,NA,NA,critical,t,c,d,164,240,240,164,164,240,spektor,0,h,164,240,240,164,164,240,39360,39360,39360,dc,null,null,null,null,null,null,"[3,2]"
NA,canvas-keyboard-response,159,125195,0.0-6.0-3.25,5018,NA,NA,NA,NA,clear_screen,null,null,NA,NA,critical,t,c,d,164,240,240,164,164,240,spektor,0,h,164,240,240,164,164,240,39360,39360,39360,dc,null,null,null,null,null,null,"[3,2]"
NA,canvas-keyboard-response,160,125956,0.0-6.0-4.25,5018,NA,NA,NA,NA,make choice,745,3,NA,NA,critical,t,c,d,164,240,240,164,164,240,spektor,0,h,164,240,240,164,164,240,39360,39360,39360,dc,null,null,null,null,null,null,"[3,2]"
NA,canvas-keyboard-response,161,126124,0.0-6.0-5.25,5018,NA,NA,NA,NA,clear_screen,null,null,NA,NA,critical,t,c,d,164,240,240,164,164,240,spektor,0,h,164,240,240,164,164,240,39360,39360,39360,dc,null,null,null,null,null,null,"[3,2]"
NA,canvas-keyboard-response,162,126335,0.0-6.0-0.26,5018,NA,NA,NA,NA,pre trial waiting period,null,null,NA,NA,critical,d,t,c,154.6796,220.0396,164,240,240,164,trueblood,0.14,h,164,240,240,164,154.6796,220.0396,39360,39360,34035.6388,tc,null,null,null,null,null,null,"[2,3]"
NA,canvas-keyboard-response,163,126494,0.0-6.0-1.26,5018,NA,NA,NA,NA,clear_screen,null,null,NA,NA,critical,d,t,c,154.6796,220.0396,164,240,240,164,trueblood,0.14,h,164,240,240,164,154.6796,220.0396,39360,39360,34035.6388,tc,null,null,null,null,null,null,"[2,3]"
NA,canvas-keyboard-response,164,127837,0.0-6.0-2.26,5018,NA,NA,NA,NA,rectangles,null,null,NA,NA,critical,d,t,c,154.6796,220.0396,164,240,240,164,trueblood,0.14,h,164,240,240,164,154.6796,220.0396,39360,39360,34035.6388,tc,null,null,null,null,null,null,"[2,3]"
NA,canvas-keyboard-response,165,128005,0.0-6.0-3.26,5018,NA,NA,NA,NA,clear_screen,null,null,NA,NA,critical,d,t,c,154.6796,220.0396,164,240,240,164,trueblood,0.14,h,164,240,240,164,154.6796,220.0396,39360,39360,34035.6388,tc,null,null,null,null,null,null,"[2,3]"
NA,canvas-keyboard-response,166,128798,0.0-6.0-4.26,5018,NA,NA,NA,NA,make choice,773,3,NA,NA,critical,d,t,c,154.6796,220.0396,164,240,240,164,trueblood,0.14,h,164,240,240,164,154.6796,220.0396,39360,39360,34035.6388,tc,null,null,null,null,null,null,"[2,3]"
NA,canvas-keyboard-response,167,128963,0.0-6.0-5.26,5018,NA,NA,NA,NA,clear_screen,null,null,NA,NA,critical,d,t,c,154.6796,220.0396,164,240,240,164,trueblood,0.14,h,164,240,240,164,154.6796,220.0396,39360,39360,34035.6388,tc,null,null,null,null,null,null,"[2,3]"
NA,canvas-keyboard-response,168,129174,0.0-6.0-0.27,5018,NA,NA,NA,NA,pre trial waiting period,null,null,NA,NA,catch,sw,l,sh,180,200,243,165,171,208,trueblood,null,null,null,null,null,null,null,null,null,null,null,NA,180,200,260,200,36000,52000,"[2,3]"
NA,canvas-keyboard-response,169,129335,0.0-6.0-1.27,5018,NA,NA,NA,NA,clear_screen,null,null,NA,NA,catch,sw,l,sh,180,200,243,165,171,208,trueblood,null,null,null,null,null,null,null,null,null,null,null,NA,180,200,260,200,36000,52000,"[2,3]"
NA,canvas-keyboard-response,170,130677,0.0-6.0-2.27,5018,NA,NA,NA,NA,rectangles,null,null,NA,NA,catch,sw,l,sh,180,200,243,165,171,208,trueblood,null,null,null,null,null,null,null,null,null,null,null,NA,180,200,260,200,36000,52000,"[2,3]"
NA,canvas-keyboard-response,171,130844,0.0-6.0-3.27,5018,NA,NA,NA,NA,clear_screen,null,null,NA,NA,catch,sw,l,sh,180,200,243,165,171,208,trueblood,null,null,null,null,null,null,null,null,null,null,null,NA,180,200,260,200,36000,52000,"[2,3]"
NA,canvas-keyboard-response,172,132156,0.0-6.0-4.27,5018,NA,NA,NA,NA,make choice,1296,2,NA,NA,catch,sw,l,sh,180,200,243,165,171,208,trueblood,null,null,null,null,null,null,null,null,null,null,null,NA,180,200,260,200,36000,52000,"[2,3]"
NA,canvas-keyboard-response,173,132323,0.0-6.0-5.27,5018,NA,NA,NA,NA,clear_screen,null,null,NA,NA,catch,sw,l,sh,180,200,243,165,171,208,trueblood,null,null,null,null,null,null,null,null,null,null,null,NA,180,200,260,200,36000,52000,"[2,3]"
NA,canvas-keyboard-response,174,132535,0.0-6.0-0.28,5018,NA,NA,NA,NA,pre trial waiting period,null,null,NA,NA,critical,d,c,t,158.0083,227.1683,240,164,164,240,trueblood,0.09,h,164,240,240,164,158.0083,227.1683,39360,39360,35894.4834,td,null,null,null,null,null,null,"[3,1]"
NA,canvas-keyboard-response,175,132694,0.0-6.0-1.28,5018,NA,NA,NA,NA,clear_screen,null,null,NA,NA,critical,d,c,t,158.0083,227.1683,240,164,164,240,trueblood,0.09,h,164,240,240,164,158.0083,227.1683,39360,39360,35894.4834,td,null,null,null,null,null,null,"[3,1]"
NA,canvas-keyboard-response,176,134039,0.0-6.0-2.28,5018,NA,NA,NA,NA,rectangles,null,null,NA,NA,critical,d,c,t,158.0083,227.1683,240,164,164,240,trueblood,0.09,h,164,240,240,164,158.0083,227.1683,39360,39360,35894.4834,td,null,null,null,null,null,null,"[3,1]"
NA,canvas-keyboard-response,177,134207,0.0-6.0-3.28,5018,NA,NA,NA,NA,clear_screen,null,null,NA,NA,critical,d,c,t,158.0083,227.1683,240,164,164,240,trueblood,0.09,h,164,240,240,164,158.0083,227.1683,39360,39360,35894.4834,td,null,null,null,null,null,null,"[3,1]"
NA,canvas-keyboard-response,178,135373,0.0-6.0-4.28,5018,NA,NA,NA,NA,make choice,1149,1,NA,NA,critical,d,c,t,158.0083,227.1683,240,164,164,240,trueblood,0.09,h,164,240,240,164,158.0083,227.1683,39360,39360,35894.4834,td,null,null,null,null,null,null,"[3,1]"
NA,canvas-keyboard-response,179,135539,0.0-6.0-5.28,5018,NA,NA,NA,NA,clear_screen,null,null,NA,NA,critical,d,c,t,158.0083,227.1683,240,164,164,240,trueblood,0.09,h,164,240,240,164,158.0083,227.1683,39360,39360,35894.4834,td,null,null,null,null,null,null,"[3,1]"
NA,canvas-keyboard-response,180,135751,0.0-6.0-0.29,5018,NA,NA,NA,NA,pre trial waiting period,null,null,NA,NA,critical,c,t,d,240,164,164,240,154.6796,220.0396,spektor,0.14,h,164,240,240,164,154.6796,220.0396,39360,39360,34035.6388,dc,null,null,null,null,null,null,"[3,1]"
NA,canvas-keyboard-response,181,135911,0.0-6.0-1.29,5018,NA,NA,NA,NA,clear_screen,null,null,NA,NA,critical,c,t,d,240,164,164,240,154.6796,220.0396,spektor,0.14,h,164,240,240,164,154.6796,220.0396,39360,39360,34035.6388,dc,null,null,null,null,null,null,"[3,1]"
NA,canvas-keyboard-response,182,137258,0.0-6.0-2.29,5018,NA,NA,NA,NA,rectangles,null,null,NA,NA,critical,c,t,d,240,164,164,240,154.6796,220.0396,spektor,0.14,h,164,240,240,164,154.6796,220.0396,39360,39360,34035.6388,dc,null,null,null,null,null,null,"[3,1]"
NA,canvas-keyboard-response,183,137427,0.0-6.0-3.29,5018,NA,NA,NA,NA,clear_screen,null,null,NA,NA,critical,c,t,d,240,164,164,240,154.6796,220.0396,spektor,0.14,h,164,240,240,164,154.6796,220.0396,39360,39360,34035.6388,dc,null,null,null,null,null,null,"[3,1]"
NA,canvas-keyboard-response,184,138910,0.0-6.0-4.29,5018,NA,NA,NA,NA,make choice,1465,1,NA,NA,critical,c,t,d,240,164,164,240,154.6796,220.0396,spektor,0.14,h,164,240,240,164,154.6796,220.0396,39360,39360,34035.6388,dc,null,null,null,null,null,null,"[3,1]"
NA,canvas-keyboard-response,185,139089,0.0-6.0-5.29,5018,NA,NA,NA,NA,clear_screen,null,null,NA,NA,critical,c,t,d,240,164,164,240,154.6796,220.0396,spektor,0.14,h,164,240,240,164,154.6796,220.0396,39360,39360,34035.6388,dc,null,null,null,null,null,null,"[3,1]"
NA,canvas-keyboard-response,186,139310,0.0-6.0-0.30,5018,NA,NA,NA,NA,pre trial waiting period,null,null,NA,NA,catch,l,sh,sw,227,282,170,211,166,217,spektor,null,null,null,null,null,null,null,null,null,null,null,NA,180,200,260,200,36000,52000,"[1,2]"
NA,canvas-keyboard-response,187,139471,0.0-6.0-1.30,5018,NA,NA,NA,NA,clear_screen,null,null,NA,NA,catch,l,sh,sw,227,282,170,211,166,217,spektor,null,null,null,null,null,null,null,null,null,null,null,NA,180,200,260,200,36000,52000,"[1,2]"
NA,canvas-keyboard-response,188,140817,0.0-6.0-2.30,5018,NA,NA,NA,NA,rectangles,null,null,NA,NA,catch,l,sh,sw,227,282,170,211,166,217,spektor,null,null,null,null,null,null,null,null,null,null,null,NA,180,200,260,200,36000,52000,"[1,2]"
NA,canvas-keyboard-response,189,140987,0.0-6.0-3.30,5018,NA,NA,NA,NA,clear_screen,null,null,NA,NA,catch,l,sh,sw,227,282,170,211,166,217,spektor,null,null,null,null,null,null,null,null,null,null,null,NA,180,200,260,200,36000,52000,"[1,2]"
NA,canvas-keyboard-response,190,141533,0.0-6.0-4.30,5018,NA,NA,NA,NA,make choice,525,1,NA,NA,catch,l,sh,sw,227,282,170,211,166,217,spektor,null,null,null,null,null,null,null,null,null,null,null,NA,180,200,260,200,36000,52000,"[1,2]"
NA,canvas-keyboard-response,191,141701,0.0-6.0-5.30,5018,NA,NA,NA,NA,clear_screen,null,null,NA,NA,catch,l,sh,sw,227,282,170,211,166,217,spektor,null,null,null,null,null,null,null,null,null,null,null,NA,180,200,260,200,36000,52000,"[1,2]"
NA,canvas-keyboard-response,192,141915,0.0-6.0-0.31,5018,NA,NA,NA,NA,pre trial waiting period,null,null,NA,NA,catch,sh,l,sw,160,167,196,281,212,236,spektor,null,null,null,null,null,null,null,null,null,null,null,NA,180,200,260,200,36000,52000,"[2,3]"
NA,canvas-keyboard-response,193,142075,0.0-6.0-1.31,5018,NA,NA,NA,NA,clear_screen,null,null,NA,NA,catch,sh,l,sw,160,167,196,281,212,236,spektor,null,null,null,null,null,null,null,null,null,null,null,NA,180,200,260,200,36000,52000,"[2,3]"
NA,canvas-keyboard-response,194,143421,0.0-6.0-2.31,5018,NA,NA,NA,NA,rectangles,null,null,NA,NA,catch,sh,l,sw,160,167,196,281,212,236,spektor,null,null,null,null,null,null,null,null,null,null,null,NA,180,200,260,200,36000,52000,"[2,3]"
NA,canvas-keyboard-response,195,143590,0.0-6.0-3.31,5018,NA,NA,NA,NA,clear_screen,null,null,NA,NA,catch,sh,l,sw,160,167,196,281,212,236,spektor,null,null,null,null,null,null,null,null,null,null,null,NA,180,200,260,200,36000,52000,"[2,3]"
NA,canvas-keyboard-response,196,144077,0.0-6.0-4.31,5018,NA,NA,NA,NA,make choice,462,2,NA,NA,catch,sh,l,sw,160,167,196,281,212,236,spektor,null,null,null,null,null,null,null,null,null,null,null,NA,180,200,260,200,36000,52000,"[2,3]"
NA,canvas-keyboard-response,197,144248,0.0-6.0-5.31,5018,NA,NA,NA,NA,clear_screen,null,null,NA,NA,catch,sh,l,sw,160,167,196,281,212,236,spektor,null,null,null,null,null,null,null,null,null,null,null,NA,180,200,260,200,36000,52000,"[2,3]"
NA,canvas-keyboard-response,198,144461,0.0-6.0-0.32,5018,NA,NA,NA,NA,pre trial waiting period,null,null,NA,NA,critical,t,c,d,240,164,164,240,237.1485,162.6685,spektor,0.02,w,240,164,164,240,237.1485,162.6685,39360,39360,38576.5967,dc,null,null,null,null,null,null,"[3,2]"
NA,canvas-keyboard-response,199,144620,0.0-6.0-1.32,5018,NA,NA,NA,NA,clear_screen,null,null,NA,NA,critical,t,c,d,240,164,164,240,237.1485,162.6685,spektor,0.02,w,240,164,164,240,237.1485,162.6685,39360,39360,38576.5967,dc,null,null,null,null,null,null,"[3,2]"
NA,canvas-keyboard-response,200,145966,0.0-6.0-2.32,5018,NA,NA,NA,NA,rectangles,null,null,NA,NA,critical,t,c,d,240,164,164,240,237.1485,162.6685,spektor,0.02,w,240,164,164,240,237.1485,162.6685,39360,39360,38576.5967,dc,null,null,null,null,null,null,"[3,2]"
NA,canvas-keyboard-response,201,146135,0.0-6.0-3.32,5018,NA,NA,NA,NA,clear_screen,null,null,NA,NA,critical,t,c,d,240,164,164,240,237.1485,162.6685,spektor,0.02,w,240,164,164,240,237.1485,162.6685,39360,39360,38576.5967,dc,null,null,null,null,null,null,"[3,2]"
NA,canvas-keyboard-response,202,147509,0.0-6.0-4.32,5018,NA,NA,NA,NA,make choice,1355,2,NA,NA,critical,t,c,d,240,164,164,240,237.1485,162.6685,spektor,0.02,w,240,164,164,240,237.1485,162.6685,39360,39360,38576.5967,dc,null,null,null,null,null,null,"[3,2]"
NA,canvas-keyboard-response,203,147677,0.0-6.0-5.32,5018,NA,NA,NA,NA,clear_screen,null,null,NA,NA,critical,t,c,d,240,164,164,240,237.1485,162.6685,spektor,0.02,w,240,164,164,240,237.1485,162.6685,39360,39360,38576.5967,dc,null,null,null,null,null,null,"[3,2]"
NA,canvas-keyboard-response,204,147890,0.0-6.0-0.33,5018,NA,NA,NA,NA,pre trial waiting period,null,null,NA,NA,critical,d,t,c,154.6796,220.0396,164,240,240,164,spektor,0.14,h,164,240,240,164,154.6796,220.0396,39360,39360,34035.6388,td,null,null,null,null,null,null,"[2,1]"
NA,canvas-keyboard-response,205,148050,0.0-6.0-1.33,5018,NA,NA,NA,NA,clear_screen,null,null,NA,NA,critical,d,t,c,154.6796,220.0396,164,240,240,164,spektor,0.14,h,164,240,240,164,154.6796,220.0396,39360,39360,34035.6388,td,null,null,null,null,null,null,"[2,1]"
NA,canvas-keyboard-response,206,149396,0.0-6.0-2.33,5018,NA,NA,NA,NA,rectangles,null,null,NA,NA,critical,d,t,c,154.6796,220.0396,164,240,240,164,spektor,0.14,h,164,240,240,164,154.6796,220.0396,39360,39360,34035.6388,td,null,null,null,null,null,null,"[2,1]"
NA,canvas-keyboard-response,207,149564,0.0-6.0-3.33,5018,NA,NA,NA,NA,clear_screen,null,null,NA,NA,critical,d,t,c,154.6796,220.0396,164,240,240,164,spektor,0.14,h,164,240,240,164,154.6796,220.0396,39360,39360,34035.6388,td,null,null,null,null,null,null,"[2,1]"
NA,canvas-keyboard-response,208,150261,0.0-6.0-4.33,5018,NA,NA,NA,NA,make choice,678,2,NA,NA,critical,d,t,c,154.6796,220.0396,164,240,240,164,spektor,0.14,h,164,240,240,164,154.6796,220.0396,39360,39360,34035.6388,td,null,null,null,null,null,null,"[2,1]"
NA,canvas-keyboard-response,209,150431,0.0-6.0-5.33,5018,NA,NA,NA,NA,clear_screen,null,null,NA,NA,critical,d,t,c,154.6796,220.0396,164,240,240,164,spektor,0.14,h,164,240,240,164,154.6796,220.0396,39360,39360,34035.6388,td,null,null,null,null,null,null,"[2,1]"
NA,canvas-keyboard-response,210,150646,0.0-6.0-0.34,5018,NA,NA,NA,NA,pre trial waiting period,null,null,NA,NA,critical,d,c,t,158.0083,227.1683,240,164,164,240,trueblood,0.09,h,164,240,240,164,158.0083,227.1683,39360,39360,35894.4834,dc,null,null,null,null,null,null,"[1,2]"
NA,canvas-keyboard-response,211,150805,0.0-6.0-1.34,5018,NA,NA,NA,NA,clear_screen,null,null,NA,NA,critical,d,c,t,158.0083,227.1683,240,164,164,240,trueblood,0.09,h,164,240,240,164,158.0083,227.1683,39360,39360,35894.4834,dc,null,null,null,null,null,null,"[1,2]"
NA,canvas-keyboard-response,212,152150,0.0-6.0-2.34,5018,NA,NA,NA,NA,rectangles,null,null,NA,NA,critical,d,c,t,158.0083,227.1683,240,164,164,240,trueblood,0.09,h,164,240,240,164,158.0083,227.1683,39360,39360,35894.4834,dc,null,null,null,null,null,null,"[1,2]"
NA,canvas-keyboard-response,213,152320,0.0-6.0-3.34,5018,NA,NA,NA,NA,clear_screen,null,null,NA,NA,critical,d,c,t,158.0083,227.1683,240,164,164,240,trueblood,0.09,h,164,240,240,164,158.0083,227.1683,39360,39360,35894.4834,dc,null,null,null,null,null,null,"[1,2]"
NA,canvas-keyboard-response,214,153365,0.0-6.0-4.34,5018,NA,NA,NA,NA,make choice,1026,2,NA,NA,critical,d,c,t,158.0083,227.1683,240,164,164,240,trueblood,0.09,h,164,240,240,164,158.0083,227.1683,39360,39360,35894.4834,dc,null,null,null,null,null,null,"[1,2]"
NA,canvas-keyboard-response,215,153534,0.0-6.0-5.34,5018,NA,NA,NA,NA,clear_screen,null,null,NA,NA,critical,d,c,t,158.0083,227.1683,240,164,164,240,trueblood,0.09,h,164,240,240,164,158.0083,227.1683,39360,39360,35894.4834,dc,null,null,null,null,null,null,"[1,2]"
NA,canvas-keyboard-response,216,153746,0.0-6.0-0.35,5018,NA,NA,NA,NA,pre trial waiting period,null,null,NA,NA,critical,c,d,t,164,240,237.1485,162.6685,240,164,trueblood,0.02,w,240,164,164,240,237.1485,162.6685,39360,39360,38576.5967,td,null,null,null,null,null,null,"[3,2]"
NA,canvas-keyboard-response,217,153905,0.0-6.0-1.35,5018,NA,NA,NA,NA,clear_screen,null,null,NA,NA,critical,c,d,t,164,240,237.1485,162.6685,240,164,trueblood,0.02,w,240,164,164,240,237.1485,162.6685,39360,39360,38576.5967,td,null,null,null,null,null,null,"[3,2]"
NA,canvas-keyboard-response,218,155251,0.0-6.0-2.35,5018,NA,NA,NA,NA,rectangles,null,null,NA,NA,critical,c,d,t,164,240,237.1485,162.6685,240,164,trueblood,0.02,w,240,164,164,240,237.1485,162.6685,39360,39360,38576.5967,td,null,null,null,null,null,null,"[3,2]"
NA,canvas-keyboard-response,219,155424,0.0-6.0-3.35,5018,NA,NA,NA,NA,clear_screen,null,null,NA,NA,critical,c,d,t,164,240,237.1485,162.6685,240,164,trueblood,0.02,w,240,164,164,240,237.1485,162.6685,39360,39360,38576.5967,td,null,null,null,null,null,null,"[3,2]"
NA,canvas-keyboard-response,220,156261,0.0-6.0-4.35,5018,NA,NA,NA,NA,make choice,818,2,NA,NA,critical,c,d,t,164,240,237.1485,162.6685,240,164,trueblood,0.02,w,240,164,164,240,237.1485,162.6685,39360,39360,38576.5967,td,null,null,null,null,null,null,"[3,2]"
NA,canvas-keyboard-response,221,156429,0.0-6.0-5.35,5018,NA,NA,NA,NA,clear_screen,null,null,NA,NA,critical,c,d,t,164,240,237.1485,162.6685,240,164,trueblood,0.02,w,240,164,164,240,237.1485,162.6685,39360,39360,38576.5967,td,null,null,null,null,null,null,"[3,2]"
NA,canvas-keyboard-response,222,156644,0.0-6.0-0.36,5018,NA,NA,NA,NA,pre trial waiting period,null,null,NA,NA,critical,d,t,c,227.1683,158.0083,240,164,164,240,spektor,0.09,w,240,164,164,240,227.1683,158.0083,39360,39360,35894.4834,td,null,null,null,null,null,null,"[2,1]"
NA,canvas-keyboard-response,223,156802,0.0-6.0-1.36,5018,NA,NA,NA,NA,clear_screen,null,null,NA,NA,critical,d,t,c,227.1683,158.0083,240,164,164,240,spektor,0.09,w,240,164,164,240,227.1683,158.0083,39360,39360,35894.4834,td,null,null,null,null,null,null,"[2,1]"
NA,canvas-keyboard-response,224,158150,0.0-6.0-2.36,5018,NA,NA,NA,NA,rectangles,null,null,NA,NA,critical,d,t,c,227.1683,158.0083,240,164,164,240,spektor,0.09,w,240,164,164,240,227.1683,158.0083,39360,39360,35894.4834,td,null,null,null,null,null,null,"[2,1]"
NA,canvas-keyboard-response,225,158319,0.0-6.0-3.36,5018,NA,NA,NA,NA,clear_screen,null,null,NA,NA,critical,d,t,c,227.1683,158.0083,240,164,164,240,spektor,0.09,w,240,164,164,240,227.1683,158.0083,39360,39360,35894.4834,td,null,null,null,null,null,null,"[2,1]"
NA,canvas-keyboard-response,226,159885,0.0-6.0-4.36,5018,NA,NA,NA,NA,make choice,1546,1,NA,NA,critical,d,t,c,227.1683,158.0083,240,164,164,240,spektor,0.09,w,240,164,164,240,227.1683,158.0083,39360,39360,35894.4834,td,null,null,null,null,null,null,"[2,1]"
NA,canvas-keyboard-response,227,160055,0.0-6.0-5.36,5018,NA,NA,NA,NA,clear_screen,null,null,NA,NA,critical,d,t,c,227.1683,158.0083,240,164,164,240,spektor,0.09,w,240,164,164,240,227.1683,158.0083,39360,39360,35894.4834,td,null,null,null,null,null,null,"[2,1]"
NA,canvas-keyboard-response,228,160270,0.0-6.0-0.37,5018,NA,NA,NA,NA,pre trial waiting period,null,null,NA,NA,critical,c,d,t,240,164,158.0083,227.1683,164,240,spektor,0.09,h,164,240,240,164,158.0083,227.1683,39360,39360,35894.4834,td,null,null,null,null,null,null,"[3,2]"
NA,canvas-keyboard-response,229,160428,0.0-6.0-1.37,5018,NA,NA,NA,NA,clear_screen,null,null,NA,NA,critical,c,d,t,240,164,158.0083,227.1683,164,240,spektor,0.09,h,164,240,240,164,158.0083,227.1683,39360,39360,35894.4834,td,null,null,null,null,null,null,"[3,2]"
NA,canvas-keyboard-response,230,161776,0.0-6.0-2.37,5018,NA,NA,NA,NA,rectangles,null,null,NA,NA,critical,c,d,t,240,164,158.0083,227.1683,164,240,spektor,0.09,h,164,240,240,164,158.0083,227.1683,39360,39360,35894.4834,td,null,null,null,null,null,null,"[3,2]"
NA,canvas-keyboard-response,231,161947,0.0-6.0-3.37,5018,NA,NA,NA,NA,clear_screen,null,null,NA,NA,critical,c,d,t,240,164,158.0083,227.1683,164,240,spektor,0.09,h,164,240,240,164,158.0083,227.1683,39360,39360,35894.4834,td,null,null,null,null,null,null,"[3,2]"
NA,canvas-keyboard-response,232,162645,0.0-6.0-4.37,5018,NA,NA,NA,NA,make choice,678,3,NA,NA,critical,c,d,t,240,164,158.0083,227.1683,164,240,spektor,0.09,h,164,240,240,164,158.0083,227.1683,39360,39360,35894.4834,td,null,null,null,null,null,null,"[3,2]"
NA,canvas-keyboard-response,233,162814,0.0-6.0-5.37,5018,NA,NA,NA,NA,clear_screen,null,null,NA,NA,critical,c,d,t,240,164,158.0083,227.1683,164,240,spektor,0.09,h,164,240,240,164,158.0083,227.1683,39360,39360,35894.4834,td,null,null,null,null,null,null,"[3,2]"
NA,canvas-keyboard-response,234,163028,0.0-6.0-0.38,5018,NA,NA,NA,NA,pre trial waiting period,null,null,NA,NA,critical,t,d,c,164,240,162.6685,237.1485,240,164,spektor,0.02,h,164,240,240,164,162.6685,237.1485,39360,39360,38576.5967,dc,null,null,null,null,null,null,"[2,3]"
NA,canvas-keyboard-response,235,163187,0.0-6.0-1.38,5018,NA,NA,NA,NA,clear_screen,null,null,NA,NA,critical,t,d,c,164,240,162.6685,237.1485,240,164,spektor,0.02,h,164,240,240,164,162.6685,237.1485,39360,39360,38576.5967,dc,null,null,null,null,null,null,"[2,3]"
NA,canvas-keyboard-response,236,164535,0.0-6.0-2.38,5018,NA,NA,NA,NA,rectangles,null,null,NA,NA,critical,t,d,c,164,240,162.6685,237.1485,240,164,spektor,0.02,h,164,240,240,164,162.6685,237.1485,39360,39360,38576.5967,dc,null,null,null,null,null,null,"[2,3]"
NA,canvas-keyboard-response,237,164706,0.0-6.0-3.38,5018,NA,NA,NA,NA,clear_screen,null,null,NA,NA,critical,t,d,c,164,240,162.6685,237.1485,240,164,spektor,0.02,h,164,240,240,164,162.6685,237.1485,39360,39360,38576.5967,dc,null,null,null,null,null,null,"[2,3]"
NA,canvas-keyboard-response,238,166028,0.0-6.0-4.38,5018,NA,NA,NA,NA,make choice,1301,2,NA,NA,critical,t,d,c,164,240,162.6685,237.1485,240,164,spektor,0.02,h,164,240,240,164,162.6685,237.1485,39360,39360,38576.5967,dc,null,null,null,null,null,null,"[2,3]"
NA,canvas-keyboard-response,239,166199,0.0-6.0-5.38,5018,NA,NA,NA,NA,clear_screen,null,null,NA,NA,critical,t,d,c,164,240,162.6685,237.1485,240,164,spektor,0.02,h,164,240,240,164,162.6685,237.1485,39360,39360,38576.5967,dc,null,null,null,null,null,null,"[2,3]"
NA,canvas-keyboard-response,240,166413,0.0-6.0-0.39,5018,NA,NA,NA,NA,pre trial waiting period,null,null,NA,NA,critical,c,d,t,240,164,164,240,164,240,spektor,0,h,164,240,240,164,164,240,39360,39360,39360,td,null,null,null,null,null,null,"[3,2]"
NA,canvas-keyboard-response,241,166572,0.0-6.0-1.39,5018,NA,NA,NA,NA,clear_screen,null,null,NA,NA,critical,c,d,t,240,164,164,240,164,240,spektor,0,h,164,240,240,164,164,240,39360,39360,39360,td,null,null,null,null,null,null,"[3,2]"
NA,canvas-keyboard-response,242,167920,0.0-6.0-2.39,5018,NA,NA,NA,NA,rectangles,null,null,NA,NA,critical,c,d,t,240,164,164,240,164,240,spektor,0,h,164,240,240,164,164,240,39360,39360,39360,td,null,null,null,null,null,null,"[3,2]"
NA,canvas-keyboard-response,243,168093,0.0-6.0-3.39,5018,NA,NA,NA,NA,clear_screen,null,null,NA,NA,critical,c,d,t,240,164,164,240,164,240,spektor,0,h,164,240,240,164,164,240,39360,39360,39360,td,null,null,null,null,null,null,"[3,2]"
NA,canvas-keyboard-response,244,168965,0.0-6.0-4.39,5018,NA,NA,NA,NA,make choice,851,2,NA,NA,critical,c,d,t,240,164,164,240,164,240,spektor,0,h,164,240,240,164,164,240,39360,39360,39360,td,null,null,null,null,null,null,"[3,2]"
NA,canvas-keyboard-response,245,169135,0.0-6.0-5.39,5018,NA,NA,NA,NA,clear_screen,null,null,NA,NA,critical,c,d,t,240,164,164,240,164,240,spektor,0,h,164,240,240,164,164,240,39360,39360,39360,td,null,null,null,null,null,null,"[3,2]"
NA,canvas-keyboard-response,246,169348,0.0-6.0-0.40,5018,NA,NA,NA,NA,pre trial waiting period,null,null,NA,NA,catch,l,sh,sw,273,181,219,165,168,183,spektor,null,null,null,null,null,null,null,null,null,null,null,NA,180,200,260,200,36000,52000,"[1,2]"
NA,canvas-keyboard-response,247,169508,0.0-6.0-1.40,5018,NA,NA,NA,NA,clear_screen,null,null,NA,NA,catch,l,sh,sw,273,181,219,165,168,183,spektor,null,null,null,null,null,null,null,null,null,null,null,NA,180,200,260,200,36000,52000,"[1,2]"
NA,canvas-keyboard-response,248,170859,0.0-6.0-2.40,5018,NA,NA,NA,NA,rectangles,null,null,NA,NA,catch,l,sh,sw,273,181,219,165,168,183,spektor,null,null,null,null,null,null,null,null,null,null,null,NA,180,200,260,200,36000,52000,"[1,2]"
NA,canvas-keyboard-response,249,171028,0.0-6.0-3.40,5018,NA,NA,NA,NA,clear_screen,null,null,NA,NA,catch,l,sh,sw,273,181,219,165,168,183,spektor,null,null,null,null,null,null,null,null,null,null,null,NA,180,200,260,200,36000,52000,"[1,2]"
NA,canvas-keyboard-response,250,171652,0.0-6.0-4.40,5018,NA,NA,NA,NA,make choice,602,1,NA,NA,catch,l,sh,sw,273,181,219,165,168,183,spektor,null,null,null,null,null,null,null,null,null,null,null,NA,180,200,260,200,36000,52000,"[1,2]"
NA,canvas-keyboard-response,251,171823,0.0-6.0-5.40,5018,NA,NA,NA,NA,clear_screen,null,null,NA,NA,catch,l,sh,sw,273,181,219,165,168,183,spektor,null,null,null,null,null,null,null,null,null,null,null,NA,180,200,260,200,36000,52000,"[1,2]"
NA,canvas-keyboard-response,252,172038,0.0-6.0-0.41,5018,NA,NA,NA,NA,pre trial waiting period,null,null,NA,NA,critical,t,d,c,240,164,237.1485,162.6685,164,240,trueblood,0.02,w,240,164,164,240,237.1485,162.6685,39360,39360,38576.5967,dc,null,null,null,null,null,null,"[2,3]"
NA,canvas-keyboard-response,253,172198,0.0-6.0-1.41,5018,NA,NA,NA,NA,clear_screen,null,null,NA,NA,critical,t,d,c,240,164,237.1485,162.6685,164,240,trueblood,0.02,w,240,164,164,240,237.1485,162.6685,39360,39360,38576.5967,dc,null,null,null,null,null,null,"[2,3]"
NA,canvas-keyboard-response,254,173543,0.0-6.0-2.41,5018,NA,NA,NA,NA,rectangles,null,null,NA,NA,critical,t,d,c,240,164,237.1485,162.6685,164,240,trueblood,0.02,w,240,164,164,240,237.1485,162.6685,39360,39360,38576.5967,dc,null,null,null,null,null,null,"[2,3]"
NA,canvas-keyboard-response,255,173716,0.0-6.0-3.41,5018,NA,NA,NA,NA,clear_screen,null,null,NA,NA,critical,t,d,c,240,164,237.1485,162.6685,164,240,trueblood,0.02,w,240,164,164,240,237.1485,162.6685,39360,39360,38576.5967,dc,null,null,null,null,null,null,"[2,3]"
NA,canvas-keyboard-response,256,174356,0.0-6.0-4.41,5018,NA,NA,NA,NA,make choice,607,2,NA,NA,critical,t,d,c,240,164,237.1485,162.6685,164,240,trueblood,0.02,w,240,164,164,240,237.1485,162.6685,39360,39360,38576.5967,dc,null,null,null,null,null,null,"[2,3]"
NA,canvas-keyboard-response,257,174540,0.0-6.0-5.41,5018,NA,NA,NA,NA,clear_screen,null,null,NA,NA,critical,t,d,c,240,164,237.1485,162.6685,164,240,trueblood,0.02,w,240,164,164,240,237.1485,162.6685,39360,39360,38576.5967,dc,null,null,null,null,null,null,"[2,3]"
NA,canvas-keyboard-response,258,174756,0.0-6.0-0.42,5018,NA,NA,NA,NA,pre trial waiting period,null,null,NA,NA,critical,t,d,c,164,240,160.6713,232.8713,240,164,trueblood,0.05,h,164,240,240,164,160.6713,232.8713,39360,39360,37415.7294,dc,null,null,null,null,null,null,"[2,3]"
NA,canvas-keyboard-response,259,174916,0.0-6.0-1.42,5018,NA,NA,NA,NA,clear_screen,null,null,NA,NA,critical,t,d,c,164,240,160.6713,232.8713,240,164,trueblood,0.05,h,164,240,240,164,160.6713,232.8713,39360,39360,37415.7294,dc,null,null,null,null,null,null,"[2,3]"
NA,canvas-keyboard-response,260,176266,0.0-6.0-2.42,5018,NA,NA,NA,NA,rectangles,null,null,NA,NA,critical,t,d,c,164,240,160.6713,232.8713,240,164,trueblood,0.05,h,164,240,240,164,160.6713,232.8713,39360,39360,37415.7294,dc,null,null,null,null,null,null,"[2,3]"
NA,canvas-keyboard-response,261,176439,0.0-6.0-3.42,5018,NA,NA,NA,NA,clear_screen,null,null,NA,NA,critical,t,d,c,164,240,160.6713,232.8713,240,164,trueblood,0.05,h,164,240,240,164,160.6713,232.8713,39360,39360,37415.7294,dc,null,null,null,null,null,null,"[2,3]"
NA,canvas-keyboard-response,262,178381,0.0-6.0-4.42,5018,NA,NA,NA,NA,make choice,1920,2,NA,NA,critical,t,d,c,164,240,160.6713,232.8713,240,164,trueblood,0.05,h,164,240,240,164,160.6713,232.8713,39360,39360,37415.7294,dc,null,null,null,null,null,null,"[2,3]"
NA,canvas-keyboard-response,263,178553,0.0-6.0-5.42,5018,NA,NA,NA,NA,clear_screen,null,null,NA,NA,critical,t,d,c,164,240,160.6713,232.8713,240,164,trueblood,0.05,h,164,240,240,164,160.6713,232.8713,39360,39360,37415.7294,dc,null,null,null,null,null,null,"[2,3]"
NA,canvas-keyboard-response,264,178769,0.0-6.0-0.43,5018,NA,NA,NA,NA,pre trial waiting period,null,null,NA,NA,catch,l,sw,sh,211,230,190,238,173,160,trueblood,null,null,null,null,null,null,null,null,null,null,null,NA,180,200,260,200,36000,52000,"[1,3]"
NA,canvas-keyboard-response,265,178929,0.0-6.0-1.43,5018,NA,NA,NA,NA,clear_screen,null,null,NA,NA,catch,l,sw,sh,211,230,190,238,173,160,trueblood,null,null,null,null,null,null,null,null,null,null,null,NA,180,200,260,200,36000,52000,"[1,3]"
NA,canvas-keyboard-response,266,180280,0.0-6.0-2.43,5018,NA,NA,NA,NA,rectangles,null,null,NA,NA,catch,l,sw,sh,211,230,190,238,173,160,trueblood,null,null,null,null,null,null,null,null,null,null,null,NA,180,200,260,200,36000,52000,"[1,3]"
NA,canvas-keyboard-response,267,180455,0.0-6.0-3.43,5018,NA,NA,NA,NA,clear_screen,null,null,NA,NA,catch,l,sw,sh,211,230,190,238,173,160,trueblood,null,null,null,null,null,null,null,null,null,null,null,NA,180,200,260,200,36000,52000,"[1,3]"
NA,canvas-keyboard-response,268,181436,0.0-6.0-4.43,5018,NA,NA,NA,NA,make choice,959,1,NA,NA,catch,l,sw,sh,211,230,190,238,173,160,trueblood,null,null,null,null,null,null,null,null,null,null,null,NA,180,200,260,200,36000,52000,"[1,3]"
NA,canvas-keyboard-response,269,181607,0.0-6.0-5.43,5018,NA,NA,NA,NA,clear_screen,null,null,NA,NA,catch,l,sw,sh,211,230,190,238,173,160,trueblood,null,null,null,null,null,null,null,null,null,null,null,NA,180,200,260,200,36000,52000,"[1,3]"
NA,canvas-keyboard-response,270,181823,0.0-6.0-0.44,5018,NA,NA,NA,NA,pre trial waiting period,null,null,NA,NA,critical,d,c,t,220.0396,154.6796,164,240,240,164,spektor,0.14,w,240,164,164,240,220.0396,154.6796,39360,39360,34035.6388,dc,null,null,null,null,null,null,"[1,2]"
NA,canvas-keyboard-response,271,181982,0.0-6.0-1.44,5018,NA,NA,NA,NA,clear_screen,null,null,NA,NA,critical,d,c,t,220.0396,154.6796,164,240,240,164,spektor,0.14,w,240,164,164,240,220.0396,154.6796,39360,39360,34035.6388,dc,null,null,null,null,null,null,"[1,2]"
NA,canvas-keyboard-response,272,183332,0.0-6.0-2.44,5018,NA,NA,NA,NA,rectangles,null,null,NA,NA,critical,d,c,t,220.0396,154.6796,164,240,240,164,spektor,0.14,w,240,164,164,240,220.0396,154.6796,39360,39360,34035.6388,dc,null,null,null,null,null,null,"[1,2]"
NA,canvas-keyboard-response,273,183504,0.0-6.0-3.44,5018,NA,NA,NA,NA,clear_screen,null,null,NA,NA,critical,d,c,t,220.0396,154.6796,164,240,240,164,spektor,0.14,w,240,164,164,240,220.0396,154.6796,39360,39360,34035.6388,dc,null,null,null,null,null,null,"[1,2]"
NA,canvas-keyboard-response,274,184509,0.0-6.0-4.44,5018,NA,NA,NA,NA,make choice,982,1,NA,NA,critical,d,c,t,220.0396,154.6796,164,240,240,164,spektor,0.14,w,240,164,164,240,220.0396,154.6796,39360,39360,34035.6388,dc,null,null,null,null,null,null,"[1,2]"
NA,canvas-keyboard-response,275,184680,0.0-6.0-5.44,5018,NA,NA,NA,NA,clear_screen,null,null,NA,NA,critical,d,c,t,220.0396,154.6796,164,240,240,164,spektor,0.14,w,240,164,164,240,220.0396,154.6796,39360,39360,34035.6388,dc,null,null,null,null,null,null,"[1,2]"
NA,canvas-keyboard-response,276,184898,0.0-6.0-0.45,5018,NA,NA,NA,NA,pre trial waiting period,null,null,NA,NA,catch,sh,sw,l,235,145,165,177,211,275,trueblood,null,null,null,null,null,null,null,null,null,null,null,NA,180,200,260,200,36000,52000,"[1,3]"
NA,canvas-keyboard-response,277,185059,0.0-6.0-1.45,5018,NA,NA,NA,NA,clear_screen,null,null,NA,NA,catch,sh,sw,l,235,145,165,177,211,275,trueblood,null,null,null,null,null,null,null,null,null,null,null,NA,180,200,260,200,36000,52000,"[1,3]"
NA,canvas-keyboard-response,278,186405,0.0-6.0-2.45,5018,NA,NA,NA,NA,rectangles,null,null,NA,NA,catch,sh,sw,l,235,145,165,177,211,275,trueblood,null,null,null,null,null,null,null,null,null,null,null,NA,180,200,260,200,36000,52000,"[1,3]"
NA,canvas-keyboard-response,279,186578,0.0-6.0-3.45,5018,NA,NA,NA,NA,clear_screen,null,null,NA,NA,catch,sh,sw,l,235,145,165,177,211,275,trueblood,null,null,null,null,null,null,null,null,null,null,null,NA,180,200,260,200,36000,52000,"[1,3]"
NA,canvas-keyboard-response,280,189373,0.0-6.0-4.45,5018,NA,NA,NA,NA,make choice,2774,1,NA,NA,catch,sh,sw,l,235,145,165,177,211,275,trueblood,null,null,null,null,null,null,null,null,null,null,null,NA,180,200,260,200,36000,52000,"[1,3]"
NA,canvas-keyboard-response,281,189543,0.0-6.0-5.45,5018,NA,NA,NA,NA,clear_screen,null,null,NA,NA,catch,sh,sw,l,235,145,165,177,211,275,trueblood,null,null,null,null,null,null,null,null,null,null,null,NA,180,200,260,200,36000,52000,"[1,3]"
NA,canvas-keyboard-response,282,189759,0.0-6.0-0.46,5018,NA,NA,NA,NA,pre trial waiting period,null,null,NA,NA,critical,c,t,d,164,240,240,164,232.8713,160.6713,trueblood,0.05,w,240,164,164,240,232.8713,160.6713,39360,39360,37415.7294,dc,null,null,null,null,null,null,"[3,1]"
NA,canvas-keyboard-response,283,189919,0.0-6.0-1.46,5018,NA,NA,NA,NA,clear_screen,null,null,NA,NA,critical,c,t,d,164,240,240,164,232.8713,160.6713,trueblood,0.05,w,240,164,164,240,232.8713,160.6713,39360,39360,37415.7294,dc,null,null,null,null,null,null,"[3,1]"
NA,canvas-keyboard-response,284,191266,0.0-6.0-2.46,5018,NA,NA,NA,NA,rectangles,null,null,NA,NA,critical,c,t,d,164,240,240,164,232.8713,160.6713,trueblood,0.05,w,240,164,164,240,232.8713,160.6713,39360,39360,37415.7294,dc,null,null,null,null,null,null,"[3,1]"
NA,canvas-keyboard-response,285,191438,0.0-6.0-3.46,5018,NA,NA,NA,NA,clear_screen,null,null,NA,NA,critical,c,t,d,164,240,240,164,232.8713,160.6713,trueblood,0.05,w,240,164,164,240,232.8713,160.6713,39360,39360,37415.7294,dc,null,null,null,null,null,null,"[3,1]"
NA,canvas-keyboard-response,286,192533,0.0-6.0-4.46,5018,NA,NA,NA,NA,make choice,1073,1,NA,NA,critical,c,t,d,164,240,240,164,232.8713,160.6713,trueblood,0.05,w,240,164,164,240,232.8713,160.6713,39360,39360,37415.7294,dc,null,null,null,null,null,null,"[3,1]"
NA,canvas-keyboard-response,287,192706,0.0-6.0-5.46,5018,NA,NA,NA,NA,clear_screen,null,null,NA,NA,critical,c,t,d,164,240,240,164,232.8713,160.6713,trueblood,0.05,w,240,164,164,240,232.8713,160.6713,39360,39360,37415.7294,dc,null,null,null,null,null,null,"[3,1]"
NA,canvas-keyboard-response,288,192922,0.0-6.0-0.47,5018,NA,NA,NA,NA,pre trial waiting period,null,null,NA,NA,critical,c,d,t,240,164,160.6713,232.8713,164,240,trueblood,0.05,h,164,240,240,164,160.6713,232.8713,39360,39360,37415.7294,tc,null,null,null,null,null,null,"[3,1]"
NA,canvas-keyboard-response,289,193080,0.0-6.0-1.47,5018,NA,NA,NA,NA,clear_screen,null,null,NA,NA,critical,c,d,t,240,164,160.6713,232.8713,164,240,trueblood,0.05,h,164,240,240,164,160.6713,232.8713,39360,39360,37415.7294,tc,null,null,null,null,null,null,"[3,1]"
NA,canvas-keyboard-response,290,194433,0.0-6.0-2.47,5018,NA,NA,NA,NA,rectangles,null,null,NA,NA,critical,c,d,t,240,164,160.6713,232.8713,164,240,trueblood,0.05,h,164,240,240,164,160.6713,232.8713,39360,39360,37415.7294,tc,null,null,null,null,null,null,"[3,1]"
NA,canvas-keyboard-response,291,194604,0.0-6.0-3.47,5018,NA,NA,NA,NA,clear_screen,null,null,NA,NA,critical,c,d,t,240,164,160.6713,232.8713,164,240,trueblood,0.05,h,164,240,240,164,160.6713,232.8713,39360,39360,37415.7294,tc,null,null,null,null,null,null,"[3,1]"
NA,canvas-keyboard-response,292,195357,0.0-6.0-4.47,5018,NA,NA,NA,NA,make choice,729,1,NA,NA,critical,c,d,t,240,164,160.6713,232.8713,164,240,trueblood,0.05,h,164,240,240,164,160.6713,232.8713,39360,39360,37415.7294,tc,null,null,null,null,null,null,"[3,1]"
NA,canvas-keyboard-response,293,195529,0.0-6.0-5.47,5018,NA,NA,NA,NA,clear_screen,null,null,NA,NA,critical,c,d,t,240,164,160.6713,232.8713,164,240,trueblood,0.05,h,164,240,240,164,160.6713,232.8713,39360,39360,37415.7294,tc,null,null,null,null,null,null,"[3,1]"
NA,canvas-keyboard-response,294,195745,0.0-6.0-0.48,5018,NA,NA,NA,NA,pre trial waiting period,null,null,NA,NA,critical,c,d,t,240,164,160.6713,232.8713,164,240,spektor,0.05,h,164,240,240,164,160.6713,232.8713,39360,39360,37415.7294,td,null,null,null,null,null,null,"[3,2]"
NA,canvas-keyboard-response,295,195905,0.0-6.0-1.48,5018,NA,NA,NA,NA,clear_screen,null,null,NA,NA,critical,c,d,t,240,164,160.6713,232.8713,164,240,spektor,0.05,h,164,240,240,164,160.6713,232.8713,39360,39360,37415.7294,td,null,null,null,null,null,null,"[3,2]"
NA,canvas-keyboard-response,296,197254,0.0-6.0-2.48,5018,NA,NA,NA,NA,rectangles,null,null,NA,NA,critical,c,d,t,240,164,160.6713,232.8713,164,240,spektor,0.05,h,164,240,240,164,160.6713,232.8713,39360,39360,37415.7294,td,null,null,null,null,null,null,"[3,2]"
NA,canvas-keyboard-response,297,197425,0.0-6.0-3.48,5018,NA,NA,NA,NA,clear_screen,null,null,NA,NA,critical,c,d,t,240,164,160.6713,232.8713,164,240,spektor,0.05,h,164,240,240,164,160.6713,232.8713,39360,39360,37415.7294,td,null,null,null,null,null,null,"[3,2]"
NA,canvas-keyboard-response,298,198108,0.0-6.0-4.48,5018,NA,NA,NA,NA,make choice,661,3,NA,NA,critical,c,d,t,240,164,160.6713,232.8713,164,240,spektor,0.05,h,164,240,240,164,160.6713,232.8713,39360,39360,37415.7294,td,null,null,null,null,null,null,"[3,2]"
NA,canvas-keyboard-response,299,198281,0.0-6.0-5.48,5018,NA,NA,NA,NA,clear_screen,null,null,NA,NA,critical,c,d,t,240,164,160.6713,232.8713,164,240,spektor,0.05,h,164,240,240,164,160.6713,232.8713,39360,39360,37415.7294,td,null,null,null,null,null,null,"[3,2]"
NA,canvas-keyboard-response,300,198497,0.0-6.0-0.49,5018,NA,NA,NA,NA,pre trial waiting period,null,null,NA,NA,catch,sh,sw,l,235,208,176,180,184,268,spektor,null,null,null,null,null,null,null,null,null,null,null,NA,180,200,260,200,36000,52000,"[1,3]"
NA,canvas-keyboard-response,301,198656,0.0-6.0-1.49,5018,NA,NA,NA,NA,clear_screen,null,null,NA,NA,catch,sh,sw,l,235,208,176,180,184,268,spektor,null,null,null,null,null,null,null,null,null,null,null,NA,180,200,260,200,36000,52000,"[1,3]"
NA,canvas-keyboard-response,302,200006,0.0-6.0-2.49,5018,NA,NA,NA,NA,rectangles,null,null,NA,NA,catch,sh,sw,l,235,208,176,180,184,268,spektor,null,null,null,null,null,null,null,null,null,null,null,NA,180,200,260,200,36000,52000,"[1,3]"
NA,canvas-keyboard-response,303,200177,0.0-6.0-3.49,5018,NA,NA,NA,NA,clear_screen,null,null,NA,NA,catch,sh,sw,l,235,208,176,180,184,268,spektor,null,null,null,null,null,null,null,null,null,null,null,NA,180,200,260,200,36000,52000,"[1,3]"
NA,canvas-keyboard-response,304,200588,0.0-6.0-4.49,5018,NA,NA,NA,NA,make choice,386,1,NA,NA,catch,sh,sw,l,235,208,176,180,184,268,spektor,null,null,null,null,null,null,null,null,null,null,null,NA,180,200,260,200,36000,52000,"[1,3]"
NA,canvas-keyboard-response,305,200761,0.0-6.0-5.49,5018,NA,NA,NA,NA,clear_screen,null,null,NA,NA,catch,sh,sw,l,235,208,176,180,184,268,spektor,null,null,null,null,null,null,null,null,null,null,null,NA,180,200,260,200,36000,52000,"[1,3]"
NA,canvas-keyboard-response,306,200978,0.0-6.0-0.50,5018,NA,NA,NA,NA,pre trial waiting period,null,null,NA,NA,critical,c,d,t,240,164,158.0083,227.1683,164,240,spektor,0.09,h,164,240,240,164,158.0083,227.1683,39360,39360,35894.4834,tc,null,null,null,null,null,null,"[3,1]"
NA,canvas-keyboard-response,307,201137,0.0-6.0-1.50,5018,NA,NA,NA,NA,clear_screen,null,null,NA,NA,critical,c,d,t,240,164,158.0083,227.1683,164,240,spektor,0.09,h,164,240,240,164,158.0083,227.1683,39360,39360,35894.4834,tc,null,null,null,null,null,null,"[3,1]"
NA,canvas-keyboard-response,308,202485,0.0-6.0-2.50,5018,NA,NA,NA,NA,rectangles,null,null,NA,NA,critical,c,d,t,240,164,158.0083,227.1683,164,240,spektor,0.09,h,164,240,240,164,158.0083,227.1683,39360,39360,35894.4834,tc,null,null,null,null,null,null,"[3,1]"
NA,canvas-keyboard-response,309,202658,0.0-6.0-3.50,5018,NA,NA,NA,NA,clear_screen,null,null,NA,NA,critical,c,d,t,240,164,158.0083,227.1683,164,240,spektor,0.09,h,164,240,240,164,158.0083,227.1683,39360,39360,35894.4834,tc,null,null,null,null,null,null,"[3,1]"
NA,canvas-keyboard-response,310,203605,0.0-6.0-4.50,5018,NA,NA,NA,NA,make choice,923,3,NA,NA,critical,c,d,t,240,164,158.0083,227.1683,164,240,spektor,0.09,h,164,240,240,164,158.0083,227.1683,39360,39360,35894.4834,tc,null,null,null,null,null,null,"[3,1]"
NA,canvas-keyboard-response,311,203779,0.0-6.0-5.50,5018,NA,NA,NA,NA,clear_screen,null,null,NA,NA,critical,c,d,t,240,164,158.0083,227.1683,164,240,spektor,0.09,h,164,240,240,164,158.0083,227.1683,39360,39360,35894.4834,tc,null,null,null,null,null,null,"[3,1]"
NA,canvas-keyboard-response,312,204011,0.0-6.0-0.51,5018,NA,NA,NA,NA,pre trial waiting period,null,null,NA,NA,critical,c,d,t,164,240,227.1683,158.0083,240,164,spektor,0.09,w,240,164,164,240,227.1683,158.0083,39360,39360,35894.4834,tc,null,null,null,null,null,null,"[3,1]"
NA,canvas-keyboard-response,313,204172,0.0-6.0-1.51,5018,NA,NA,NA,NA,clear_screen,null,null,NA,NA,critical,c,d,t,164,240,227.1683,158.0083,240,164,spektor,0.09,w,240,164,164,240,227.1683,158.0083,39360,39360,35894.4834,tc,null,null,null,null,null,null,"[3,1]"
NA,canvas-keyboard-response,314,205535,0.0-6.0-2.51,5018,NA,NA,NA,NA,rectangles,null,null,NA,NA,critical,c,d,t,164,240,227.1683,158.0083,240,164,spektor,0.09,w,240,164,164,240,227.1683,158.0083,39360,39360,35894.4834,tc,null,null,null,null,null,null,"[3,1]"
NA,canvas-keyboard-response,315,205708,0.0-6.0-3.51,5018,NA,NA,NA,NA,clear_screen,null,null,NA,NA,critical,c,d,t,164,240,227.1683,158.0083,240,164,spektor,0.09,w,240,164,164,240,227.1683,158.0083,39360,39360,35894.4834,tc,null,null,null,null,null,null,"[3,1]"
NA,canvas-keyboard-response,316,206110,0.0-6.0-4.51,5018,NA,NA,NA,NA,make choice,376,1,NA,NA,critical,c,d,t,164,240,227.1683,158.0083,240,164,spektor,0.09,w,240,164,164,240,227.1683,158.0083,39360,39360,35894.4834,tc,null,null,null,null,null,null,"[3,1]"
NA,canvas-keyboard-response,317,206283,0.0-6.0-5.51,5018,NA,NA,NA,NA,clear_screen,null,null,NA,NA,critical,c,d,t,164,240,227.1683,158.0083,240,164,spektor,0.09,w,240,164,164,240,227.1683,158.0083,39360,39360,35894.4834,tc,null,null,null,null,null,null,"[3,1]"
NA,canvas-keyboard-response,318,206500,0.0-6.0-0.52,5018,NA,NA,NA,NA,pre trial waiting period,null,null,NA,NA,critical,c,d,t,164,240,240,164,240,164,spektor,0,w,240,164,164,240,240,164,39360,39360,39360,td,null,null,null,null,null,null,"[3,2]"
NA,canvas-keyboard-response,319,206660,0.0-6.0-1.52,5018,NA,NA,NA,NA,clear_screen,null,null,NA,NA,critical,c,d,t,164,240,240,164,240,164,spektor,0,w,240,164,164,240,240,164,39360,39360,39360,td,null,null,null,null,null,null,"[3,2]"
NA,canvas-keyboard-response,320,208011,0.0-6.0-2.52,5018,NA,NA,NA,NA,rectangles,null,null,NA,NA,critical,c,d,t,164,240,240,164,240,164,spektor,0,w,240,164,164,240,240,164,39360,39360,39360,td,null,null,null,null,null,null,"[3,2]"
NA,canvas-keyboard-response,321,208184,0.0-6.0-3.52,5018,NA,NA,NA,NA,clear_screen,null,null,NA,NA,critical,c,d,t,164,240,240,164,240,164,spektor,0,w,240,164,164,240,240,164,39360,39360,39360,td,null,null,null,null,null,null,"[3,2]"
NA,canvas-keyboard-response,322,209100,0.0-6.0-4.52,5018,NA,NA,NA,NA,make choice,891,2,NA,NA,critical,c,d,t,164,240,240,164,240,164,spektor,0,w,240,164,164,240,240,164,39360,39360,39360,td,null,null,null,null,null,null,"[3,2]"
NA,canvas-keyboard-response,323,209276,0.0-6.0-5.52,5018,NA,NA,NA,NA,clear_screen,null,null,NA,NA,critical,c,d,t,164,240,240,164,240,164,spektor,0,w,240,164,164,240,240,164,39360,39360,39360,td,null,null,null,null,null,null,"[3,2]"
NA,canvas-keyboard-response,324,209493,0.0-6.0-0.53,5018,NA,NA,NA,NA,pre trial waiting period,null,null,NA,NA,critical,t,d,c,240,164,220.0396,154.6796,164,240,trueblood,0.14,w,240,164,164,240,220.0396,154.6796,39360,39360,34035.6388,td,null,null,null,null,null,null,"[1,2]"
NA,canvas-keyboard-response,325,209653,0.0-6.0-1.53,5018,NA,NA,NA,NA,clear_screen,null,null,NA,NA,critical,t,d,c,240,164,220.0396,154.6796,164,240,trueblood,0.14,w,240,164,164,240,220.0396,154.6796,39360,39360,34035.6388,td,null,null,null,null,null,null,"[1,2]"
NA,canvas-keyboard-response,326,211002,0.0-6.0-2.53,5018,NA,NA,NA,NA,rectangles,null,null,NA,NA,critical,t,d,c,240,164,220.0396,154.6796,164,240,trueblood,0.14,w,240,164,164,240,220.0396,154.6796,39360,39360,34035.6388,td,null,null,null,null,null,null,"[1,2]"
NA,canvas-keyboard-response,327,211175,0.0-6.0-3.53,5018,NA,NA,NA,NA,clear_screen,null,null,NA,NA,critical,t,d,c,240,164,220.0396,154.6796,164,240,trueblood,0.14,w,240,164,164,240,220.0396,154.6796,39360,39360,34035.6388,td,null,null,null,null,null,null,"[1,2]"
NA,canvas-keyboard-response,328,211683,0.0-6.0-4.53,5018,NA,NA,NA,NA,make choice,484,1,NA,NA,critical,t,d,c,240,164,220.0396,154.6796,164,240,trueblood,0.14,w,240,164,164,240,220.0396,154.6796,39360,39360,34035.6388,td,null,null,null,null,null,null,"[1,2]"
NA,canvas-keyboard-response,329,211853,0.0-6.0-5.53,5018,NA,NA,NA,NA,clear_screen,null,null,NA,NA,critical,t,d,c,240,164,220.0396,154.6796,164,240,trueblood,0.14,w,240,164,164,240,220.0396,154.6796,39360,39360,34035.6388,td,null,null,null,null,null,null,"[1,2]"
NA,canvas-keyboard-response,330,212070,0.0-6.0-0.54,5018,NA,NA,NA,NA,pre trial waiting period,null,null,NA,NA,catch,sw,sh,l,180,200,179,207,163,264,spektor,null,null,null,null,null,null,null,null,null,null,null,NA,180,200,260,200,36000,52000,"[1,3]"
NA,canvas-keyboard-response,331,212230,0.0-6.0-1.54,5018,NA,NA,NA,NA,clear_screen,null,null,NA,NA,catch,sw,sh,l,180,200,179,207,163,264,spektor,null,null,null,null,null,null,null,null,null,null,null,NA,180,200,260,200,36000,52000,"[1,3]"
NA,canvas-keyboard-response,332,213581,0.0-6.0-2.54,5018,NA,NA,NA,NA,rectangles,null,null,NA,NA,catch,sw,sh,l,180,200,179,207,163,264,spektor,null,null,null,null,null,null,null,null,null,null,null,NA,180,200,260,200,36000,52000,"[1,3]"
NA,canvas-keyboard-response,333,213757,0.0-6.0-3.54,5018,NA,NA,NA,NA,clear_screen,null,null,NA,NA,catch,sw,sh,l,180,200,179,207,163,264,spektor,null,null,null,null,null,null,null,null,null,null,null,NA,180,200,260,200,36000,52000,"[1,3]"
NA,canvas-keyboard-response,334,214476,0.0-6.0-4.54,5018,NA,NA,NA,NA,make choice,694,3,NA,NA,catch,sw,sh,l,180,200,179,207,163,264,spektor,null,null,null,null,null,null,null,null,null,null,null,NA,180,200,260,200,36000,52000,"[1,3]"
NA,canvas-keyboard-response,335,214651,0.0-6.0-5.54,5018,NA,NA,NA,NA,clear_screen,null,null,NA,NA,catch,sw,sh,l,180,200,179,207,163,264,spektor,null,null,null,null,null,null,null,null,null,null,null,NA,180,200,260,200,36000,52000,"[1,3]"
NA,canvas-keyboard-response,336,214869,0.0-6.0-0.55,5018,NA,NA,NA,NA,pre trial waiting period,null,null,NA,NA,catch,l,sw,sh,280,171,151,183,221,208,trueblood,null,null,null,null,null,null,null,null,null,null,null,NA,180,200,260,200,36000,52000,"[1,3]"
NA,canvas-keyboard-response,337,215029,0.0-6.0-1.55,5018,NA,NA,NA,NA,clear_screen,null,null,NA,NA,catch,l,sw,sh,280,171,151,183,221,208,trueblood,null,null,null,null,null,null,null,null,null,null,null,NA,180,200,260,200,36000,52000,"[1,3]"
NA,canvas-keyboard-response,338,216379,0.0-6.0-2.55,5018,NA,NA,NA,NA,rectangles,null,null,NA,NA,catch,l,sw,sh,280,171,151,183,221,208,trueblood,null,null,null,null,null,null,null,null,null,null,null,NA,180,200,260,200,36000,52000,"[1,3]"
NA,canvas-keyboard-response,339,216553,0.0-6.0-3.55,5018,NA,NA,NA,NA,clear_screen,null,null,NA,NA,catch,l,sw,sh,280,171,151,183,221,208,trueblood,null,null,null,null,null,null,null,null,null,null,null,NA,180,200,260,200,36000,52000,"[1,3]"
NA,canvas-keyboard-response,340,217509,0.0-6.0-4.55,5018,NA,NA,NA,NA,make choice,934,3,NA,NA,catch,l,sw,sh,280,171,151,183,221,208,trueblood,null,null,null,null,null,null,null,null,null,null,null,NA,180,200,260,200,36000,52000,"[1,3]"
NA,canvas-keyboard-response,341,217683,0.0-6.0-5.55,5018,NA,NA,NA,NA,clear_screen,null,null,NA,NA,catch,l,sw,sh,280,171,151,183,221,208,trueblood,null,null,null,null,null,null,null,null,null,null,null,NA,180,200,260,200,36000,52000,"[1,3]"
NA,canvas-keyboard-response,342,217901,0.0-6.0-0.56,5018,NA,NA,NA,NA,pre trial waiting period,null,null,NA,NA,catch,sw,sh,l,180,200,163,159,207,239,spektor,null,null,null,null,null,null,null,null,null,null,null,NA,180,200,260,200,36000,52000,"[2,3]"
NA,canvas-keyboard-response,343,218059,0.0-6.0-1.56,5018,NA,NA,NA,NA,clear_screen,null,null,NA,NA,catch,sw,sh,l,180,200,163,159,207,239,spektor,null,null,null,null,null,null,null,null,null,null,null,NA,180,200,260,200,36000,52000,"[2,3]"
NA,canvas-keyboard-response,344,219410,0.0-6.0-2.56,5018,NA,NA,NA,NA,rectangles,null,null,NA,NA,catch,sw,sh,l,180,200,163,159,207,239,spektor,null,null,null,null,null,null,null,null,null,null,null,NA,180,200,260,200,36000,52000,"[2,3]"
NA,canvas-keyboard-response,345,219583,0.0-6.0-3.56,5018,NA,NA,NA,NA,clear_screen,null,null,NA,NA,catch,sw,sh,l,180,200,163,159,207,239,spektor,null,null,null,null,null,null,null,null,null,null,null,NA,180,200,260,200,36000,52000,"[2,3]"
NA,canvas-keyboard-response,346,220156,0.0-6.0-4.56,5018,NA,NA,NA,NA,make choice,550,3,NA,NA,catch,sw,sh,l,180,200,163,159,207,239,spektor,null,null,null,null,null,null,null,null,null,null,null,NA,180,200,260,200,36000,52000,"[2,3]"
NA,canvas-keyboard-response,347,220330,0.0-6.0-5.56,5018,NA,NA,NA,NA,clear_screen,null,null,NA,NA,catch,sw,sh,l,180,200,163,159,207,239,spektor,null,null,null,null,null,null,null,null,null,null,null,NA,180,200,260,200,36000,52000,"[2,3]"
NA,canvas-keyboard-response,348,220547,0.0-6.0-0.57,5018,NA,NA,NA,NA,pre trial waiting period,null,null,NA,NA,critical,t,c,d,164,240,240,164,164,240,trueblood,0,h,164,240,240,164,164,240,39360,39360,39360,td,null,null,null,null,null,null,"[1,3]"
NA,canvas-keyboard-response,349,220708,0.0-6.0-1.57,5018,NA,NA,NA,NA,clear_screen,null,null,NA,NA,critical,t,c,d,164,240,240,164,164,240,trueblood,0,h,164,240,240,164,164,240,39360,39360,39360,td,null,null,null,null,null,null,"[1,3]"
NA,canvas-keyboard-response,350,222058,0.0-6.0-2.57,5018,NA,NA,NA,NA,rectangles,null,null,NA,NA,critical,t,c,d,164,240,240,164,164,240,trueblood,0,h,164,240,240,164,164,240,39360,39360,39360,td,null,null,null,null,null,null,"[1,3]"
NA,canvas-keyboard-response,351,222230,0.0-6.0-3.57,5018,NA,NA,NA,NA,clear_screen,null,null,NA,NA,critical,t,c,d,164,240,240,164,164,240,trueblood,0,h,164,240,240,164,164,240,39360,39360,39360,td,null,null,null,null,null,null,"[1,3]"
NA,canvas-keyboard-response,352,223292,0.0-6.0-4.57,5018,NA,NA,NA,NA,make choice,1037,3,NA,NA,critical,t,c,d,164,240,240,164,164,240,trueblood,0,h,164,240,240,164,164,240,39360,39360,39360,td,null,null,null,null,null,null,"[1,3]"
NA,canvas-keyboard-response,353,223467,0.0-6.0-5.57,5018,NA,NA,NA,NA,clear_screen,null,null,NA,NA,critical,t,c,d,164,240,240,164,164,240,trueblood,0,h,164,240,240,164,164,240,39360,39360,39360,td,null,null,null,null,null,null,"[1,3]"
NA,canvas-keyboard-response,354,223687,0.0-6.0-0.58,5018,NA,NA,NA,NA,pre trial waiting period,null,null,NA,NA,catch,sh,sw,l,182,185,143,189,253,228,trueblood,null,null,null,null,null,null,null,null,null,null,null,NA,180,200,260,200,36000,52000,"[2,3]"
NA,canvas-keyboard-response,355,223846,0.0-6.0-1.58,5018,NA,NA,NA,NA,clear_screen,null,null,NA,NA,catch,sh,sw,l,182,185,143,189,253,228,trueblood,null,null,null,null,null,null,null,null,null,null,null,NA,180,200,260,200,36000,52000,"[2,3]"
NA,canvas-keyboard-response,356,225198,0.0-6.0-2.58,5018,NA,NA,NA,NA,rectangles,null,null,NA,NA,catch,sh,sw,l,182,185,143,189,253,228,trueblood,null,null,null,null,null,null,null,null,null,null,null,NA,180,200,260,200,36000,52000,"[2,3]"
NA,canvas-keyboard-response,357,225373,0.0-6.0-3.58,5018,NA,NA,NA,NA,clear_screen,null,null,NA,NA,catch,sh,sw,l,182,185,143,189,253,228,trueblood,null,null,null,null,null,null,null,null,null,null,null,NA,180,200,260,200,36000,52000,"[2,3]"
NA,canvas-keyboard-response,358,226076,0.0-6.0-4.58,5018,NA,NA,NA,NA,make choice,674,3,NA,NA,catch,sh,sw,l,182,185,143,189,253,228,trueblood,null,null,null,null,null,null,null,null,null,null,null,NA,180,200,260,200,36000,52000,"[2,3]"
NA,canvas-keyboard-response,359,226251,0.0-6.0-5.58,5018,NA,NA,NA,NA,clear_screen,null,null,NA,NA,catch,sh,sw,l,182,185,143,189,253,228,trueblood,null,null,null,null,null,null,null,null,null,null,null,NA,180,200,260,200,36000,52000,"[2,3]"
NA,canvas-keyboard-response,360,226471,0.0-6.0-0.59,5018,NA,NA,NA,NA,pre trial waiting period,null,null,NA,NA,catch,sh,l,sw,196,161,239,283,196,206,trueblood,null,null,null,null,null,null,null,null,null,null,null,NA,180,200,260,200,36000,52000,"[2,3]"
NA,canvas-keyboard-response,361,226630,0.0-6.0-1.59,5018,NA,NA,NA,NA,clear_screen,null,null,NA,NA,catch,sh,l,sw,196,161,239,283,196,206,trueblood,null,null,null,null,null,null,null,null,null,null,null,NA,180,200,260,200,36000,52000,"[2,3]"
NA,canvas-keyboard-response,362,227982,0.0-6.0-2.59,5018,NA,NA,NA,NA,rectangles,null,null,NA,NA,catch,sh,l,sw,196,161,239,283,196,206,trueblood,null,null,null,null,null,null,null,null,null,null,null,NA,180,200,260,200,36000,52000,"[2,3]"
NA,canvas-keyboard-response,363,228157,0.0-6.0-3.59,5018,NA,NA,NA,NA,clear_screen,null,null,NA,NA,catch,sh,l,sw,196,161,239,283,196,206,trueblood,null,null,null,null,null,null,null,null,null,null,null,NA,180,200,260,200,36000,52000,"[2,3]"
NA,canvas-keyboard-response,364,228549,0.0-6.0-4.59,5018,NA,NA,NA,NA,make choice,367,2,NA,NA,catch,sh,l,sw,196,161,239,283,196,206,trueblood,null,null,null,null,null,null,null,null,null,null,null,NA,180,200,260,200,36000,52000,"[2,3]"
NA,canvas-keyboard-response,365,228721,0.0-6.0-5.59,5018,NA,NA,NA,NA,clear_screen,null,null,NA,NA,catch,sh,l,sw,196,161,239,283,196,206,trueblood,null,null,null,null,null,null,null,null,null,null,null,NA,180,200,260,200,36000,52000,"[2,3]"
NA,canvas-keyboard-response,366,228939,0.0-6.0-0.60,5018,NA,NA,NA,NA,pre trial waiting period,null,null,NA,NA,critical,d,c,t,158.0083,227.1683,240,164,164,240,trueblood,0.09,h,164,240,240,164,158.0083,227.1683,39360,39360,35894.4834,tc,null,null,null,null,null,null,"[3,2]"
NA,canvas-keyboard-response,367,229099,0.0-6.0-1.60,5018,NA,NA,NA,NA,clear_screen,null,null,NA,NA,critical,d,c,t,158.0083,227.1683,240,164,164,240,trueblood,0.09,h,164,240,240,164,158.0083,227.1683,39360,39360,35894.4834,tc,null,null,null,null,null,null,"[3,2]"
NA,canvas-keyboard-response,368,230451,0.0-6.0-2.60,5018,NA,NA,NA,NA,rectangles,null,null,NA,NA,critical,d,c,t,158.0083,227.1683,240,164,164,240,trueblood,0.09,h,164,240,240,164,158.0083,227.1683,39360,39360,35894.4834,tc,null,null,null,null,null,null,"[3,2]"
NA,canvas-keyboard-response,369,230626,0.0-6.0-3.60,5018,NA,NA,NA,NA,clear_screen,null,null,NA,NA,critical,d,c,t,158.0083,227.1683,240,164,164,240,trueblood,0.09,h,164,240,240,164,158.0083,227.1683,39360,39360,35894.4834,tc,null,null,null,null,null,null,"[3,2]"
NA,canvas-keyboard-response,370,231076,0.0-6.0-4.60,5018,NA,NA,NA,NA,make choice,426,2,NA,NA,critical,d,c,t,158.0083,227.1683,240,164,164,240,trueblood,0.09,h,164,240,240,164,158.0083,227.1683,39360,39360,35894.4834,tc,null,null,null,null,null,null,"[3,2]"
NA,canvas-keyboard-response,371,231250,0.0-6.0-5.60,5018,NA,NA,NA,NA,clear_screen,null,null,NA,NA,critical,d,c,t,158.0083,227.1683,240,164,164,240,trueblood,0.09,h,164,240,240,164,158.0083,227.1683,39360,39360,35894.4834,tc,null,null,null,null,null,null,"[3,2]"
NA,canvas-keyboard-response,372,231470,0.0-6.0-0.61,5018,NA,NA,NA,NA,pre trial waiting period,null,null,NA,NA,catch,sw,sh,l,180,200,224,201,230,247,trueblood,null,null,null,null,null,null,null,null,null,null,null,NA,180,200,260,200,36000,52000,"[1,3]"
NA,canvas-keyboard-response,373,231628,0.0-6.0-1.61,5018,NA,NA,NA,NA,clear_screen,null,null,NA,NA,catch,sw,sh,l,180,200,224,201,230,247,trueblood,null,null,null,null,null,null,null,null,null,null,null,NA,180,200,260,200,36000,52000,"[1,3]"
NA,canvas-keyboard-response,374,232980,0.0-6.0-2.61,5018,NA,NA,NA,NA,rectangles,null,null,NA,NA,catch,sw,sh,l,180,200,224,201,230,247,trueblood,null,null,null,null,null,null,null,null,null,null,null,NA,180,200,260,200,36000,52000,"[1,3]"
NA,canvas-keyboard-response,375,233156,0.0-6.0-3.61,5018,NA,NA,NA,NA,clear_screen,null,null,NA,NA,catch,sw,sh,l,180,200,224,201,230,247,trueblood,null,null,null,null,null,null,null,null,null,null,null,NA,180,200,260,200,36000,52000,"[1,3]"
NA,canvas-keyboard-response,376,233532,0.0-6.0-4.61,5018,NA,NA,NA,NA,make choice,349,3,NA,NA,catch,sw,sh,l,180,200,224,201,230,247,trueblood,null,null,null,null,null,null,null,null,null,null,null,NA,180,200,260,200,36000,52000,"[1,3]"
NA,canvas-keyboard-response,377,233706,0.0-6.0-5.61,5018,NA,NA,NA,NA,clear_screen,null,null,NA,NA,catch,sw,sh,l,180,200,224,201,230,247,trueblood,null,null,null,null,null,null,null,null,null,null,null,NA,180,200,260,200,36000,52000,"[1,3]"
NA,canvas-keyboard-response,378,233924,0.0-6.0-0.62,5018,NA,NA,NA,NA,pre trial waiting period,null,null,NA,NA,catch,l,sh,sw,287,193,203,176,204,187,spektor,null,null,null,null,null,null,null,null,null,null,null,NA,180,200,260,200,36000,52000,"[1,2]"
NA,canvas-keyboard-response,379,234083,0.0-6.0-1.62,5018,NA,NA,NA,NA,clear_screen,null,null,NA,NA,catch,l,sh,sw,287,193,203,176,204,187,spektor,null,null,null,null,null,null,null,null,null,null,null,NA,180,200,260,200,36000,52000,"[1,2]"
NA,canvas-keyboard-response,380,235435,0.0-6.0-2.62,5018,NA,NA,NA,NA,rectangles,null,null,NA,NA,catch,l,sh,sw,287,193,203,176,204,187,spektor,null,null,null,null,null,null,null,null,null,null,null,NA,180,200,260,200,36000,52000,"[1,2]"
NA,canvas-keyboard-response,381,235608,0.0-6.0-3.62,5018,NA,NA,NA,NA,clear_screen,null,null,NA,NA,catch,l,sh,sw,287,193,203,176,204,187,spektor,null,null,null,null,null,null,null,null,null,null,null,NA,180,200,260,200,36000,52000,"[1,2]"
NA,canvas-keyboard-response,382,235989,0.0-6.0-4.62,5018,NA,NA,NA,NA,make choice,336,1,NA,NA,catch,l,sh,sw,287,193,203,176,204,187,spektor,null,null,null,null,null,null,null,null,null,null,null,NA,180,200,260,200,36000,52000,"[1,2]"
NA,canvas-keyboard-response,383,236177,0.0-6.0-5.62,5018,NA,NA,NA,NA,clear_screen,null,null,NA,NA,catch,l,sh,sw,287,193,203,176,204,187,spektor,null,null,null,null,null,null,null,null,null,null,null,NA,180,200,260,200,36000,52000,"[1,2]"
NA,canvas-keyboard-response,384,236399,0.0-6.0-0.63,5018,NA,NA,NA,NA,pre trial waiting period,null,null,NA,NA,catch,sh,l,sw,193,178,228,170,206,173,spektor,null,null,null,null,null,null,null,null,null,null,null,NA,180,200,260,200,36000,52000,"[1,2]"
NA,canvas-keyboard-response,385,236559,0.0-6.0-1.63,5018,NA,NA,NA,NA,clear_screen,null,null,NA,NA,catch,sh,l,sw,193,178,228,170,206,173,spektor,null,null,null,null,null,null,null,null,null,null,null,NA,180,200,260,200,36000,52000,"[1,2]"
NA,canvas-keyboard-response,386,237912,0.0-6.0-2.63,5018,NA,NA,NA,NA,rectangles,null,null,NA,NA,catch,sh,l,sw,193,178,228,170,206,173,spektor,null,null,null,null,null,null,null,null,null,null,null,NA,180,200,260,200,36000,52000,"[1,2]"
NA,canvas-keyboard-response,387,238088,0.0-6.0-3.63,5018,NA,NA,NA,NA,clear_screen,null,null,NA,NA,catch,sh,l,sw,193,178,228,170,206,173,spektor,null,null,null,null,null,null,null,null,null,null,null,NA,180,200,260,200,36000,52000,"[1,2]"
NA,canvas-keyboard-response,388,238788,0.0-6.0-4.63,5018,NA,NA,NA,NA,make choice,673,2,NA,NA,catch,sh,l,sw,193,178,228,170,206,173,spektor,null,null,null,null,null,null,null,null,null,null,null,NA,180,200,260,200,36000,52000,"[1,2]"
NA,canvas-keyboard-response,389,238966,0.0-6.0-5.63,5018,NA,NA,NA,NA,clear_screen,null,null,NA,NA,catch,sh,l,sw,193,178,228,170,206,173,spektor,null,null,null,null,null,null,null,null,null,null,null,NA,180,200,260,200,36000,52000,"[1,2]"
NA,canvas-keyboard-response,390,239187,0.0-6.0-0.64,5018,NA,NA,NA,NA,pre trial waiting period,null,null,NA,NA,critical,d,t,c,240,164,240,164,164,240,spektor,0,w,240,164,164,240,240,164,39360,39360,39360,tc,null,null,null,null,null,null,"[2,3]"
NA,canvas-keyboard-response,391,239347,0.0-6.0-1.64,5018,NA,NA,NA,NA,clear_screen,null,null,NA,NA,critical,d,t,c,240,164,240,164,164,240,spektor,0,w,240,164,164,240,240,164,39360,39360,39360,tc,null,null,null,null,null,null,"[2,3]"
NA,canvas-keyboard-response,392,240701,0.0-6.0-2.64,5018,NA,NA,NA,NA,rectangles,null,null,NA,NA,critical,d,t,c,240,164,240,164,164,240,spektor,0,w,240,164,164,240,240,164,39360,39360,39360,tc,null,null,null,null,null,null,"[2,3]"
NA,canvas-keyboard-response,393,240877,0.0-6.0-3.64,5018,NA,NA,NA,NA,clear_screen,null,null,NA,NA,critical,d,t,c,240,164,240,164,164,240,spektor,0,w,240,164,164,240,240,164,39360,39360,39360,tc,null,null,null,null,null,null,"[2,3]"
NA,canvas-keyboard-response,394,242108,0.0-6.0-4.64,5018,NA,NA,NA,NA,make choice,1206,2,NA,NA,critical,d,t,c,240,164,240,164,164,240,spektor,0,w,240,164,164,240,240,164,39360,39360,39360,tc,null,null,null,null,null,null,"[2,3]"
NA,canvas-keyboard-response,395,242285,0.0-6.0-5.64,5018,NA,NA,NA,NA,clear_screen,null,null,NA,NA,critical,d,t,c,240,164,240,164,164,240,spektor,0,w,240,164,164,240,240,164,39360,39360,39360,tc,null,null,null,null,null,null,"[2,3]"
NA,canvas-keyboard-response,396,242505,0.0-6.0-0.65,5018,NA,NA,NA,NA,pre trial waiting period,null,null,NA,NA,catch,sh,sw,l,173,158,151,174,234,237,trueblood,null,null,null,null,null,null,null,null,null,null,null,NA,180,200,260,200,36000,52000,"[2,3]"
NA,canvas-keyboard-response,397,242664,0.0-6.0-1.65,5018,NA,NA,NA,NA,clear_screen,null,null,NA,NA,catch,sh,sw,l,173,158,151,174,234,237,trueblood,null,null,null,null,null,null,null,null,null,null,null,NA,180,200,260,200,36000,52000,"[2,3]"
NA,canvas-keyboard-response,398,244017,0.0-6.0-2.65,5018,NA,NA,NA,NA,rectangles,null,null,NA,NA,catch,sh,sw,l,173,158,151,174,234,237,trueblood,null,null,null,null,null,null,null,null,null,null,null,NA,180,200,260,200,36000,52000,"[2,3]"
NA,canvas-keyboard-response,399,244194,0.0-6.0-3.65,5018,NA,NA,NA,NA,clear_screen,null,null,NA,NA,catch,sh,sw,l,173,158,151,174,234,237,trueblood,null,null,null,null,null,null,null,null,null,null,null,NA,180,200,260,200,36000,52000,"[2,3]"
