success,trial_type,trial_index,time_elapsed,internal_node_id,sub_n,timeout,failed_images,failed_audio,failed_video,screen_id,rt,response,stimulus,view_history,trial,r1,r2,r3,w1,h1,w2,h2,w3,h3,display,tdd,tdo,tw,th,cw,ch,dw,dh,ta,ca,da,probe,csls,csss,clls,clss,sa,la,probe_rects
TRUE,fullscreen,0,3608,0.0-0.0,5014,NA,NA,NA,NA,NA,NA,NA,NA,NA,NA,NA,NA,NA,NA,NA,NA,NA,NA,NA,NA,NA,NA,NA,NA,NA,NA,NA,NA,NA,NA,NA,NA,NA,NA,NA,NA,NA,NA,NA
TRUE,preload,1,3632,0.0-1.0,5014,FALSE,NA,NA,NA,img preload,NA,NA,NA,NA,NA,NA,NA,NA,NA,NA,NA,NA,NA,NA,NA,NA,NA,NA,NA,NA,NA,NA,NA,NA,NA,NA,NA,NA,NA,NA,NA,NA,NA,NA
NA,survey-html-form,2,10216,0.0-2.0,5014,NA,NA,NA,NA,enter-sub-number,6569,"{""response"":""06""}",NA,NA,NA,NA,NA,NA,NA,NA,NA,NA,NA,NA,NA,NA,NA,NA,NA,NA,NA,NA,NA,NA,NA,NA,NA,NA,NA,NA,NA,NA,NA,NA
NA,image-button-response,3,51713,0.0-3.0,5014,NA,NA,NA,NA,NA,41389,0,consent.png,NA,NA,NA,NA,NA,NA,NA,NA,NA,NA,NA,NA,NA,NA,NA,NA,NA,NA,NA,NA,NA,NA,NA,NA,NA,NA,NA,NA,NA,NA,NA
NA,html-button-response,4,59320,0.0-4.0,5014,NA,NA,NA,NA,intro mssg,7601,0,"<div style= ""font-size:25px;"" <p> <strong> Welcome! </strong><br> <p style=""color:#8B0000; font-size:25px;""><strong> Please do NOT exit full screen until you are done with the experiment. </strong> </p><p style=""font-size:25px;color:#8B0000;""> <strong> Your data will be lost <br> if you try to go back or refresh the page after the experiment starts. Feel free to click ""previous"" during the instructions, however.</strong> </p><br><p> <strong> Thanks in advance for your contribution to our research! </strong></p>",NA,NA,NA,NA,NA,NA,NA,NA,NA,NA,NA,NA,NA,NA,NA,NA,NA,NA,NA,NA,NA,NA,NA,NA,NA,NA,NA,NA,NA,NA,NA
NA,instructions,5,104448,0.0-5.0,5014,NA,NA,NA,NA,instructions,45123,NA,NA,NA,NA,NA,NA,NA,NA,NA,NA,NA,NA,NA,NA,NA,NA,NA,NA,NA,NA,NA,NA,NA,NA,NA,NA,NA,NA,NA,NA,NA,NA,NA
NA,canvas-keyboard-response,6,104652,0.0-6.0-0.0,5014,NA,NA,NA,NA,pre trial waiting period,null,null,NA,NA,critical,c,t,d,240,164,164,240,162.6685,237.1485,trueblood,0.02,h,164,240,240,164,162.6685,237.1485,39360,39360,38576.5967,td,null,null,null,null,null,null,"[2,3]"
NA,canvas-keyboard-response,7,104818,0.0-6.0-1.0,5014,NA,NA,NA,NA,clear_screen,null,null,NA,NA,critical,c,t,d,240,164,164,240,162.6685,237.1485,trueblood,0.02,h,164,240,240,164,162.6685,237.1485,39360,39360,38576.5967,td,null,null,null,null,null,null,"[2,3]"
NA,canvas-keyboard-response,8,106164,0.0-6.0-2.0,5014,NA,NA,NA,NA,rectangles,null,null,NA,NA,critical,c,t,d,240,164,164,240,162.6685,237.1485,trueblood,0.02,h,164,240,240,164,162.6685,237.1485,39360,39360,38576.5967,td,null,null,null,null,null,null,"[2,3]"
NA,canvas-keyboard-response,9,106328,0.0-6.0-3.0,5014,NA,NA,NA,NA,clear_screen,null,null,NA,NA,critical,c,t,d,240,164,164,240,162.6685,237.1485,trueblood,0.02,h,164,240,240,164,162.6685,237.1485,39360,39360,38576.5967,td,null,null,null,null,null,null,"[2,3]"
NA,canvas-keyboard-response,10,116438,0.0-6.0-4.0,5014,NA,NA,NA,NA,make choice,10094,2,NA,NA,critical,c,t,d,240,164,164,240,162.6685,237.1485,trueblood,0.02,h,164,240,240,164,162.6685,237.1485,39360,39360,38576.5967,td,null,null,null,null,null,null,"[2,3]"
NA,canvas-keyboard-response,11,116599,0.0-6.0-5.0,5014,NA,NA,NA,NA,clear_screen,null,null,NA,NA,critical,c,t,d,240,164,164,240,162.6685,237.1485,trueblood,0.02,h,164,240,240,164,162.6685,237.1485,39360,39360,38576.5967,td,null,null,null,null,null,null,"[2,3]"
NA,canvas-keyboard-response,12,116804,0.0-6.0-0.1,5014,NA,NA,NA,NA,pre trial waiting period,null,null,NA,NA,critical,t,c,d,240,164,164,240,220.0396,154.6796,spektor,0.14,w,240,164,164,240,220.0396,154.6796,39360,39360,34035.6388,td,null,null,null,null,null,null,"[1,3]"
NA,canvas-keyboard-response,13,116963,0.0-6.0-1.1,5014,NA,NA,NA,NA,clear_screen,null,null,NA,NA,critical,t,c,d,240,164,164,240,220.0396,154.6796,spektor,0.14,w,240,164,164,240,220.0396,154.6796,39360,39360,34035.6388,td,null,null,null,null,null,null,"[1,3]"
NA,canvas-keyboard-response,14,118302,0.0-6.0-2.1,5014,NA,NA,NA,NA,rectangles,null,null,NA,NA,critical,t,c,d,240,164,164,240,220.0396,154.6796,spektor,0.14,w,240,164,164,240,220.0396,154.6796,39360,39360,34035.6388,td,null,null,null,null,null,null,"[1,3]"
NA,canvas-keyboard-response,15,118463,0.0-6.0-3.1,5014,NA,NA,NA,NA,clear_screen,null,null,NA,NA,critical,t,c,d,240,164,164,240,220.0396,154.6796,spektor,0.14,w,240,164,164,240,220.0396,154.6796,39360,39360,34035.6388,td,null,null,null,null,null,null,"[1,3]"
NA,canvas-keyboard-response,16,119781,0.0-6.0-4.1,5014,NA,NA,NA,NA,make choice,1306,1,NA,NA,critical,t,c,d,240,164,164,240,220.0396,154.6796,spektor,0.14,w,240,164,164,240,220.0396,154.6796,39360,39360,34035.6388,td,null,null,null,null,null,null,"[1,3]"
NA,canvas-keyboard-response,17,119946,0.0-6.0-5.1,5014,NA,NA,NA,NA,clear_screen,null,null,NA,NA,critical,t,c,d,240,164,164,240,220.0396,154.6796,spektor,0.14,w,240,164,164,240,220.0396,154.6796,39360,39360,34035.6388,td,null,null,null,null,null,null,"[1,3]"
NA,canvas-keyboard-response,18,120151,0.0-6.0-0.2,5014,NA,NA,NA,NA,pre trial waiting period,null,null,NA,NA,critical,t,c,d,240,164,164,240,227.1683,158.0083,trueblood,0.09,w,240,164,164,240,227.1683,158.0083,39360,39360,35894.4834,dc,null,null,null,null,null,null,"[3,2]"
NA,canvas-keyboard-response,19,120310,0.0-6.0-1.2,5014,NA,NA,NA,NA,clear_screen,null,null,NA,NA,critical,t,c,d,240,164,164,240,227.1683,158.0083,trueblood,0.09,w,240,164,164,240,227.1683,158.0083,39360,39360,35894.4834,dc,null,null,null,null,null,null,"[3,2]"
NA,canvas-keyboard-response,20,121648,0.0-6.0-2.2,5014,NA,NA,NA,NA,rectangles,null,null,NA,NA,critical,t,c,d,240,164,164,240,227.1683,158.0083,trueblood,0.09,w,240,164,164,240,227.1683,158.0083,39360,39360,35894.4834,dc,null,null,null,null,null,null,"[3,2]"
NA,canvas-keyboard-response,21,121809,0.0-6.0-3.2,5014,NA,NA,NA,NA,clear_screen,null,null,NA,NA,critical,t,c,d,240,164,164,240,227.1683,158.0083,trueblood,0.09,w,240,164,164,240,227.1683,158.0083,39360,39360,35894.4834,dc,null,null,null,null,null,null,"[3,2]"
NA,canvas-keyboard-response,22,123486,0.0-6.0-4.2,5014,NA,NA,NA,NA,make choice,1666,3,NA,NA,critical,t,c,d,240,164,164,240,227.1683,158.0083,trueblood,0.09,w,240,164,164,240,227.1683,158.0083,39360,39360,35894.4834,dc,null,null,null,null,null,null,"[3,2]"
NA,canvas-keyboard-response,23,123646,0.0-6.0-5.2,5014,NA,NA,NA,NA,clear_screen,null,null,NA,NA,critical,t,c,d,240,164,164,240,227.1683,158.0083,trueblood,0.09,w,240,164,164,240,227.1683,158.0083,39360,39360,35894.4834,dc,null,null,null,null,null,null,"[3,2]"
NA,canvas-keyboard-response,24,123850,0.0-6.0-0.3,5014,NA,NA,NA,NA,pre trial waiting period,null,null,NA,NA,catch,sh,sw,l,173,154,193,238,190,280,trueblood,null,null,null,null,null,null,null,null,null,null,null,NA,180,200,260,200,36000,52000,"[1,3]"
NA,canvas-keyboard-response,25,124009,0.0-6.0-1.3,5014,NA,NA,NA,NA,clear_screen,null,null,NA,NA,catch,sh,sw,l,173,154,193,238,190,280,trueblood,null,null,null,null,null,null,null,null,null,null,null,NA,180,200,260,200,36000,52000,"[1,3]"
NA,canvas-keyboard-response,26,125346,0.0-6.0-2.3,5014,NA,NA,NA,NA,rectangles,null,null,NA,NA,catch,sh,sw,l,173,154,193,238,190,280,trueblood,null,null,null,null,null,null,null,null,null,null,null,NA,180,200,260,200,36000,52000,"[1,3]"
NA,canvas-keyboard-response,27,125510,0.0-6.0-3.3,5014,NA,NA,NA,NA,clear_screen,null,null,NA,NA,catch,sh,sw,l,173,154,193,238,190,280,trueblood,null,null,null,null,null,null,null,null,null,null,null,NA,180,200,260,200,36000,52000,"[1,3]"
NA,canvas-keyboard-response,28,126629,0.0-6.0-4.3,5014,NA,NA,NA,NA,make choice,1108,3,NA,NA,catch,sh,sw,l,173,154,193,238,190,280,trueblood,null,null,null,null,null,null,null,null,null,null,null,NA,180,200,260,200,36000,52000,"[1,3]"
NA,canvas-keyboard-response,29,126789,0.0-6.0-5.3,5014,NA,NA,NA,NA,clear_screen,null,null,NA,NA,catch,sh,sw,l,173,154,193,238,190,280,trueblood,null,null,null,null,null,null,null,null,null,null,null,NA,180,200,260,200,36000,52000,"[1,3]"
NA,canvas-keyboard-response,30,126995,0.0-6.0-0.4,5014,NA,NA,NA,NA,pre trial waiting period,null,null,NA,NA,critical,c,d,t,164,240,237.1485,162.6685,240,164,spektor,0.02,w,240,164,164,240,237.1485,162.6685,39360,39360,38576.5967,tc,null,null,null,null,null,null,"[3,1]"
NA,canvas-keyboard-response,31,127154,0.0-6.0-1.4,5014,NA,NA,NA,NA,clear_screen,null,null,NA,NA,critical,c,d,t,164,240,237.1485,162.6685,240,164,spektor,0.02,w,240,164,164,240,237.1485,162.6685,39360,39360,38576.5967,tc,null,null,null,null,null,null,"[3,1]"
NA,canvas-keyboard-response,32,128493,0.0-6.0-2.4,5014,NA,NA,NA,NA,rectangles,null,null,NA,NA,critical,c,d,t,164,240,237.1485,162.6685,240,164,spektor,0.02,w,240,164,164,240,237.1485,162.6685,39360,39360,38576.5967,tc,null,null,null,null,null,null,"[3,1]"
NA,canvas-keyboard-response,33,128654,0.0-6.0-3.4,5014,NA,NA,NA,NA,clear_screen,null,null,NA,NA,critical,c,d,t,164,240,237.1485,162.6685,240,164,spektor,0.02,w,240,164,164,240,237.1485,162.6685,39360,39360,38576.5967,tc,null,null,null,null,null,null,"[3,1]"
NA,canvas-keyboard-response,34,129541,0.0-6.0-4.4,5014,NA,NA,NA,NA,make choice,874,1,NA,NA,critical,c,d,t,164,240,237.1485,162.6685,240,164,spektor,0.02,w,240,164,164,240,237.1485,162.6685,39360,39360,38576.5967,tc,null,null,null,null,null,null,"[3,1]"
NA,canvas-keyboard-response,35,129702,0.0-6.0-5.4,5014,NA,NA,NA,NA,clear_screen,null,null,NA,NA,critical,c,d,t,164,240,237.1485,162.6685,240,164,spektor,0.02,w,240,164,164,240,237.1485,162.6685,39360,39360,38576.5967,tc,null,null,null,null,null,null,"[3,1]"
NA,canvas-keyboard-response,36,129906,0.0-6.0-0.5,5014,NA,NA,NA,NA,pre trial waiting period,null,null,NA,NA,catch,sh,l,sw,234,207,214,241,168,174,spektor,null,null,null,null,null,null,null,null,null,null,null,NA,180,200,260,200,36000,52000,"[2,3]"
NA,canvas-keyboard-response,37,130065,0.0-6.0-1.5,5014,NA,NA,NA,NA,clear_screen,null,null,NA,NA,catch,sh,l,sw,234,207,214,241,168,174,spektor,null,null,null,null,null,null,null,null,null,null,null,NA,180,200,260,200,36000,52000,"[2,3]"
NA,canvas-keyboard-response,38,131403,0.0-6.0-2.5,5014,NA,NA,NA,NA,rectangles,null,null,NA,NA,catch,sh,l,sw,234,207,214,241,168,174,spektor,null,null,null,null,null,null,null,null,null,null,null,NA,180,200,260,200,36000,52000,"[2,3]"
NA,canvas-keyboard-response,39,131565,0.0-6.0-3.5,5014,NA,NA,NA,NA,clear_screen,null,null,NA,NA,catch,sh,l,sw,234,207,214,241,168,174,spektor,null,null,null,null,null,null,null,null,null,null,null,NA,180,200,260,200,36000,52000,"[2,3]"
NA,canvas-keyboard-response,40,132588,0.0-6.0-4.5,5014,NA,NA,NA,NA,make choice,1010,2,NA,NA,catch,sh,l,sw,234,207,214,241,168,174,spektor,null,null,null,null,null,null,null,null,null,null,null,NA,180,200,260,200,36000,52000,"[2,3]"
NA,canvas-keyboard-response,41,132752,0.0-6.0-5.5,5014,NA,NA,NA,NA,clear_screen,null,null,NA,NA,catch,sh,l,sw,234,207,214,241,168,174,spektor,null,null,null,null,null,null,null,null,null,null,null,NA,180,200,260,200,36000,52000,"[2,3]"
NA,canvas-keyboard-response,42,132959,0.0-6.0-0.6,5014,NA,NA,NA,NA,pre trial waiting period,null,null,NA,NA,catch,l,sw,sh,205,295,156,198,226,158,spektor,null,null,null,null,null,null,null,null,null,null,null,NA,180,200,260,200,36000,52000,"[1,2]"
NA,canvas-keyboard-response,43,133118,0.0-6.0-1.6,5014,NA,NA,NA,NA,clear_screen,null,null,NA,NA,catch,l,sw,sh,205,295,156,198,226,158,spektor,null,null,null,null,null,null,null,null,null,null,null,NA,180,200,260,200,36000,52000,"[1,2]"
NA,canvas-keyboard-response,44,134457,0.0-6.0-2.6,5014,NA,NA,NA,NA,rectangles,null,null,NA,NA,catch,l,sw,sh,205,295,156,198,226,158,spektor,null,null,null,null,null,null,null,null,null,null,null,NA,180,200,260,200,36000,52000,"[1,2]"
NA,canvas-keyboard-response,45,134618,0.0-6.0-3.6,5014,NA,NA,NA,NA,clear_screen,null,null,NA,NA,catch,l,sw,sh,205,295,156,198,226,158,spektor,null,null,null,null,null,null,null,null,null,null,null,NA,180,200,260,200,36000,52000,"[1,2]"
NA,canvas-keyboard-response,46,135805,0.0-6.0-4.6,5014,NA,NA,NA,NA,make choice,1174,1,NA,NA,catch,l,sw,sh,205,295,156,198,226,158,spektor,null,null,null,null,null,null,null,null,null,null,null,NA,180,200,260,200,36000,52000,"[1,2]"
NA,canvas-keyboard-response,47,135966,0.0-6.0-5.6,5014,NA,NA,NA,NA,clear_screen,null,null,NA,NA,catch,l,sw,sh,205,295,156,198,226,158,spektor,null,null,null,null,null,null,null,null,null,null,null,NA,180,200,260,200,36000,52000,"[1,2]"
NA,canvas-keyboard-response,48,136172,0.0-6.0-0.7,5014,NA,NA,NA,NA,pre trial waiting period,null,null,NA,NA,critical,d,t,c,232.8713,160.6713,240,164,164,240,spektor,0.05,w,240,164,164,240,232.8713,160.6713,39360,39360,37415.7294,tc,null,null,null,null,null,null,"[2,3]"
NA,canvas-keyboard-response,49,136331,0.0-6.0-1.7,5014,NA,NA,NA,NA,clear_screen,null,null,NA,NA,critical,d,t,c,232.8713,160.6713,240,164,164,240,spektor,0.05,w,240,164,164,240,232.8713,160.6713,39360,39360,37415.7294,tc,null,null,null,null,null,null,"[2,3]"
NA,canvas-keyboard-response,50,137671,0.0-6.0-2.7,5014,NA,NA,NA,NA,rectangles,null,null,NA,NA,critical,d,t,c,232.8713,160.6713,240,164,164,240,spektor,0.05,w,240,164,164,240,232.8713,160.6713,39360,39360,37415.7294,tc,null,null,null,null,null,null,"[2,3]"
NA,canvas-keyboard-response,51,137831,0.0-6.0-3.7,5014,NA,NA,NA,NA,clear_screen,null,null,NA,NA,critical,d,t,c,232.8713,160.6713,240,164,164,240,spektor,0.05,w,240,164,164,240,232.8713,160.6713,39360,39360,37415.7294,tc,null,null,null,null,null,null,"[2,3]"
NA,canvas-keyboard-response,52,138820,0.0-6.0-4.7,5014,NA,NA,NA,NA,make choice,976,2,NA,NA,critical,d,t,c,232.8713,160.6713,240,164,164,240,spektor,0.05,w,240,164,164,240,232.8713,160.6713,39360,39360,37415.7294,tc,null,null,null,null,null,null,"[2,3]"
NA,canvas-keyboard-response,53,138982,0.0-6.0-5.7,5014,NA,NA,NA,NA,clear_screen,null,null,NA,NA,critical,d,t,c,232.8713,160.6713,240,164,164,240,spektor,0.05,w,240,164,164,240,232.8713,160.6713,39360,39360,37415.7294,tc,null,null,null,null,null,null,"[2,3]"
NA,canvas-keyboard-response,54,139187,0.0-6.0-0.8,5014,NA,NA,NA,NA,pre trial waiting period,null,null,NA,NA,critical,d,t,c,160.6713,232.8713,164,240,240,164,trueblood,0.05,h,164,240,240,164,160.6713,232.8713,39360,39360,37415.7294,tc,null,null,null,null,null,null,"[2,3]"
NA,canvas-keyboard-response,55,139347,0.0-6.0-1.8,5014,NA,NA,NA,NA,clear_screen,null,null,NA,NA,critical,d,t,c,160.6713,232.8713,164,240,240,164,trueblood,0.05,h,164,240,240,164,160.6713,232.8713,39360,39360,37415.7294,tc,null,null,null,null,null,null,"[2,3]"
NA,canvas-keyboard-response,56,140694,0.0-6.0-2.8,5014,NA,NA,NA,NA,rectangles,null,null,NA,NA,critical,d,t,c,160.6713,232.8713,164,240,240,164,trueblood,0.05,h,164,240,240,164,160.6713,232.8713,39360,39360,37415.7294,tc,null,null,null,null,null,null,"[2,3]"
NA,canvas-keyboard-response,57,140861,0.0-6.0-3.8,5014,NA,NA,NA,NA,clear_screen,null,null,NA,NA,critical,d,t,c,160.6713,232.8713,164,240,240,164,trueblood,0.05,h,164,240,240,164,160.6713,232.8713,39360,39360,37415.7294,tc,null,null,null,null,null,null,"[2,3]"
NA,canvas-keyboard-response,58,142981,0.0-6.0-4.8,5014,NA,NA,NA,NA,make choice,2101,2,NA,NA,critical,d,t,c,160.6713,232.8713,164,240,240,164,trueblood,0.05,h,164,240,240,164,160.6713,232.8713,39360,39360,37415.7294,tc,null,null,null,null,null,null,"[2,3]"
NA,canvas-keyboard-response,59,143145,0.0-6.0-5.8,5014,NA,NA,NA,NA,clear_screen,null,null,NA,NA,critical,d,t,c,160.6713,232.8713,164,240,240,164,trueblood,0.05,h,164,240,240,164,160.6713,232.8713,39360,39360,37415.7294,tc,null,null,null,null,null,null,"[2,3]"
NA,canvas-keyboard-response,60,143356,0.0-6.0-0.9,5014,NA,NA,NA,NA,pre trial waiting period,null,null,NA,NA,critical,d,c,t,164,240,240,164,164,240,trueblood,0,h,164,240,240,164,164,240,39360,39360,39360,td,null,null,null,null,null,null,"[3,1]"
NA,canvas-keyboard-response,61,143516,0.0-6.0-1.9,5014,NA,NA,NA,NA,clear_screen,null,null,NA,NA,critical,d,c,t,164,240,240,164,164,240,trueblood,0,h,164,240,240,164,164,240,39360,39360,39360,td,null,null,null,null,null,null,"[3,1]"
NA,canvas-keyboard-response,62,144857,0.0-6.0-2.9,5014,NA,NA,NA,NA,rectangles,null,null,NA,NA,critical,d,c,t,164,240,240,164,164,240,trueblood,0,h,164,240,240,164,164,240,39360,39360,39360,td,null,null,null,null,null,null,"[3,1]"
NA,canvas-keyboard-response,63,145022,0.0-6.0-3.9,5014,NA,NA,NA,NA,clear_screen,null,null,NA,NA,critical,d,c,t,164,240,240,164,164,240,trueblood,0,h,164,240,240,164,164,240,39360,39360,39360,td,null,null,null,null,null,null,"[3,1]"
NA,canvas-keyboard-response,64,146924,0.0-6.0-4.9,5014,NA,NA,NA,NA,make choice,1890,1,NA,NA,critical,d,c,t,164,240,240,164,164,240,trueblood,0,h,164,240,240,164,164,240,39360,39360,39360,td,null,null,null,null,null,null,"[3,1]"
NA,canvas-keyboard-response,65,147087,0.0-6.0-5.9,5014,NA,NA,NA,NA,clear_screen,null,null,NA,NA,critical,d,c,t,164,240,240,164,164,240,trueblood,0,h,164,240,240,164,164,240,39360,39360,39360,td,null,null,null,null,null,null,"[3,1]"
NA,canvas-keyboard-response,66,147294,0.0-6.0-0.10,5014,NA,NA,NA,NA,pre trial waiting period,null,null,NA,NA,catch,sh,l,sw,208,213,287,188,215,231,trueblood,null,null,null,null,null,null,null,null,null,null,null,NA,180,200,260,200,36000,52000,"[1,2]"
NA,canvas-keyboard-response,67,147455,0.0-6.0-1.10,5014,NA,NA,NA,NA,clear_screen,null,null,NA,NA,catch,sh,l,sw,208,213,287,188,215,231,trueblood,null,null,null,null,null,null,null,null,null,null,null,NA,180,200,260,200,36000,52000,"[1,2]"
NA,canvas-keyboard-response,68,148796,0.0-6.0-2.10,5014,NA,NA,NA,NA,rectangles,null,null,NA,NA,catch,sh,l,sw,208,213,287,188,215,231,trueblood,null,null,null,null,null,null,null,null,null,null,null,NA,180,200,260,200,36000,52000,"[1,2]"
NA,canvas-keyboard-response,69,148960,0.0-6.0-3.10,5014,NA,NA,NA,NA,clear_screen,null,null,NA,NA,catch,sh,l,sw,208,213,287,188,215,231,trueblood,null,null,null,null,null,null,null,null,null,null,null,NA,180,200,260,200,36000,52000,"[1,2]"
NA,canvas-keyboard-response,70,149972,0.0-6.0-4.10,5014,NA,NA,NA,NA,make choice,998,2,NA,NA,catch,sh,l,sw,208,213,287,188,215,231,trueblood,null,null,null,null,null,null,null,null,null,null,null,NA,180,200,260,200,36000,52000,"[1,2]"
NA,canvas-keyboard-response,71,150135,0.0-6.0-5.10,5014,NA,NA,NA,NA,clear_screen,null,null,NA,NA,catch,sh,l,sw,208,213,287,188,215,231,trueblood,null,null,null,null,null,null,null,null,null,null,null,NA,180,200,260,200,36000,52000,"[1,2]"
NA,canvas-keyboard-response,72,150342,0.0-6.0-0.11,5014,NA,NA,NA,NA,pre trial waiting period,null,null,NA,NA,critical,t,c,d,240,164,164,240,220.0396,154.6796,trueblood,0.14,w,240,164,164,240,220.0396,154.6796,39360,39360,34035.6388,tc,null,null,null,null,null,null,"[1,2]"
NA,canvas-keyboard-response,73,150501,0.0-6.0-1.11,5014,NA,NA,NA,NA,clear_screen,null,null,NA,NA,critical,t,c,d,240,164,164,240,220.0396,154.6796,trueblood,0.14,w,240,164,164,240,220.0396,154.6796,39360,39360,34035.6388,tc,null,null,null,null,null,null,"[1,2]"
NA,canvas-keyboard-response,74,151841,0.0-6.0-2.11,5014,NA,NA,NA,NA,rectangles,null,null,NA,NA,critical,t,c,d,240,164,164,240,220.0396,154.6796,trueblood,0.14,w,240,164,164,240,220.0396,154.6796,39360,39360,34035.6388,tc,null,null,null,null,null,null,"[1,2]"
NA,canvas-keyboard-response,75,152005,0.0-6.0-3.11,5014,NA,NA,NA,NA,clear_screen,null,null,NA,NA,critical,t,c,d,240,164,164,240,220.0396,154.6796,trueblood,0.14,w,240,164,164,240,220.0396,154.6796,39360,39360,34035.6388,tc,null,null,null,null,null,null,"[1,2]"
NA,canvas-keyboard-response,76,153380,0.0-6.0-4.11,5014,NA,NA,NA,NA,make choice,1362,2,NA,NA,critical,t,c,d,240,164,164,240,220.0396,154.6796,trueblood,0.14,w,240,164,164,240,220.0396,154.6796,39360,39360,34035.6388,tc,null,null,null,null,null,null,"[1,2]"
NA,canvas-keyboard-response,77,153544,0.0-6.0-5.11,5014,NA,NA,NA,NA,clear_screen,null,null,NA,NA,critical,t,c,d,240,164,164,240,220.0396,154.6796,trueblood,0.14,w,240,164,164,240,220.0396,154.6796,39360,39360,34035.6388,tc,null,null,null,null,null,null,"[1,2]"
NA,canvas-keyboard-response,78,153751,0.0-6.0-0.12,5014,NA,NA,NA,NA,pre trial waiting period,null,null,NA,NA,catch,sh,sw,l,197,195,171,213,285,176,trueblood,null,null,null,null,null,null,null,null,null,null,null,NA,180,200,260,200,36000,52000,"[2,3]"
NA,canvas-keyboard-response,79,153911,0.0-6.0-1.12,5014,NA,NA,NA,NA,clear_screen,null,null,NA,NA,catch,sh,sw,l,197,195,171,213,285,176,trueblood,null,null,null,null,null,null,null,null,null,null,null,NA,180,200,260,200,36000,52000,"[2,3]"
NA,canvas-keyboard-response,80,155252,0.0-6.0-2.12,5014,NA,NA,NA,NA,rectangles,null,null,NA,NA,catch,sh,sw,l,197,195,171,213,285,176,trueblood,null,null,null,null,null,null,null,null,null,null,null,NA,180,200,260,200,36000,52000,"[2,3]"
NA,canvas-keyboard-response,81,155416,0.0-6.0-3.12,5014,NA,NA,NA,NA,clear_screen,null,null,NA,NA,catch,sh,sw,l,197,195,171,213,285,176,trueblood,null,null,null,null,null,null,null,null,null,null,null,NA,180,200,260,200,36000,52000,"[2,3]"
NA,canvas-keyboard-response,82,156436,0.0-6.0-4.12,5014,NA,NA,NA,NA,make choice,1007,3,NA,NA,catch,sh,sw,l,197,195,171,213,285,176,trueblood,null,null,null,null,null,null,null,null,null,null,null,NA,180,200,260,200,36000,52000,"[2,3]"
NA,canvas-keyboard-response,83,156600,0.0-6.0-5.12,5014,NA,NA,NA,NA,clear_screen,null,null,NA,NA,catch,sh,sw,l,197,195,171,213,285,176,trueblood,null,null,null,null,null,null,null,null,null,null,null,NA,180,200,260,200,36000,52000,"[2,3]"
NA,canvas-keyboard-response,84,156807,0.0-6.0-0.13,5014,NA,NA,NA,NA,pre trial waiting period,null,null,NA,NA,catch,sw,sh,l,180,200,234,155,246,213,spektor,null,null,null,null,null,null,null,null,null,null,null,NA,180,200,260,200,36000,52000,"[1,3]"
NA,canvas-keyboard-response,85,156967,0.0-6.0-1.13,5014,NA,NA,NA,NA,clear_screen,null,null,NA,NA,catch,sw,sh,l,180,200,234,155,246,213,spektor,null,null,null,null,null,null,null,null,null,null,null,NA,180,200,260,200,36000,52000,"[1,3]"
NA,canvas-keyboard-response,86,158307,0.0-6.0-2.13,5014,NA,NA,NA,NA,rectangles,null,null,NA,NA,catch,sw,sh,l,180,200,234,155,246,213,spektor,null,null,null,null,null,null,null,null,null,null,null,NA,180,200,260,200,36000,52000,"[1,3]"
NA,canvas-keyboard-response,87,158471,0.0-6.0-3.13,5014,NA,NA,NA,NA,clear_screen,null,null,NA,NA,catch,sw,sh,l,180,200,234,155,246,213,spektor,null,null,null,null,null,null,null,null,null,null,null,NA,180,200,260,200,36000,52000,"[1,3]"
NA,canvas-keyboard-response,88,159397,0.0-6.0-4.13,5014,NA,NA,NA,NA,make choice,913,3,NA,NA,catch,sw,sh,l,180,200,234,155,246,213,spektor,null,null,null,null,null,null,null,null,null,null,null,NA,180,200,260,200,36000,52000,"[1,3]"
NA,canvas-keyboard-response,89,159561,0.0-6.0-5.13,5014,NA,NA,NA,NA,clear_screen,null,null,NA,NA,catch,sw,sh,l,180,200,234,155,246,213,spektor,null,null,null,null,null,null,null,null,null,null,null,NA,180,200,260,200,36000,52000,"[1,3]"
NA,canvas-keyboard-response,90,159768,0.0-6.0-0.14,5014,NA,NA,NA,NA,pre trial waiting period,null,null,NA,NA,critical,d,t,c,232.8713,160.6713,240,164,164,240,spektor,0.05,w,240,164,164,240,232.8713,160.6713,39360,39360,37415.7294,td,null,null,null,null,null,null,"[2,1]"
NA,canvas-keyboard-response,91,159927,0.0-6.0-1.14,5014,NA,NA,NA,NA,clear_screen,null,null,NA,NA,critical,d,t,c,232.8713,160.6713,240,164,164,240,spektor,0.05,w,240,164,164,240,232.8713,160.6713,39360,39360,37415.7294,td,null,null,null,null,null,null,"[2,1]"
NA,canvas-keyboard-response,92,161269,0.0-6.0-2.14,5014,NA,NA,NA,NA,rectangles,null,null,NA,NA,critical,d,t,c,232.8713,160.6713,240,164,164,240,spektor,0.05,w,240,164,164,240,232.8713,160.6713,39360,39360,37415.7294,td,null,null,null,null,null,null,"[2,1]"
NA,canvas-keyboard-response,93,161433,0.0-6.0-3.14,5014,NA,NA,NA,NA,clear_screen,null,null,NA,NA,critical,d,t,c,232.8713,160.6713,240,164,164,240,spektor,0.05,w,240,164,164,240,232.8713,160.6713,39360,39360,37415.7294,td,null,null,null,null,null,null,"[2,1]"
NA,canvas-keyboard-response,94,163716,0.0-6.0-4.14,5014,NA,NA,NA,NA,make choice,2267,1,NA,NA,critical,d,t,c,232.8713,160.6713,240,164,164,240,spektor,0.05,w,240,164,164,240,232.8713,160.6713,39360,39360,37415.7294,td,null,null,null,null,null,null,"[2,1]"
NA,canvas-keyboard-response,95,163879,0.0-6.0-5.14,5014,NA,NA,NA,NA,clear_screen,null,null,NA,NA,critical,d,t,c,232.8713,160.6713,240,164,164,240,spektor,0.05,w,240,164,164,240,232.8713,160.6713,39360,39360,37415.7294,td,null,null,null,null,null,null,"[2,1]"
NA,canvas-keyboard-response,96,164087,0.0-6.0-0.15,5014,NA,NA,NA,NA,pre trial waiting period,null,null,NA,NA,critical,t,d,c,240,164,227.1683,158.0083,164,240,spektor,0.09,w,240,164,164,240,227.1683,158.0083,39360,39360,35894.4834,td,null,null,null,null,null,null,"[1,2]"
NA,canvas-keyboard-response,97,164246,0.0-6.0-1.15,5014,NA,NA,NA,NA,clear_screen,null,null,NA,NA,critical,t,d,c,240,164,227.1683,158.0083,164,240,spektor,0.09,w,240,164,164,240,227.1683,158.0083,39360,39360,35894.4834,td,null,null,null,null,null,null,"[1,2]"
NA,canvas-keyboard-response,98,165586,0.0-6.0-2.15,5014,NA,NA,NA,NA,rectangles,null,null,NA,NA,critical,t,d,c,240,164,227.1683,158.0083,164,240,spektor,0.09,w,240,164,164,240,227.1683,158.0083,39360,39360,35894.4834,td,null,null,null,null,null,null,"[1,2]"
NA,canvas-keyboard-response,99,165751,0.0-6.0-3.15,5014,NA,NA,NA,NA,clear_screen,null,null,NA,NA,critical,t,d,c,240,164,227.1683,158.0083,164,240,spektor,0.09,w,240,164,164,240,227.1683,158.0083,39360,39360,35894.4834,td,null,null,null,null,null,null,"[1,2]"
NA,canvas-keyboard-response,100,166588,0.0-6.0-4.15,5014,NA,NA,NA,NA,make choice,825,1,NA,NA,critical,t,d,c,240,164,227.1683,158.0083,164,240,spektor,0.09,w,240,164,164,240,227.1683,158.0083,39360,39360,35894.4834,td,null,null,null,null,null,null,"[1,2]"
NA,canvas-keyboard-response,101,166752,0.0-6.0-5.15,5014,NA,NA,NA,NA,clear_screen,null,null,NA,NA,critical,t,d,c,240,164,227.1683,158.0083,164,240,spektor,0.09,w,240,164,164,240,227.1683,158.0083,39360,39360,35894.4834,td,null,null,null,null,null,null,"[1,2]"
NA,canvas-keyboard-response,102,166960,0.0-6.0-0.16,5014,NA,NA,NA,NA,pre trial waiting period,null,null,NA,NA,critical,d,t,c,164,240,164,240,240,164,spektor,0,h,164,240,240,164,164,240,39360,39360,39360,tc,null,null,null,null,null,null,"[2,3]"
NA,canvas-keyboard-response,103,167119,0.0-6.0-1.16,5014,NA,NA,NA,NA,clear_screen,null,null,NA,NA,critical,d,t,c,164,240,164,240,240,164,spektor,0,h,164,240,240,164,164,240,39360,39360,39360,tc,null,null,null,null,null,null,"[2,3]"
NA,canvas-keyboard-response,104,168459,0.0-6.0-2.16,5014,NA,NA,NA,NA,rectangles,null,null,NA,NA,critical,d,t,c,164,240,164,240,240,164,spektor,0,h,164,240,240,164,164,240,39360,39360,39360,tc,null,null,null,null,null,null,"[2,3]"
NA,canvas-keyboard-response,105,168624,0.0-6.0-3.16,5014,NA,NA,NA,NA,clear_screen,null,null,NA,NA,critical,d,t,c,164,240,164,240,240,164,spektor,0,h,164,240,240,164,164,240,39360,39360,39360,tc,null,null,null,null,null,null,"[2,3]"
NA,canvas-keyboard-response,106,169604,0.0-6.0-4.16,5014,NA,NA,NA,NA,make choice,965,2,NA,NA,critical,d,t,c,164,240,164,240,240,164,spektor,0,h,164,240,240,164,164,240,39360,39360,39360,tc,null,null,null,null,null,null,"[2,3]"
NA,canvas-keyboard-response,107,169768,0.0-6.0-5.16,5014,NA,NA,NA,NA,clear_screen,null,null,NA,NA,critical,d,t,c,164,240,164,240,240,164,spektor,0,h,164,240,240,164,164,240,39360,39360,39360,tc,null,null,null,null,null,null,"[2,3]"
NA,canvas-keyboard-response,108,169976,0.0-6.0-0.17,5014,NA,NA,NA,NA,pre trial waiting period,null,null,NA,NA,critical,d,c,t,232.8713,160.6713,164,240,240,164,spektor,0.05,w,240,164,164,240,232.8713,160.6713,39360,39360,37415.7294,dc,null,null,null,null,null,null,"[1,2]"
NA,canvas-keyboard-response,109,170135,0.0-6.0-1.17,5014,NA,NA,NA,NA,clear_screen,null,null,NA,NA,critical,d,c,t,232.8713,160.6713,164,240,240,164,spektor,0.05,w,240,164,164,240,232.8713,160.6713,39360,39360,37415.7294,dc,null,null,null,null,null,null,"[1,2]"
NA,canvas-keyboard-response,110,171476,0.0-6.0-2.17,5014,NA,NA,NA,NA,rectangles,null,null,NA,NA,critical,d,c,t,232.8713,160.6713,164,240,240,164,spektor,0.05,w,240,164,164,240,232.8713,160.6713,39360,39360,37415.7294,dc,null,null,null,null,null,null,"[1,2]"
NA,canvas-keyboard-response,111,171642,0.0-6.0-3.17,5014,NA,NA,NA,NA,clear_screen,null,null,NA,NA,critical,d,c,t,232.8713,160.6713,164,240,240,164,spektor,0.05,w,240,164,164,240,232.8713,160.6713,39360,39360,37415.7294,dc,null,null,null,null,null,null,"[1,2]"
NA,canvas-keyboard-response,112,172387,0.0-6.0-4.17,5014,NA,NA,NA,NA,make choice,732,2,NA,NA,critical,d,c,t,232.8713,160.6713,164,240,240,164,spektor,0.05,w,240,164,164,240,232.8713,160.6713,39360,39360,37415.7294,dc,null,null,null,null,null,null,"[1,2]"
NA,canvas-keyboard-response,113,172552,0.0-6.0-5.17,5014,NA,NA,NA,NA,clear_screen,null,null,NA,NA,critical,d,c,t,232.8713,160.6713,164,240,240,164,spektor,0.05,w,240,164,164,240,232.8713,160.6713,39360,39360,37415.7294,dc,null,null,null,null,null,null,"[1,2]"
NA,canvas-keyboard-response,114,172760,0.0-6.0-0.18,5014,NA,NA,NA,NA,pre trial waiting period,null,null,NA,NA,catch,sh,l,sw,163,217,263,235,140,226,spektor,null,null,null,null,null,null,null,null,null,null,null,NA,180,200,260,200,36000,52000,"[1,2]"
NA,canvas-keyboard-response,115,172919,0.0-6.0-1.18,5014,NA,NA,NA,NA,clear_screen,null,null,NA,NA,catch,sh,l,sw,163,217,263,235,140,226,spektor,null,null,null,null,null,null,null,null,null,null,null,NA,180,200,260,200,36000,52000,"[1,2]"
NA,canvas-keyboard-response,116,174262,0.0-6.0-2.18,5014,NA,NA,NA,NA,rectangles,null,null,NA,NA,catch,sh,l,sw,163,217,263,235,140,226,spektor,null,null,null,null,null,null,null,null,null,null,null,NA,180,200,260,200,36000,52000,"[1,2]"
NA,canvas-keyboard-response,117,174425,0.0-6.0-3.18,5014,NA,NA,NA,NA,clear_screen,null,null,NA,NA,catch,sh,l,sw,163,217,263,235,140,226,spektor,null,null,null,null,null,null,null,null,null,null,null,NA,180,200,260,200,36000,52000,"[1,2]"
NA,canvas-keyboard-response,118,175013,0.0-6.0-4.18,5014,NA,NA,NA,NA,make choice,573,2,NA,NA,catch,sh,l,sw,163,217,263,235,140,226,spektor,null,null,null,null,null,null,null,null,null,null,null,NA,180,200,260,200,36000,52000,"[1,2]"
NA,canvas-keyboard-response,119,175190,0.0-6.0-5.18,5014,NA,NA,NA,NA,clear_screen,null,null,NA,NA,catch,sh,l,sw,163,217,263,235,140,226,spektor,null,null,null,null,null,null,null,null,null,null,null,NA,180,200,260,200,36000,52000,"[1,2]"
NA,canvas-keyboard-response,120,175405,0.0-6.0-0.19,5014,NA,NA,NA,NA,pre trial waiting period,null,null,NA,NA,catch,sh,sw,l,223,204,215,218,264,176,spektor,null,null,null,null,null,null,null,null,null,null,null,NA,180,200,260,200,36000,52000,"[1,3]"
NA,canvas-keyboard-response,121,175565,0.0-6.0-1.19,5014,NA,NA,NA,NA,clear_screen,null,null,NA,NA,catch,sh,sw,l,223,204,215,218,264,176,spektor,null,null,null,null,null,null,null,null,null,null,null,NA,180,200,260,200,36000,52000,"[1,3]"
NA,canvas-keyboard-response,122,176910,0.0-6.0-2.19,5014,NA,NA,NA,NA,rectangles,null,null,NA,NA,catch,sh,sw,l,223,204,215,218,264,176,spektor,null,null,null,null,null,null,null,null,null,null,null,NA,180,200,260,200,36000,52000,"[1,3]"
NA,canvas-keyboard-response,123,177079,0.0-6.0-3.19,5014,NA,NA,NA,NA,clear_screen,null,null,NA,NA,catch,sh,sw,l,223,204,215,218,264,176,spektor,null,null,null,null,null,null,null,null,null,null,null,NA,180,200,260,200,36000,52000,"[1,3]"
NA,canvas-keyboard-response,124,178301,0.0-6.0-4.19,5014,NA,NA,NA,NA,make choice,1200,1,NA,NA,catch,sh,sw,l,223,204,215,218,264,176,spektor,null,null,null,null,null,null,null,null,null,null,null,NA,180,200,260,200,36000,52000,"[1,3]"
NA,canvas-keyboard-response,125,178470,0.0-6.0-5.19,5014,NA,NA,NA,NA,clear_screen,null,null,NA,NA,catch,sh,sw,l,223,204,215,218,264,176,spektor,null,null,null,null,null,null,null,null,null,null,null,NA,180,200,260,200,36000,52000,"[1,3]"
NA,canvas-keyboard-response,126,178681,0.0-6.0-0.20,5014,NA,NA,NA,NA,pre trial waiting period,null,null,NA,NA,critical,d,c,t,232.8713,160.6713,164,240,240,164,trueblood,0.05,w,240,164,164,240,232.8713,160.6713,39360,39360,37415.7294,tc,null,null,null,null,null,null,"[3,2]"
NA,canvas-keyboard-response,127,178842,0.0-6.0-1.20,5014,NA,NA,NA,NA,clear_screen,null,null,NA,NA,critical,d,c,t,232.8713,160.6713,164,240,240,164,trueblood,0.05,w,240,164,164,240,232.8713,160.6713,39360,39360,37415.7294,tc,null,null,null,null,null,null,"[3,2]"
NA,canvas-keyboard-response,128,180187,0.0-6.0-2.20,5014,NA,NA,NA,NA,rectangles,null,null,NA,NA,critical,d,c,t,232.8713,160.6713,164,240,240,164,trueblood,0.05,w,240,164,164,240,232.8713,160.6713,39360,39360,37415.7294,tc,null,null,null,null,null,null,"[3,2]"
NA,canvas-keyboard-response,129,180356,0.0-6.0-3.20,5014,NA,NA,NA,NA,clear_screen,null,null,NA,NA,critical,d,c,t,232.8713,160.6713,164,240,240,164,trueblood,0.05,w,240,164,164,240,232.8713,160.6713,39360,39360,37415.7294,tc,null,null,null,null,null,null,"[3,2]"
NA,canvas-keyboard-response,130,181300,0.0-6.0-4.20,5014,NA,NA,NA,NA,make choice,926,3,NA,NA,critical,d,c,t,232.8713,160.6713,164,240,240,164,trueblood,0.05,w,240,164,164,240,232.8713,160.6713,39360,39360,37415.7294,tc,null,null,null,null,null,null,"[3,2]"
NA,canvas-keyboard-response,131,181473,0.0-6.0-5.20,5014,NA,NA,NA,NA,clear_screen,null,null,NA,NA,critical,d,c,t,232.8713,160.6713,164,240,240,164,trueblood,0.05,w,240,164,164,240,232.8713,160.6713,39360,39360,37415.7294,tc,null,null,null,null,null,null,"[3,2]"
NA,canvas-keyboard-response,132,181684,0.0-6.0-0.21,5014,NA,NA,NA,NA,pre trial waiting period,null,null,NA,NA,critical,t,d,c,164,240,158.0083,227.1683,240,164,spektor,0.09,h,164,240,240,164,158.0083,227.1683,39360,39360,35894.4834,tc,null,null,null,null,null,null,"[1,3]"
NA,canvas-keyboard-response,133,181844,0.0-6.0-1.21,5014,NA,NA,NA,NA,clear_screen,null,null,NA,NA,critical,t,d,c,164,240,158.0083,227.1683,240,164,spektor,0.09,h,164,240,240,164,158.0083,227.1683,39360,39360,35894.4834,tc,null,null,null,null,null,null,"[1,3]"
NA,canvas-keyboard-response,134,183186,0.0-6.0-2.21,5014,NA,NA,NA,NA,rectangles,null,null,NA,NA,critical,t,d,c,164,240,158.0083,227.1683,240,164,spektor,0.09,h,164,240,240,164,158.0083,227.1683,39360,39360,35894.4834,tc,null,null,null,null,null,null,"[1,3]"
NA,canvas-keyboard-response,135,183352,0.0-6.0-3.21,5014,NA,NA,NA,NA,clear_screen,null,null,NA,NA,critical,t,d,c,164,240,158.0083,227.1683,240,164,spektor,0.09,h,164,240,240,164,158.0083,227.1683,39360,39360,35894.4834,tc,null,null,null,null,null,null,"[1,3]"
NA,canvas-keyboard-response,136,184524,0.0-6.0-4.21,5014,NA,NA,NA,NA,make choice,1156,1,NA,NA,critical,t,d,c,164,240,158.0083,227.1683,240,164,spektor,0.09,h,164,240,240,164,158.0083,227.1683,39360,39360,35894.4834,tc,null,null,null,null,null,null,"[1,3]"
NA,canvas-keyboard-response,137,184689,0.0-6.0-5.21,5014,NA,NA,NA,NA,clear_screen,null,null,NA,NA,critical,t,d,c,164,240,158.0083,227.1683,240,164,spektor,0.09,h,164,240,240,164,158.0083,227.1683,39360,39360,35894.4834,tc,null,null,null,null,null,null,"[1,3]"
NA,canvas-keyboard-response,138,184899,0.0-6.0-0.22,5014,NA,NA,NA,NA,pre trial waiting period,null,null,NA,NA,critical,d,c,t,158.0083,227.1683,240,164,164,240,trueblood,0.09,h,164,240,240,164,158.0083,227.1683,39360,39360,35894.4834,dc,null,null,null,null,null,null,"[1,2]"
NA,canvas-keyboard-response,139,185059,0.0-6.0-1.22,5014,NA,NA,NA,NA,clear_screen,null,null,NA,NA,critical,d,c,t,158.0083,227.1683,240,164,164,240,trueblood,0.09,h,164,240,240,164,158.0083,227.1683,39360,39360,35894.4834,dc,null,null,null,null,null,null,"[1,2]"
NA,canvas-keyboard-response,140,186401,0.0-6.0-2.22,5014,NA,NA,NA,NA,rectangles,null,null,NA,NA,critical,d,c,t,158.0083,227.1683,240,164,164,240,trueblood,0.09,h,164,240,240,164,158.0083,227.1683,39360,39360,35894.4834,dc,null,null,null,null,null,null,"[1,2]"
NA,canvas-keyboard-response,141,186574,0.0-6.0-3.22,5014,NA,NA,NA,NA,clear_screen,null,null,NA,NA,critical,d,c,t,158.0083,227.1683,240,164,164,240,trueblood,0.09,h,164,240,240,164,158.0083,227.1683,39360,39360,35894.4834,dc,null,null,null,null,null,null,"[1,2]"
NA,canvas-keyboard-response,142,187445,0.0-6.0-4.22,5014,NA,NA,NA,NA,make choice,854,2,NA,NA,critical,d,c,t,158.0083,227.1683,240,164,164,240,trueblood,0.09,h,164,240,240,164,158.0083,227.1683,39360,39360,35894.4834,dc,null,null,null,null,null,null,"[1,2]"
NA,canvas-keyboard-response,143,187610,0.0-6.0-5.22,5014,NA,NA,NA,NA,clear_screen,null,null,NA,NA,critical,d,c,t,158.0083,227.1683,240,164,164,240,trueblood,0.09,h,164,240,240,164,158.0083,227.1683,39360,39360,35894.4834,dc,null,null,null,null,null,null,"[1,2]"
NA,canvas-keyboard-response,144,187821,0.0-6.0-0.23,5014,NA,NA,NA,NA,pre trial waiting period,null,null,NA,NA,catch,sw,sh,l,180,200,205,209,202,235,trueblood,null,null,null,null,null,null,null,null,null,null,null,NA,180,200,260,200,36000,52000,"[2,3]"
NA,canvas-keyboard-response,145,187980,0.0-6.0-1.23,5014,NA,NA,NA,NA,clear_screen,null,null,NA,NA,catch,sw,sh,l,180,200,205,209,202,235,trueblood,null,null,null,null,null,null,null,null,null,null,null,NA,180,200,260,200,36000,52000,"[2,3]"
NA,canvas-keyboard-response,146,189326,0.0-6.0-2.23,5014,NA,NA,NA,NA,rectangles,null,null,NA,NA,catch,sw,sh,l,180,200,205,209,202,235,trueblood,null,null,null,null,null,null,null,null,null,null,null,NA,180,200,260,200,36000,52000,"[2,3]"
NA,canvas-keyboard-response,147,189493,0.0-6.0-3.23,5014,NA,NA,NA,NA,clear_screen,null,null,NA,NA,catch,sw,sh,l,180,200,205,209,202,235,trueblood,null,null,null,null,null,null,null,null,null,null,null,NA,180,200,260,200,36000,52000,"[2,3]"
NA,canvas-keyboard-response,148,190428,0.0-6.0-4.23,5014,NA,NA,NA,NA,make choice,919,3,NA,NA,catch,sw,sh,l,180,200,205,209,202,235,trueblood,null,null,null,null,null,null,null,null,null,null,null,NA,180,200,260,200,36000,52000,"[2,3]"
NA,canvas-keyboard-response,149,190594,0.0-6.0-5.23,5014,NA,NA,NA,NA,clear_screen,null,null,NA,NA,catch,sw,sh,l,180,200,205,209,202,235,trueblood,null,null,null,null,null,null,null,null,null,null,null,NA,180,200,260,200,36000,52000,"[2,3]"
NA,canvas-keyboard-response,150,190805,0.0-6.0-0.24,5014,NA,NA,NA,NA,pre trial waiting period,null,null,NA,NA,critical,d,c,t,158.0083,227.1683,240,164,164,240,trueblood,0.09,h,164,240,240,164,158.0083,227.1683,39360,39360,35894.4834,td,null,null,null,null,null,null,"[3,1]"
NA,canvas-keyboard-response,151,190963,0.0-6.0-1.24,5014,NA,NA,NA,NA,clear_screen,null,null,NA,NA,critical,d,c,t,158.0083,227.1683,240,164,164,240,trueblood,0.09,h,164,240,240,164,158.0083,227.1683,39360,39360,35894.4834,td,null,null,null,null,null,null,"[3,1]"
NA,canvas-keyboard-response,152,192307,0.0-6.0-2.24,5014,NA,NA,NA,NA,rectangles,null,null,NA,NA,critical,d,c,t,158.0083,227.1683,240,164,164,240,trueblood,0.09,h,164,240,240,164,158.0083,227.1683,39360,39360,35894.4834,td,null,null,null,null,null,null,"[3,1]"
NA,canvas-keyboard-response,153,192474,0.0-6.0-3.24,5014,NA,NA,NA,NA,clear_screen,null,null,NA,NA,critical,d,c,t,158.0083,227.1683,240,164,164,240,trueblood,0.09,h,164,240,240,164,158.0083,227.1683,39360,39360,35894.4834,td,null,null,null,null,null,null,"[3,1]"
NA,canvas-keyboard-response,154,193580,0.0-6.0-4.24,5014,NA,NA,NA,NA,make choice,1084,3,NA,NA,critical,d,c,t,158.0083,227.1683,240,164,164,240,trueblood,0.09,h,164,240,240,164,158.0083,227.1683,39360,39360,35894.4834,td,null,null,null,null,null,null,"[3,1]"
NA,canvas-keyboard-response,155,193748,0.0-6.0-5.24,5014,NA,NA,NA,NA,clear_screen,null,null,NA,NA,critical,d,c,t,158.0083,227.1683,240,164,164,240,trueblood,0.09,h,164,240,240,164,158.0083,227.1683,39360,39360,35894.4834,td,null,null,null,null,null,null,"[3,1]"
NA,canvas-keyboard-response,156,193960,0.0-6.0-0.25,5014,NA,NA,NA,NA,pre trial waiting period,null,null,NA,NA,critical,d,t,c,160.6713,232.8713,164,240,240,164,trueblood,0.05,h,164,240,240,164,160.6713,232.8713,39360,39360,37415.7294,td,null,null,null,null,null,null,"[2,1]"
NA,canvas-keyboard-response,157,194118,0.0-6.0-1.25,5014,NA,NA,NA,NA,clear_screen,null,null,NA,NA,critical,d,t,c,160.6713,232.8713,164,240,240,164,trueblood,0.05,h,164,240,240,164,160.6713,232.8713,39360,39360,37415.7294,td,null,null,null,null,null,null,"[2,1]"
NA,canvas-keyboard-response,158,195462,0.0-6.0-2.25,5014,NA,NA,NA,NA,rectangles,null,null,NA,NA,critical,d,t,c,160.6713,232.8713,164,240,240,164,trueblood,0.05,h,164,240,240,164,160.6713,232.8713,39360,39360,37415.7294,td,null,null,null,null,null,null,"[2,1]"
NA,canvas-keyboard-response,159,195630,0.0-6.0-3.25,5014,NA,NA,NA,NA,clear_screen,null,null,NA,NA,critical,d,t,c,160.6713,232.8713,164,240,240,164,trueblood,0.05,h,164,240,240,164,160.6713,232.8713,39360,39360,37415.7294,td,null,null,null,null,null,null,"[2,1]"
NA,canvas-keyboard-response,160,196388,0.0-6.0-4.25,5014,NA,NA,NA,NA,make choice,741,2,NA,NA,critical,d,t,c,160.6713,232.8713,164,240,240,164,trueblood,0.05,h,164,240,240,164,160.6713,232.8713,39360,39360,37415.7294,td,null,null,null,null,null,null,"[2,1]"
NA,canvas-keyboard-response,161,196553,0.0-6.0-5.25,5014,NA,NA,NA,NA,clear_screen,null,null,NA,NA,critical,d,t,c,160.6713,232.8713,164,240,240,164,trueblood,0.05,h,164,240,240,164,160.6713,232.8713,39360,39360,37415.7294,td,null,null,null,null,null,null,"[2,1]"
NA,canvas-keyboard-response,162,196764,0.0-6.0-0.26,5014,NA,NA,NA,NA,pre trial waiting period,null,null,NA,NA,catch,sh,l,sw,189,218,280,167,204,219,spektor,null,null,null,null,null,null,null,null,null,null,null,NA,180,200,260,200,36000,52000,"[2,3]"
NA,canvas-keyboard-response,163,196924,0.0-6.0-1.26,5014,NA,NA,NA,NA,clear_screen,null,null,NA,NA,catch,sh,l,sw,189,218,280,167,204,219,spektor,null,null,null,null,null,null,null,null,null,null,null,NA,180,200,260,200,36000,52000,"[2,3]"
NA,canvas-keyboard-response,164,198270,0.0-6.0-2.26,5014,NA,NA,NA,NA,rectangles,null,null,NA,NA,catch,sh,l,sw,189,218,280,167,204,219,spektor,null,null,null,null,null,null,null,null,null,null,null,NA,180,200,260,200,36000,52000,"[2,3]"
NA,canvas-keyboard-response,165,198437,0.0-6.0-3.26,5014,NA,NA,NA,NA,clear_screen,null,null,NA,NA,catch,sh,l,sw,189,218,280,167,204,219,spektor,null,null,null,null,null,null,null,null,null,null,null,NA,180,200,260,200,36000,52000,"[2,3]"
NA,canvas-keyboard-response,166,199356,0.0-6.0-4.26,5014,NA,NA,NA,NA,make choice,902,3,NA,NA,catch,sh,l,sw,189,218,280,167,204,219,spektor,null,null,null,null,null,null,null,null,null,null,null,NA,180,200,260,200,36000,52000,"[2,3]"
NA,canvas-keyboard-response,167,199522,0.0-6.0-5.26,5014,NA,NA,NA,NA,clear_screen,null,null,NA,NA,catch,sh,l,sw,189,218,280,167,204,219,spektor,null,null,null,null,null,null,null,null,null,null,null,NA,180,200,260,200,36000,52000,"[2,3]"
NA,canvas-keyboard-response,168,199734,0.0-6.0-0.27,5014,NA,NA,NA,NA,pre trial waiting period,null,null,NA,NA,critical,c,d,t,240,164,160.6713,232.8713,164,240,spektor,0.05,h,164,240,240,164,160.6713,232.8713,39360,39360,37415.7294,tc,null,null,null,null,null,null,"[3,1]"
NA,canvas-keyboard-response,169,199893,0.0-6.0-1.27,5014,NA,NA,NA,NA,clear_screen,null,null,NA,NA,critical,c,d,t,240,164,160.6713,232.8713,164,240,spektor,0.05,h,164,240,240,164,160.6713,232.8713,39360,39360,37415.7294,tc,null,null,null,null,null,null,"[3,1]"
NA,canvas-keyboard-response,170,201237,0.0-6.0-2.27,5014,NA,NA,NA,NA,rectangles,null,null,NA,NA,critical,c,d,t,240,164,160.6713,232.8713,164,240,spektor,0.05,h,164,240,240,164,160.6713,232.8713,39360,39360,37415.7294,tc,null,null,null,null,null,null,"[3,1]"
NA,canvas-keyboard-response,171,201404,0.0-6.0-3.27,5014,NA,NA,NA,NA,clear_screen,null,null,NA,NA,critical,c,d,t,240,164,160.6713,232.8713,164,240,spektor,0.05,h,164,240,240,164,160.6713,232.8713,39360,39360,37415.7294,tc,null,null,null,null,null,null,"[3,1]"
NA,canvas-keyboard-response,172,203260,0.0-6.0-4.27,5014,NA,NA,NA,NA,make choice,1837,3,NA,NA,critical,c,d,t,240,164,160.6713,232.8713,164,240,spektor,0.05,h,164,240,240,164,160.6713,232.8713,39360,39360,37415.7294,tc,null,null,null,null,null,null,"[3,1]"
NA,canvas-keyboard-response,173,203427,0.0-6.0-5.27,5014,NA,NA,NA,NA,clear_screen,null,null,NA,NA,critical,c,d,t,240,164,160.6713,232.8713,164,240,spektor,0.05,h,164,240,240,164,160.6713,232.8713,39360,39360,37415.7294,tc,null,null,null,null,null,null,"[3,1]"
NA,canvas-keyboard-response,174,203638,0.0-6.0-0.28,5014,NA,NA,NA,NA,pre trial waiting period,null,null,NA,NA,critical,t,c,d,164,240,240,164,154.6796,220.0396,spektor,0.14,h,164,240,240,164,154.6796,220.0396,39360,39360,34035.6388,tc,null,null,null,null,null,null,"[1,2]"
NA,canvas-keyboard-response,175,203798,0.0-6.0-1.28,5014,NA,NA,NA,NA,clear_screen,null,null,NA,NA,critical,t,c,d,164,240,240,164,154.6796,220.0396,spektor,0.14,h,164,240,240,164,154.6796,220.0396,39360,39360,34035.6388,tc,null,null,null,null,null,null,"[1,2]"
NA,canvas-keyboard-response,176,205142,0.0-6.0-2.28,5014,NA,NA,NA,NA,rectangles,null,null,NA,NA,critical,t,c,d,164,240,240,164,154.6796,220.0396,spektor,0.14,h,164,240,240,164,154.6796,220.0396,39360,39360,34035.6388,tc,null,null,null,null,null,null,"[1,2]"
NA,canvas-keyboard-response,177,205310,0.0-6.0-3.28,5014,NA,NA,NA,NA,clear_screen,null,null,NA,NA,critical,t,c,d,164,240,240,164,154.6796,220.0396,spektor,0.14,h,164,240,240,164,154.6796,220.0396,39360,39360,34035.6388,tc,null,null,null,null,null,null,"[1,2]"
NA,canvas-keyboard-response,178,206261,0.0-6.0-4.28,5014,NA,NA,NA,NA,make choice,933,1,NA,NA,critical,t,c,d,164,240,240,164,154.6796,220.0396,spektor,0.14,h,164,240,240,164,154.6796,220.0396,39360,39360,34035.6388,tc,null,null,null,null,null,null,"[1,2]"
NA,canvas-keyboard-response,179,206440,0.0-6.0-5.28,5014,NA,NA,NA,NA,clear_screen,null,null,NA,NA,critical,t,c,d,164,240,240,164,154.6796,220.0396,spektor,0.14,h,164,240,240,164,154.6796,220.0396,39360,39360,34035.6388,tc,null,null,null,null,null,null,"[1,2]"
NA,canvas-keyboard-response,180,206660,0.0-6.0-0.29,5014,NA,NA,NA,NA,pre trial waiting period,null,null,NA,NA,catch,sw,sh,l,180,200,231,148,274,200,trueblood,null,null,null,null,null,null,null,null,null,null,null,NA,180,200,260,200,36000,52000,"[1,3]"
NA,canvas-keyboard-response,181,206820,0.0-6.0-1.29,5014,NA,NA,NA,NA,clear_screen,null,null,NA,NA,catch,sw,sh,l,180,200,231,148,274,200,trueblood,null,null,null,null,null,null,null,null,null,null,null,NA,180,200,260,200,36000,52000,"[1,3]"
NA,canvas-keyboard-response,182,208167,0.0-6.0-2.29,5014,NA,NA,NA,NA,rectangles,null,null,NA,NA,catch,sw,sh,l,180,200,231,148,274,200,trueblood,null,null,null,null,null,null,null,null,null,null,null,NA,180,200,260,200,36000,52000,"[1,3]"
NA,canvas-keyboard-response,183,208336,0.0-6.0-3.29,5014,NA,NA,NA,NA,clear_screen,null,null,NA,NA,catch,sw,sh,l,180,200,231,148,274,200,trueblood,null,null,null,null,null,null,null,null,null,null,null,NA,180,200,260,200,36000,52000,"[1,3]"
NA,canvas-keyboard-response,184,209452,0.0-6.0-4.29,5014,NA,NA,NA,NA,make choice,1097,3,NA,NA,catch,sw,sh,l,180,200,231,148,274,200,trueblood,null,null,null,null,null,null,null,null,null,null,null,NA,180,200,260,200,36000,52000,"[1,3]"
NA,canvas-keyboard-response,185,209619,0.0-6.0-5.29,5014,NA,NA,NA,NA,clear_screen,null,null,NA,NA,catch,sw,sh,l,180,200,231,148,274,200,trueblood,null,null,null,null,null,null,null,null,null,null,null,NA,180,200,260,200,36000,52000,"[1,3]"
NA,canvas-keyboard-response,186,209832,0.0-6.0-0.30,5014,NA,NA,NA,NA,pre trial waiting period,null,null,NA,NA,critical,t,c,d,240,164,164,240,227.1683,158.0083,trueblood,0.09,w,240,164,164,240,227.1683,158.0083,39360,39360,35894.4834,tc,null,null,null,null,null,null,"[1,2]"
NA,canvas-keyboard-response,187,209991,0.0-6.0-1.30,5014,NA,NA,NA,NA,clear_screen,null,null,NA,NA,critical,t,c,d,240,164,164,240,227.1683,158.0083,trueblood,0.09,w,240,164,164,240,227.1683,158.0083,39360,39360,35894.4834,tc,null,null,null,null,null,null,"[1,2]"
NA,canvas-keyboard-response,188,211337,0.0-6.0-2.30,5014,NA,NA,NA,NA,rectangles,null,null,NA,NA,critical,t,c,d,240,164,164,240,227.1683,158.0083,trueblood,0.09,w,240,164,164,240,227.1683,158.0083,39360,39360,35894.4834,tc,null,null,null,null,null,null,"[1,2]"
NA,canvas-keyboard-response,189,211506,0.0-6.0-3.30,5014,NA,NA,NA,NA,clear_screen,null,null,NA,NA,critical,t,c,d,240,164,164,240,227.1683,158.0083,trueblood,0.09,w,240,164,164,240,227.1683,158.0083,39360,39360,35894.4834,tc,null,null,null,null,null,null,"[1,2]"
NA,canvas-keyboard-response,190,212725,0.0-6.0-4.30,5014,NA,NA,NA,NA,make choice,1201,2,NA,NA,critical,t,c,d,240,164,164,240,227.1683,158.0083,trueblood,0.09,w,240,164,164,240,227.1683,158.0083,39360,39360,35894.4834,tc,null,null,null,null,null,null,"[1,2]"
NA,canvas-keyboard-response,191,212893,0.0-6.0-5.30,5014,NA,NA,NA,NA,clear_screen,null,null,NA,NA,critical,t,c,d,240,164,164,240,227.1683,158.0083,trueblood,0.09,w,240,164,164,240,227.1683,158.0083,39360,39360,35894.4834,tc,null,null,null,null,null,null,"[1,2]"
NA,canvas-keyboard-response,192,213106,0.0-6.0-0.31,5014,NA,NA,NA,NA,pre trial waiting period,null,null,NA,NA,catch,sw,l,sh,180,200,225,189,188,202,spektor,null,null,null,null,null,null,null,null,null,null,null,NA,180,200,260,200,36000,52000,"[2,3]"
NA,canvas-keyboard-response,193,213265,0.0-6.0-1.31,5014,NA,NA,NA,NA,clear_screen,null,null,NA,NA,catch,sw,l,sh,180,200,225,189,188,202,spektor,null,null,null,null,null,null,null,null,null,null,null,NA,180,200,260,200,36000,52000,"[2,3]"
NA,canvas-keyboard-response,194,214610,0.0-6.0-2.31,5014,NA,NA,NA,NA,rectangles,null,null,NA,NA,catch,sw,l,sh,180,200,225,189,188,202,spektor,null,null,null,null,null,null,null,null,null,null,null,NA,180,200,260,200,36000,52000,"[2,3]"
NA,canvas-keyboard-response,195,214780,0.0-6.0-3.31,5014,NA,NA,NA,NA,clear_screen,null,null,NA,NA,catch,sw,l,sh,180,200,225,189,188,202,spektor,null,null,null,null,null,null,null,null,null,null,null,NA,180,200,260,200,36000,52000,"[2,3]"
NA,canvas-keyboard-response,196,215532,0.0-6.0-4.31,5014,NA,NA,NA,NA,make choice,733,2,NA,NA,catch,sw,l,sh,180,200,225,189,188,202,spektor,null,null,null,null,null,null,null,null,null,null,null,NA,180,200,260,200,36000,52000,"[2,3]"
NA,canvas-keyboard-response,197,215699,0.0-6.0-5.31,5014,NA,NA,NA,NA,clear_screen,null,null,NA,NA,catch,sw,l,sh,180,200,225,189,188,202,spektor,null,null,null,null,null,null,null,null,null,null,null,NA,180,200,260,200,36000,52000,"[2,3]"
NA,canvas-keyboard-response,198,215912,0.0-6.0-0.32,5014,NA,NA,NA,NA,pre trial waiting period,null,null,NA,NA,critical,t,c,d,164,240,240,164,154.6796,220.0396,trueblood,0.14,h,164,240,240,164,154.6796,220.0396,39360,39360,34035.6388,dc,null,null,null,null,null,null,"[3,2]"
NA,canvas-keyboard-response,199,216073,0.0-6.0-1.32,5014,NA,NA,NA,NA,clear_screen,null,null,NA,NA,critical,t,c,d,164,240,240,164,154.6796,220.0396,trueblood,0.14,h,164,240,240,164,154.6796,220.0396,39360,39360,34035.6388,dc,null,null,null,null,null,null,"[3,2]"
NA,canvas-keyboard-response,200,217417,0.0-6.0-2.32,5014,NA,NA,NA,NA,rectangles,null,null,NA,NA,critical,t,c,d,164,240,240,164,154.6796,220.0396,trueblood,0.14,h,164,240,240,164,154.6796,220.0396,39360,39360,34035.6388,dc,null,null,null,null,null,null,"[3,2]"
NA,canvas-keyboard-response,201,217587,0.0-6.0-3.32,5014,NA,NA,NA,NA,clear_screen,null,null,NA,NA,critical,t,c,d,164,240,240,164,154.6796,220.0396,trueblood,0.14,h,164,240,240,164,154.6796,220.0396,39360,39360,34035.6388,dc,null,null,null,null,null,null,"[3,2]"
NA,canvas-keyboard-response,202,218180,0.0-6.0-4.32,5014,NA,NA,NA,NA,make choice,573,2,NA,NA,critical,t,c,d,164,240,240,164,154.6796,220.0396,trueblood,0.14,h,164,240,240,164,154.6796,220.0396,39360,39360,34035.6388,dc,null,null,null,null,null,null,"[3,2]"
NA,canvas-keyboard-response,203,218350,0.0-6.0-5.32,5014,NA,NA,NA,NA,clear_screen,null,null,NA,NA,critical,t,c,d,164,240,240,164,154.6796,220.0396,trueblood,0.14,h,164,240,240,164,154.6796,220.0396,39360,39360,34035.6388,dc,null,null,null,null,null,null,"[3,2]"
NA,canvas-keyboard-response,204,218563,0.0-6.0-0.33,5014,NA,NA,NA,NA,pre trial waiting period,null,null,NA,NA,critical,c,t,d,164,240,240,164,220.0396,154.6796,trueblood,0.14,w,240,164,164,240,220.0396,154.6796,39360,39360,34035.6388,td,null,null,null,null,null,null,"[2,3]"
NA,canvas-keyboard-response,205,218723,0.0-6.0-1.33,5014,NA,NA,NA,NA,clear_screen,null,null,NA,NA,critical,c,t,d,164,240,240,164,220.0396,154.6796,trueblood,0.14,w,240,164,164,240,220.0396,154.6796,39360,39360,34035.6388,td,null,null,null,null,null,null,"[2,3]"
NA,canvas-keyboard-response,206,220067,0.0-6.0-2.33,5014,NA,NA,NA,NA,rectangles,null,null,NA,NA,critical,c,t,d,164,240,240,164,220.0396,154.6796,trueblood,0.14,w,240,164,164,240,220.0396,154.6796,39360,39360,34035.6388,td,null,null,null,null,null,null,"[2,3]"
NA,canvas-keyboard-response,207,220236,0.0-6.0-3.33,5014,NA,NA,NA,NA,clear_screen,null,null,NA,NA,critical,c,t,d,164,240,240,164,220.0396,154.6796,trueblood,0.14,w,240,164,164,240,220.0396,154.6796,39360,39360,34035.6388,td,null,null,null,null,null,null,"[2,3]"
NA,canvas-keyboard-response,208,220772,0.0-6.0-4.33,5014,NA,NA,NA,NA,make choice,517,2,NA,NA,critical,c,t,d,164,240,240,164,220.0396,154.6796,trueblood,0.14,w,240,164,164,240,220.0396,154.6796,39360,39360,34035.6388,td,null,null,null,null,null,null,"[2,3]"
NA,canvas-keyboard-response,209,220940,0.0-6.0-5.33,5014,NA,NA,NA,NA,clear_screen,null,null,NA,NA,critical,c,t,d,164,240,240,164,220.0396,154.6796,trueblood,0.14,w,240,164,164,240,220.0396,154.6796,39360,39360,34035.6388,td,null,null,null,null,null,null,"[2,3]"
NA,canvas-keyboard-response,210,221153,0.0-6.0-0.34,5014,NA,NA,NA,NA,pre trial waiting period,null,null,NA,NA,critical,d,t,c,232.8713,160.6713,240,164,164,240,trueblood,0.05,w,240,164,164,240,232.8713,160.6713,39360,39360,37415.7294,td,null,null,null,null,null,null,"[2,1]"
NA,canvas-keyboard-response,211,221313,0.0-6.0-1.34,5014,NA,NA,NA,NA,clear_screen,null,null,NA,NA,critical,d,t,c,232.8713,160.6713,240,164,164,240,trueblood,0.05,w,240,164,164,240,232.8713,160.6713,39360,39360,37415.7294,td,null,null,null,null,null,null,"[2,1]"
NA,canvas-keyboard-response,212,222660,0.0-6.0-2.34,5014,NA,NA,NA,NA,rectangles,null,null,NA,NA,critical,d,t,c,232.8713,160.6713,240,164,164,240,trueblood,0.05,w,240,164,164,240,232.8713,160.6713,39360,39360,37415.7294,td,null,null,null,null,null,null,"[2,1]"
NA,canvas-keyboard-response,213,222828,0.0-6.0-3.34,5014,NA,NA,NA,NA,clear_screen,null,null,NA,NA,critical,d,t,c,232.8713,160.6713,240,164,164,240,trueblood,0.05,w,240,164,164,240,232.8713,160.6713,39360,39360,37415.7294,td,null,null,null,null,null,null,"[2,1]"
NA,canvas-keyboard-response,214,223412,0.0-6.0-4.34,5014,NA,NA,NA,NA,make choice,564,2,NA,NA,critical,d,t,c,232.8713,160.6713,240,164,164,240,trueblood,0.05,w,240,164,164,240,232.8713,160.6713,39360,39360,37415.7294,td,null,null,null,null,null,null,"[2,1]"
NA,canvas-keyboard-response,215,223581,0.0-6.0-5.34,5014,NA,NA,NA,NA,clear_screen,null,null,NA,NA,critical,d,t,c,232.8713,160.6713,240,164,164,240,trueblood,0.05,w,240,164,164,240,232.8713,160.6713,39360,39360,37415.7294,td,null,null,null,null,null,null,"[2,1]"
NA,canvas-keyboard-response,216,223795,0.0-6.0-0.35,5014,NA,NA,NA,NA,pre trial waiting period,null,null,NA,NA,critical,d,t,c,240,164,240,164,164,240,spektor,0,w,240,164,164,240,240,164,39360,39360,39360,tc,null,null,null,null,null,null,"[2,3]"
NA,canvas-keyboard-response,217,223954,0.0-6.0-1.35,5014,NA,NA,NA,NA,clear_screen,null,null,NA,NA,critical,d,t,c,240,164,240,164,164,240,spektor,0,w,240,164,164,240,240,164,39360,39360,39360,tc,null,null,null,null,null,null,"[2,3]"
NA,canvas-keyboard-response,218,225300,0.0-6.0-2.35,5014,NA,NA,NA,NA,rectangles,null,null,NA,NA,critical,d,t,c,240,164,240,164,164,240,spektor,0,w,240,164,164,240,240,164,39360,39360,39360,tc,null,null,null,null,null,null,"[2,3]"
NA,canvas-keyboard-response,219,225469,0.0-6.0-3.35,5014,NA,NA,NA,NA,clear_screen,null,null,NA,NA,critical,d,t,c,240,164,240,164,164,240,spektor,0,w,240,164,164,240,240,164,39360,39360,39360,tc,null,null,null,null,null,null,"[2,3]"
NA,canvas-keyboard-response,220,226339,0.0-6.0-4.35,5014,NA,NA,NA,NA,make choice,852,3,NA,NA,critical,d,t,c,240,164,240,164,164,240,spektor,0,w,240,164,164,240,240,164,39360,39360,39360,tc,null,null,null,null,null,null,"[2,3]"
NA,canvas-keyboard-response,221,226506,0.0-6.0-5.35,5014,NA,NA,NA,NA,clear_screen,null,null,NA,NA,critical,d,t,c,240,164,240,164,164,240,spektor,0,w,240,164,164,240,240,164,39360,39360,39360,tc,null,null,null,null,null,null,"[2,3]"
NA,canvas-keyboard-response,222,226720,0.0-6.0-0.36,5014,NA,NA,NA,NA,pre trial waiting period,null,null,NA,NA,critical,c,t,d,240,164,164,240,160.6713,232.8713,spektor,0.05,h,164,240,240,164,160.6713,232.8713,39360,39360,37415.7294,dc,null,null,null,null,null,null,"[3,1]"
NA,canvas-keyboard-response,223,226879,0.0-6.0-1.36,5014,NA,NA,NA,NA,clear_screen,null,null,NA,NA,critical,c,t,d,240,164,164,240,160.6713,232.8713,spektor,0.05,h,164,240,240,164,160.6713,232.8713,39360,39360,37415.7294,dc,null,null,null,null,null,null,"[3,1]"
NA,canvas-keyboard-response,224,228225,0.0-6.0-2.36,5014,NA,NA,NA,NA,rectangles,null,null,NA,NA,critical,c,t,d,240,164,164,240,160.6713,232.8713,spektor,0.05,h,164,240,240,164,160.6713,232.8713,39360,39360,37415.7294,dc,null,null,null,null,null,null,"[3,1]"
NA,canvas-keyboard-response,225,228394,0.0-6.0-3.36,5014,NA,NA,NA,NA,clear_screen,null,null,NA,NA,critical,c,t,d,240,164,164,240,160.6713,232.8713,spektor,0.05,h,164,240,240,164,160.6713,232.8713,39360,39360,37415.7294,dc,null,null,null,null,null,null,"[3,1]"
NA,canvas-keyboard-response,226,229132,0.0-6.0-4.36,5014,NA,NA,NA,NA,make choice,718,3,NA,NA,critical,c,t,d,240,164,164,240,160.6713,232.8713,spektor,0.05,h,164,240,240,164,160.6713,232.8713,39360,39360,37415.7294,dc,null,null,null,null,null,null,"[3,1]"
NA,canvas-keyboard-response,227,229301,0.0-6.0-5.36,5014,NA,NA,NA,NA,clear_screen,null,null,NA,NA,critical,c,t,d,240,164,164,240,160.6713,232.8713,spektor,0.05,h,164,240,240,164,160.6713,232.8713,39360,39360,37415.7294,dc,null,null,null,null,null,null,"[3,1]"
NA,canvas-keyboard-response,228,229515,0.0-6.0-0.37,5014,NA,NA,NA,NA,pre trial waiting period,null,null,NA,NA,catch,sw,sh,l,180,200,235,174,187,268,trueblood,null,null,null,null,null,null,null,null,null,null,null,NA,180,200,260,200,36000,52000,"[1,3]"
NA,canvas-keyboard-response,229,229674,0.0-6.0-1.37,5014,NA,NA,NA,NA,clear_screen,null,null,NA,NA,catch,sw,sh,l,180,200,235,174,187,268,trueblood,null,null,null,null,null,null,null,null,null,null,null,NA,180,200,260,200,36000,52000,"[1,3]"
NA,canvas-keyboard-response,230,231019,0.0-6.0-2.37,5014,NA,NA,NA,NA,rectangles,null,null,NA,NA,catch,sw,sh,l,180,200,235,174,187,268,trueblood,null,null,null,null,null,null,null,null,null,null,null,NA,180,200,260,200,36000,52000,"[1,3]"
NA,canvas-keyboard-response,231,231189,0.0-6.0-3.37,5014,NA,NA,NA,NA,clear_screen,null,null,NA,NA,catch,sw,sh,l,180,200,235,174,187,268,trueblood,null,null,null,null,null,null,null,null,null,null,null,NA,180,200,260,200,36000,52000,"[1,3]"
NA,canvas-keyboard-response,232,231940,0.0-6.0-4.37,5014,NA,NA,NA,NA,make choice,731,3,NA,NA,catch,sw,sh,l,180,200,235,174,187,268,trueblood,null,null,null,null,null,null,null,null,null,null,null,NA,180,200,260,200,36000,52000,"[1,3]"
NA,canvas-keyboard-response,233,232109,0.0-6.0-5.37,5014,NA,NA,NA,NA,clear_screen,null,null,NA,NA,catch,sw,sh,l,180,200,235,174,187,268,trueblood,null,null,null,null,null,null,null,null,null,null,null,NA,180,200,260,200,36000,52000,"[1,3]"
NA,canvas-keyboard-response,234,232324,0.0-6.0-0.38,5014,NA,NA,NA,NA,pre trial waiting period,null,null,NA,NA,critical,d,c,t,227.1683,158.0083,164,240,240,164,spektor,0.09,w,240,164,164,240,227.1683,158.0083,39360,39360,35894.4834,tc,null,null,null,null,null,null,"[3,2]"
NA,canvas-keyboard-response,235,232483,0.0-6.0-1.38,5014,NA,NA,NA,NA,clear_screen,null,null,NA,NA,critical,d,c,t,227.1683,158.0083,164,240,240,164,spektor,0.09,w,240,164,164,240,227.1683,158.0083,39360,39360,35894.4834,tc,null,null,null,null,null,null,"[3,2]"
NA,canvas-keyboard-response,236,233829,0.0-6.0-2.38,5014,NA,NA,NA,NA,rectangles,null,null,NA,NA,critical,d,c,t,227.1683,158.0083,164,240,240,164,spektor,0.09,w,240,164,164,240,227.1683,158.0083,39360,39360,35894.4834,tc,null,null,null,null,null,null,"[3,2]"
NA,canvas-keyboard-response,237,234001,0.0-6.0-3.38,5014,NA,NA,NA,NA,clear_screen,null,null,NA,NA,critical,d,c,t,227.1683,158.0083,164,240,240,164,spektor,0.09,w,240,164,164,240,227.1683,158.0083,39360,39360,35894.4834,tc,null,null,null,null,null,null,"[3,2]"
NA,canvas-keyboard-response,238,234692,0.0-6.0-4.38,5014,NA,NA,NA,NA,make choice,671,2,NA,NA,critical,d,c,t,227.1683,158.0083,164,240,240,164,spektor,0.09,w,240,164,164,240,227.1683,158.0083,39360,39360,35894.4834,tc,null,null,null,null,null,null,"[3,2]"
NA,canvas-keyboard-response,239,234861,0.0-6.0-5.38,5014,NA,NA,NA,NA,clear_screen,null,null,NA,NA,critical,d,c,t,227.1683,158.0083,164,240,240,164,spektor,0.09,w,240,164,164,240,227.1683,158.0083,39360,39360,35894.4834,tc,null,null,null,null,null,null,"[3,2]"
NA,canvas-keyboard-response,240,235075,0.0-6.0-0.39,5014,NA,NA,NA,NA,pre trial waiting period,null,null,NA,NA,catch,l,sw,sh,208,283,208,239,191,181,spektor,null,null,null,null,null,null,null,null,null,null,null,NA,180,200,260,200,36000,52000,"[1,2]"
NA,canvas-keyboard-response,241,235234,0.0-6.0-1.39,5014,NA,NA,NA,NA,clear_screen,null,null,NA,NA,catch,l,sw,sh,208,283,208,239,191,181,spektor,null,null,null,null,null,null,null,null,null,null,null,NA,180,200,260,200,36000,52000,"[1,2]"
NA,canvas-keyboard-response,242,236581,0.0-6.0-2.39,5014,NA,NA,NA,NA,rectangles,null,null,NA,NA,catch,l,sw,sh,208,283,208,239,191,181,spektor,null,null,null,null,null,null,null,null,null,null,null,NA,180,200,260,200,36000,52000,"[1,2]"
NA,canvas-keyboard-response,243,236751,0.0-6.0-3.39,5014,NA,NA,NA,NA,clear_screen,null,null,NA,NA,catch,l,sw,sh,208,283,208,239,191,181,spektor,null,null,null,null,null,null,null,null,null,null,null,NA,180,200,260,200,36000,52000,"[1,2]"
NA,canvas-keyboard-response,244,237644,0.0-6.0-4.39,5014,NA,NA,NA,NA,make choice,874,1,NA,NA,catch,l,sw,sh,208,283,208,239,191,181,spektor,null,null,null,null,null,null,null,null,null,null,null,NA,180,200,260,200,36000,52000,"[1,2]"
NA,canvas-keyboard-response,245,237816,0.0-6.0-5.39,5014,NA,NA,NA,NA,clear_screen,null,null,NA,NA,catch,l,sw,sh,208,283,208,239,191,181,spektor,null,null,null,null,null,null,null,null,null,null,null,NA,180,200,260,200,36000,52000,"[1,2]"
NA,canvas-keyboard-response,246,238030,0.0-6.0-0.40,5014,NA,NA,NA,NA,pre trial waiting period,null,null,NA,NA,catch,sw,sh,l,180,200,168,151,195,243,spektor,null,null,null,null,null,null,null,null,null,null,null,NA,180,200,260,200,36000,52000,"[1,3]"
NA,canvas-keyboard-response,247,238189,0.0-6.0-1.40,5014,NA,NA,NA,NA,clear_screen,null,null,NA,NA,catch,sw,sh,l,180,200,168,151,195,243,spektor,null,null,null,null,null,null,null,null,null,null,null,NA,180,200,260,200,36000,52000,"[1,3]"
NA,canvas-keyboard-response,248,239536,0.0-6.0-2.40,5014,NA,NA,NA,NA,rectangles,null,null,NA,NA,catch,sw,sh,l,180,200,168,151,195,243,spektor,null,null,null,null,null,null,null,null,null,null,null,NA,180,200,260,200,36000,52000,"[1,3]"
NA,canvas-keyboard-response,249,239707,0.0-6.0-3.40,5014,NA,NA,NA,NA,clear_screen,null,null,NA,NA,catch,sw,sh,l,180,200,168,151,195,243,spektor,null,null,null,null,null,null,null,null,null,null,null,NA,180,200,260,200,36000,52000,"[1,3]"
NA,canvas-keyboard-response,250,240643,0.0-6.0-4.40,5014,NA,NA,NA,NA,make choice,917,3,NA,NA,catch,sw,sh,l,180,200,168,151,195,243,spektor,null,null,null,null,null,null,null,null,null,null,null,NA,180,200,260,200,36000,52000,"[1,3]"
NA,canvas-keyboard-response,251,240814,0.0-6.0-5.40,5014,NA,NA,NA,NA,clear_screen,null,null,NA,NA,catch,sw,sh,l,180,200,168,151,195,243,spektor,null,null,null,null,null,null,null,null,null,null,null,NA,180,200,260,200,36000,52000,"[1,3]"
NA,canvas-keyboard-response,252,241029,0.0-6.0-0.41,5014,NA,NA,NA,NA,pre trial waiting period,null,null,NA,NA,catch,sh,sw,l,185,204,187,234,271,215,trueblood,null,null,null,null,null,null,null,null,null,null,null,NA,180,200,260,200,36000,52000,"[1,3]"
NA,canvas-keyboard-response,253,241188,0.0-6.0-1.41,5014,NA,NA,NA,NA,clear_screen,null,null,NA,NA,catch,sh,sw,l,185,204,187,234,271,215,trueblood,null,null,null,null,null,null,null,null,null,null,null,NA,180,200,260,200,36000,52000,"[1,3]"
NA,canvas-keyboard-response,254,242537,0.0-6.0-2.41,5014,NA,NA,NA,NA,rectangles,null,null,NA,NA,catch,sh,sw,l,185,204,187,234,271,215,trueblood,null,null,null,null,null,null,null,null,null,null,null,NA,180,200,260,200,36000,52000,"[1,3]"
NA,canvas-keyboard-response,255,242707,0.0-6.0-3.41,5014,NA,NA,NA,NA,clear_screen,null,null,NA,NA,catch,sh,sw,l,185,204,187,234,271,215,trueblood,null,null,null,null,null,null,null,null,null,null,null,NA,180,200,260,200,36000,52000,"[1,3]"
NA,canvas-keyboard-response,256,243515,0.0-6.0-4.41,5014,NA,NA,NA,NA,make choice,788,3,NA,NA,catch,sh,sw,l,185,204,187,234,271,215,trueblood,null,null,null,null,null,null,null,null,null,null,null,NA,180,200,260,200,36000,52000,"[1,3]"
NA,canvas-keyboard-response,257,243685,0.0-6.0-5.41,5014,NA,NA,NA,NA,clear_screen,null,null,NA,NA,catch,sh,sw,l,185,204,187,234,271,215,trueblood,null,null,null,null,null,null,null,null,null,null,null,NA,180,200,260,200,36000,52000,"[1,3]"
NA,canvas-keyboard-response,258,243900,0.0-6.0-0.42,5014,NA,NA,NA,NA,pre trial waiting period,null,null,NA,NA,critical,d,c,t,237.1485,162.6685,164,240,240,164,trueblood,0.02,w,240,164,164,240,237.1485,162.6685,39360,39360,38576.5967,tc,null,null,null,null,null,null,"[3,2]"
NA,canvas-keyboard-response,259,244060,0.0-6.0-1.42,5014,NA,NA,NA,NA,clear_screen,null,null,NA,NA,critical,d,c,t,237.1485,162.6685,164,240,240,164,trueblood,0.02,w,240,164,164,240,237.1485,162.6685,39360,39360,38576.5967,tc,null,null,null,null,null,null,"[3,2]"
NA,canvas-keyboard-response,260,245407,0.0-6.0-2.42,5014,NA,NA,NA,NA,rectangles,null,null,NA,NA,critical,d,c,t,237.1485,162.6685,164,240,240,164,trueblood,0.02,w,240,164,164,240,237.1485,162.6685,39360,39360,38576.5967,tc,null,null,null,null,null,null,"[3,2]"
NA,canvas-keyboard-response,261,245579,0.0-6.0-3.42,5014,NA,NA,NA,NA,clear_screen,null,null,NA,NA,critical,d,c,t,237.1485,162.6685,164,240,240,164,trueblood,0.02,w,240,164,164,240,237.1485,162.6685,39360,39360,38576.5967,tc,null,null,null,null,null,null,"[3,2]"
NA,canvas-keyboard-response,262,247093,0.0-6.0-4.42,5014,NA,NA,NA,NA,make choice,1491,3,NA,NA,critical,d,c,t,237.1485,162.6685,164,240,240,164,trueblood,0.02,w,240,164,164,240,237.1485,162.6685,39360,39360,38576.5967,tc,null,null,null,null,null,null,"[3,2]"
NA,canvas-keyboard-response,263,247278,0.0-6.0-5.42,5014,NA,NA,NA,NA,clear_screen,null,null,NA,NA,critical,d,c,t,237.1485,162.6685,164,240,240,164,trueblood,0.02,w,240,164,164,240,237.1485,162.6685,39360,39360,38576.5967,tc,null,null,null,null,null,null,"[3,2]"
NA,canvas-keyboard-response,264,247507,0.0-6.0-0.43,5014,NA,NA,NA,NA,pre trial waiting period,null,null,NA,NA,catch,l,sw,sh,242,214,181,163,236,186,trueblood,null,null,null,null,null,null,null,null,null,null,null,NA,180,200,260,200,36000,52000,"[1,3]"
NA,canvas-keyboard-response,265,247669,0.0-6.0-1.43,5014,NA,NA,NA,NA,clear_screen,null,null,NA,NA,catch,l,sw,sh,242,214,181,163,236,186,trueblood,null,null,null,null,null,null,null,null,null,null,null,NA,180,200,260,200,36000,52000,"[1,3]"
NA,canvas-keyboard-response,266,249016,0.0-6.0-2.43,5014,NA,NA,NA,NA,rectangles,null,null,NA,NA,catch,l,sw,sh,242,214,181,163,236,186,trueblood,null,null,null,null,null,null,null,null,null,null,null,NA,180,200,260,200,36000,52000,"[1,3]"
NA,canvas-keyboard-response,267,249188,0.0-6.0-3.43,5014,NA,NA,NA,NA,clear_screen,null,null,NA,NA,catch,l,sw,sh,242,214,181,163,236,186,trueblood,null,null,null,null,null,null,null,null,null,null,null,NA,180,200,260,200,36000,52000,"[1,3]"
NA,canvas-keyboard-response,268,250036,0.0-6.0-4.43,5014,NA,NA,NA,NA,make choice,827,1,NA,NA,catch,l,sw,sh,242,214,181,163,236,186,trueblood,null,null,null,null,null,null,null,null,null,null,null,NA,180,200,260,200,36000,52000,"[1,3]"
NA,canvas-keyboard-response,269,250207,0.0-6.0-5.43,5014,NA,NA,NA,NA,clear_screen,null,null,NA,NA,catch,l,sw,sh,242,214,181,163,236,186,trueblood,null,null,null,null,null,null,null,null,null,null,null,NA,180,200,260,200,36000,52000,"[1,3]"
NA,canvas-keyboard-response,270,250425,0.0-6.0-0.44,5014,NA,NA,NA,NA,pre trial waiting period,null,null,NA,NA,catch,sw,sh,l,180,200,166,166,269,206,trueblood,null,null,null,null,null,null,null,null,null,null,null,NA,180,200,260,200,36000,52000,"[1,3]"
NA,canvas-keyboard-response,271,250584,0.0-6.0-1.44,5014,NA,NA,NA,NA,clear_screen,null,null,NA,NA,catch,sw,sh,l,180,200,166,166,269,206,trueblood,null,null,null,null,null,null,null,null,null,null,null,NA,180,200,260,200,36000,52000,"[1,3]"
NA,canvas-keyboard-response,272,251932,0.0-6.0-2.44,5014,NA,NA,NA,NA,rectangles,null,null,NA,NA,catch,sw,sh,l,180,200,166,166,269,206,trueblood,null,null,null,null,null,null,null,null,null,null,null,NA,180,200,260,200,36000,52000,"[1,3]"
NA,canvas-keyboard-response,273,252104,0.0-6.0-3.44,5014,NA,NA,NA,NA,clear_screen,null,null,NA,NA,catch,sw,sh,l,180,200,166,166,269,206,trueblood,null,null,null,null,null,null,null,null,null,null,null,NA,180,200,260,200,36000,52000,"[1,3]"
NA,canvas-keyboard-response,274,253196,0.0-6.0-4.44,5014,NA,NA,NA,NA,make choice,1063,3,NA,NA,catch,sw,sh,l,180,200,166,166,269,206,trueblood,null,null,null,null,null,null,null,null,null,null,null,NA,180,200,260,200,36000,52000,"[1,3]"
NA,canvas-keyboard-response,275,253369,0.0-6.0-5.44,5014,NA,NA,NA,NA,clear_screen,null,null,NA,NA,catch,sw,sh,l,180,200,166,166,269,206,trueblood,null,null,null,null,null,null,null,null,null,null,null,NA,180,200,260,200,36000,52000,"[1,3]"
NA,canvas-keyboard-response,276,253590,0.0-6.0-0.45,5014,NA,NA,NA,NA,pre trial waiting period,null,null,NA,NA,critical,d,c,t,162.6685,237.1485,240,164,164,240,trueblood,0.02,h,164,240,240,164,162.6685,237.1485,39360,39360,38576.5967,dc,null,null,null,null,null,null,"[1,2]"
NA,canvas-keyboard-response,277,253750,0.0-6.0-1.45,5014,NA,NA,NA,NA,clear_screen,null,null,NA,NA,critical,d,c,t,162.6685,237.1485,240,164,164,240,trueblood,0.02,h,164,240,240,164,162.6685,237.1485,39360,39360,38576.5967,dc,null,null,null,null,null,null,"[1,2]"
NA,canvas-keyboard-response,278,255097,0.0-6.0-2.45,5014,NA,NA,NA,NA,rectangles,null,null,NA,NA,critical,d,c,t,162.6685,237.1485,240,164,164,240,trueblood,0.02,h,164,240,240,164,162.6685,237.1485,39360,39360,38576.5967,dc,null,null,null,null,null,null,"[1,2]"
NA,canvas-keyboard-response,279,255269,0.0-6.0-3.45,5014,NA,NA,NA,NA,clear_screen,null,null,NA,NA,critical,d,c,t,162.6685,237.1485,240,164,164,240,trueblood,0.02,h,164,240,240,164,162.6685,237.1485,39360,39360,38576.5967,dc,null,null,null,null,null,null,"[1,2]"
NA,canvas-keyboard-response,280,257052,0.0-6.0-4.45,5014,NA,NA,NA,NA,make choice,1761,2,NA,NA,critical,d,c,t,162.6685,237.1485,240,164,164,240,trueblood,0.02,h,164,240,240,164,162.6685,237.1485,39360,39360,38576.5967,dc,null,null,null,null,null,null,"[1,2]"
NA,canvas-keyboard-response,281,257223,0.0-6.0-5.45,5014,NA,NA,NA,NA,clear_screen,null,null,NA,NA,critical,d,c,t,162.6685,237.1485,240,164,164,240,trueblood,0.02,h,164,240,240,164,162.6685,237.1485,39360,39360,38576.5967,dc,null,null,null,null,null,null,"[1,2]"
NA,canvas-keyboard-response,282,257438,0.0-6.0-0.46,5014,NA,NA,NA,NA,pre trial waiting period,null,null,NA,NA,critical,t,c,d,240,164,164,240,240,164,spektor,0,w,240,164,164,240,240,164,39360,39360,39360,dc,null,null,null,null,null,null,"[3,2]"
NA,canvas-keyboard-response,283,257597,0.0-6.0-1.46,5014,NA,NA,NA,NA,clear_screen,null,null,NA,NA,critical,t,c,d,240,164,164,240,240,164,spektor,0,w,240,164,164,240,240,164,39360,39360,39360,dc,null,null,null,null,null,null,"[3,2]"
NA,canvas-keyboard-response,284,258945,0.0-6.0-2.46,5014,NA,NA,NA,NA,rectangles,null,null,NA,NA,critical,t,c,d,240,164,164,240,240,164,spektor,0,w,240,164,164,240,240,164,39360,39360,39360,dc,null,null,null,null,null,null,"[3,2]"
NA,canvas-keyboard-response,285,259116,0.0-6.0-3.46,5014,NA,NA,NA,NA,clear_screen,null,null,NA,NA,critical,t,c,d,240,164,164,240,240,164,spektor,0,w,240,164,164,240,240,164,39360,39360,39360,dc,null,null,null,null,null,null,"[3,2]"
NA,canvas-keyboard-response,286,259625,0.0-6.0-4.46,5014,NA,NA,NA,NA,make choice,488,2,NA,NA,critical,t,c,d,240,164,164,240,240,164,spektor,0,w,240,164,164,240,240,164,39360,39360,39360,dc,null,null,null,null,null,null,"[3,2]"
NA,canvas-keyboard-response,287,259794,0.0-6.0-5.46,5014,NA,NA,NA,NA,clear_screen,null,null,NA,NA,critical,t,c,d,240,164,164,240,240,164,spektor,0,w,240,164,164,240,240,164,39360,39360,39360,dc,null,null,null,null,null,null,"[3,2]"
NA,canvas-keyboard-response,288,260010,0.0-6.0-0.47,5014,NA,NA,NA,NA,pre trial waiting period,null,null,NA,NA,catch,l,sh,sw,208,222,167,168,198,167,trueblood,null,null,null,null,null,null,null,null,null,null,null,NA,180,200,260,200,36000,52000,"[1,3]"
NA,canvas-keyboard-response,289,260170,0.0-6.0-1.47,5014,NA,NA,NA,NA,clear_screen,null,null,NA,NA,catch,l,sh,sw,208,222,167,168,198,167,trueblood,null,null,null,null,null,null,null,null,null,null,null,NA,180,200,260,200,36000,52000,"[1,3]"
NA,canvas-keyboard-response,290,261518,0.0-6.0-2.47,5014,NA,NA,NA,NA,rectangles,null,null,NA,NA,catch,l,sh,sw,208,222,167,168,198,167,trueblood,null,null,null,null,null,null,null,null,null,null,null,NA,180,200,260,200,36000,52000,"[1,3]"
NA,canvas-keyboard-response,291,261689,0.0-6.0-3.47,5014,NA,NA,NA,NA,clear_screen,null,null,NA,NA,catch,l,sh,sw,208,222,167,168,198,167,trueblood,null,null,null,null,null,null,null,null,null,null,null,NA,180,200,260,200,36000,52000,"[1,3]"
NA,canvas-keyboard-response,292,262604,0.0-6.0-4.47,5014,NA,NA,NA,NA,make choice,893,1,NA,NA,catch,l,sh,sw,208,222,167,168,198,167,trueblood,null,null,null,null,null,null,null,null,null,null,null,NA,180,200,260,200,36000,52000,"[1,3]"
NA,canvas-keyboard-response,293,262774,0.0-6.0-5.47,5014,NA,NA,NA,NA,clear_screen,null,null,NA,NA,catch,l,sh,sw,208,222,167,168,198,167,trueblood,null,null,null,null,null,null,null,null,null,null,null,NA,180,200,260,200,36000,52000,"[1,3]"
NA,canvas-keyboard-response,294,262992,0.0-6.0-0.48,5014,NA,NA,NA,NA,pre trial waiting period,null,null,NA,NA,critical,c,t,d,240,164,164,240,164,240,trueblood,0,h,164,240,240,164,164,240,39360,39360,39360,dc,null,null,null,null,null,null,"[3,1]"
NA,canvas-keyboard-response,295,263151,0.0-6.0-1.48,5014,NA,NA,NA,NA,clear_screen,null,null,NA,NA,critical,c,t,d,240,164,164,240,164,240,trueblood,0,h,164,240,240,164,164,240,39360,39360,39360,dc,null,null,null,null,null,null,"[3,1]"
NA,canvas-keyboard-response,296,264498,0.0-6.0-2.48,5014,NA,NA,NA,NA,rectangles,null,null,NA,NA,critical,c,t,d,240,164,164,240,164,240,trueblood,0,h,164,240,240,164,164,240,39360,39360,39360,dc,null,null,null,null,null,null,"[3,1]"
NA,canvas-keyboard-response,297,264670,0.0-6.0-3.48,5014,NA,NA,NA,NA,clear_screen,null,null,NA,NA,critical,c,t,d,240,164,164,240,164,240,trueblood,0,h,164,240,240,164,164,240,39360,39360,39360,dc,null,null,null,null,null,null,"[3,1]"
NA,canvas-keyboard-response,298,265660,0.0-6.0-4.48,5014,NA,NA,NA,NA,make choice,966,1,NA,NA,critical,c,t,d,240,164,164,240,164,240,trueblood,0,h,164,240,240,164,164,240,39360,39360,39360,dc,null,null,null,null,null,null,"[3,1]"
NA,canvas-keyboard-response,299,265832,0.0-6.0-5.48,5014,NA,NA,NA,NA,clear_screen,null,null,NA,NA,critical,c,t,d,240,164,164,240,164,240,trueblood,0,h,164,240,240,164,164,240,39360,39360,39360,dc,null,null,null,null,null,null,"[3,1]"
NA,canvas-keyboard-response,300,266050,0.0-6.0-0.49,5014,NA,NA,NA,NA,pre trial waiting period,null,null,NA,NA,catch,sh,l,sw,196,177,247,166,164,236,trueblood,null,null,null,null,null,null,null,null,null,null,null,NA,180,200,260,200,36000,52000,"[1,2]"
NA,canvas-keyboard-response,301,266209,0.0-6.0-1.49,5014,NA,NA,NA,NA,clear_screen,null,null,NA,NA,catch,sh,l,sw,196,177,247,166,164,236,trueblood,null,null,null,null,null,null,null,null,null,null,null,NA,180,200,260,200,36000,52000,"[1,2]"
NA,canvas-keyboard-response,302,267560,0.0-6.0-2.49,5014,NA,NA,NA,NA,rectangles,null,null,NA,NA,catch,sh,l,sw,196,177,247,166,164,236,trueblood,null,null,null,null,null,null,null,null,null,null,null,NA,180,200,260,200,36000,52000,"[1,2]"
NA,canvas-keyboard-response,303,267733,0.0-6.0-3.49,5014,NA,NA,NA,NA,clear_screen,null,null,NA,NA,catch,sh,l,sw,196,177,247,166,164,236,trueblood,null,null,null,null,null,null,null,null,null,null,null,NA,180,200,260,200,36000,52000,"[1,2]"
NA,canvas-keyboard-response,304,268547,0.0-6.0-4.49,5014,NA,NA,NA,NA,make choice,792,2,NA,NA,catch,sh,l,sw,196,177,247,166,164,236,trueblood,null,null,null,null,null,null,null,null,null,null,null,NA,180,200,260,200,36000,52000,"[1,2]"
NA,canvas-keyboard-response,305,268718,0.0-6.0-5.49,5014,NA,NA,NA,NA,clear_screen,null,null,NA,NA,catch,sh,l,sw,196,177,247,166,164,236,trueblood,null,null,null,null,null,null,null,null,null,null,null,NA,180,200,260,200,36000,52000,"[1,2]"
NA,canvas-keyboard-response,306,268936,0.0-6.0-0.50,5014,NA,NA,NA,NA,pre trial waiting period,null,null,NA,NA,catch,l,sh,sw,221,184,207,215,183,181,spektor,null,null,null,null,null,null,null,null,null,null,null,NA,180,200,260,200,36000,52000,"[1,3]"
NA,canvas-keyboard-response,307,269094,0.0-6.0-1.50,5014,NA,NA,NA,NA,clear_screen,null,null,NA,NA,catch,l,sh,sw,221,184,207,215,183,181,spektor,null,null,null,null,null,null,null,null,null,null,null,NA,180,200,260,200,36000,52000,"[1,3]"
NA,canvas-keyboard-response,308,270444,0.0-6.0-2.50,5014,NA,NA,NA,NA,rectangles,null,null,NA,NA,catch,l,sh,sw,221,184,207,215,183,181,spektor,null,null,null,null,null,null,null,null,null,null,null,NA,180,200,260,200,36000,52000,"[1,3]"
NA,canvas-keyboard-response,309,270618,0.0-6.0-3.50,5014,NA,NA,NA,NA,clear_screen,null,null,NA,NA,catch,l,sh,sw,221,184,207,215,183,181,spektor,null,null,null,null,null,null,null,null,null,null,null,NA,180,200,260,200,36000,52000,"[1,3]"
NA,canvas-keyboard-response,310,272012,0.0-6.0-4.50,5014,NA,NA,NA,NA,make choice,1369,1,NA,NA,catch,l,sh,sw,221,184,207,215,183,181,spektor,null,null,null,null,null,null,null,null,null,null,null,NA,180,200,260,200,36000,52000,"[1,3]"
NA,canvas-keyboard-response,311,272183,0.0-6.0-5.50,5014,NA,NA,NA,NA,clear_screen,null,null,NA,NA,catch,l,sh,sw,221,184,207,215,183,181,spektor,null,null,null,null,null,null,null,null,null,null,null,NA,180,200,260,200,36000,52000,"[1,3]"
NA,canvas-keyboard-response,312,272401,0.0-6.0-0.51,5014,NA,NA,NA,NA,pre trial waiting period,null,null,NA,NA,catch,sw,l,sh,180,200,202,220,175,151,spektor,null,null,null,null,null,null,null,null,null,null,null,NA,180,200,260,200,36000,52000,"[1,2]"
NA,canvas-keyboard-response,313,272560,0.0-6.0-1.51,5014,NA,NA,NA,NA,clear_screen,null,null,NA,NA,catch,sw,l,sh,180,200,202,220,175,151,spektor,null,null,null,null,null,null,null,null,null,null,null,NA,180,200,260,200,36000,52000,"[1,2]"
NA,canvas-keyboard-response,314,273910,0.0-6.0-2.51,5014,NA,NA,NA,NA,rectangles,null,null,NA,NA,catch,sw,l,sh,180,200,202,220,175,151,spektor,null,null,null,null,null,null,null,null,null,null,null,NA,180,200,260,200,36000,52000,"[1,2]"
NA,canvas-keyboard-response,315,274083,0.0-6.0-3.51,5014,NA,NA,NA,NA,clear_screen,null,null,NA,NA,catch,sw,l,sh,180,200,202,220,175,151,spektor,null,null,null,null,null,null,null,null,null,null,null,NA,180,200,260,200,36000,52000,"[1,2]"
NA,canvas-keyboard-response,316,275459,0.0-6.0-4.51,5014,NA,NA,NA,NA,make choice,1352,1,NA,NA,catch,sw,l,sh,180,200,202,220,175,151,spektor,null,null,null,null,null,null,null,null,null,null,null,NA,180,200,260,200,36000,52000,"[1,2]"
NA,canvas-keyboard-response,317,275631,0.0-6.0-5.51,5014,NA,NA,NA,NA,clear_screen,null,null,NA,NA,catch,sw,l,sh,180,200,202,220,175,151,spektor,null,null,null,null,null,null,null,null,null,null,null,NA,180,200,260,200,36000,52000,"[1,2]"
NA,canvas-keyboard-response,318,275850,0.0-6.0-0.52,5014,NA,NA,NA,NA,pre trial waiting period,null,null,NA,NA,critical,t,d,c,240,164,227.1683,158.0083,164,240,spektor,0.09,w,240,164,164,240,227.1683,158.0083,39360,39360,35894.4834,dc,null,null,null,null,null,null,"[2,3]"
NA,canvas-keyboard-response,319,276009,0.0-6.0-1.52,5014,NA,NA,NA,NA,clear_screen,null,null,NA,NA,critical,t,d,c,240,164,227.1683,158.0083,164,240,spektor,0.09,w,240,164,164,240,227.1683,158.0083,39360,39360,35894.4834,dc,null,null,null,null,null,null,"[2,3]"
NA,canvas-keyboard-response,320,277360,0.0-6.0-2.52,5014,NA,NA,NA,NA,rectangles,null,null,NA,NA,critical,t,d,c,240,164,227.1683,158.0083,164,240,spektor,0.09,w,240,164,164,240,227.1683,158.0083,39360,39360,35894.4834,dc,null,null,null,null,null,null,"[2,3]"
NA,canvas-keyboard-response,321,277536,0.0-6.0-3.52,5014,NA,NA,NA,NA,clear_screen,null,null,NA,NA,critical,t,d,c,240,164,227.1683,158.0083,164,240,spektor,0.09,w,240,164,164,240,227.1683,158.0083,39360,39360,35894.4834,dc,null,null,null,null,null,null,"[2,3]"
NA,canvas-keyboard-response,322,278748,0.0-6.0-4.52,5014,NA,NA,NA,NA,make choice,1176,3,NA,NA,critical,t,d,c,240,164,227.1683,158.0083,164,240,spektor,0.09,w,240,164,164,240,227.1683,158.0083,39360,39360,35894.4834,dc,null,null,null,null,null,null,"[2,3]"
NA,canvas-keyboard-response,323,278934,0.0-6.0-5.52,5014,NA,NA,NA,NA,clear_screen,null,null,NA,NA,critical,t,d,c,240,164,227.1683,158.0083,164,240,spektor,0.09,w,240,164,164,240,227.1683,158.0083,39360,39360,35894.4834,dc,null,null,null,null,null,null,"[2,3]"
NA,canvas-keyboard-response,324,279153,0.0-6.0-0.53,5014,NA,NA,NA,NA,pre trial waiting period,null,null,NA,NA,critical,d,c,t,158.0083,227.1683,240,164,164,240,spektor,0.09,h,164,240,240,164,158.0083,227.1683,39360,39360,35894.4834,td,null,null,null,null,null,null,"[3,1]"
NA,canvas-keyboard-response,325,279314,0.0-6.0-1.53,5014,NA,NA,NA,NA,clear_screen,null,null,NA,NA,critical,d,c,t,158.0083,227.1683,240,164,164,240,spektor,0.09,h,164,240,240,164,158.0083,227.1683,39360,39360,35894.4834,td,null,null,null,null,null,null,"[3,1]"
NA,canvas-keyboard-response,326,280665,0.0-6.0-2.53,5014,NA,NA,NA,NA,rectangles,null,null,NA,NA,critical,d,c,t,158.0083,227.1683,240,164,164,240,spektor,0.09,h,164,240,240,164,158.0083,227.1683,39360,39360,35894.4834,td,null,null,null,null,null,null,"[3,1]"
NA,canvas-keyboard-response,327,280840,0.0-6.0-3.53,5014,NA,NA,NA,NA,clear_screen,null,null,NA,NA,critical,d,c,t,158.0083,227.1683,240,164,164,240,spektor,0.09,h,164,240,240,164,158.0083,227.1683,39360,39360,35894.4834,td,null,null,null,null,null,null,"[3,1]"
NA,canvas-keyboard-response,328,282139,0.0-6.0-4.53,5014,NA,NA,NA,NA,make choice,1274,3,NA,NA,critical,d,c,t,158.0083,227.1683,240,164,164,240,spektor,0.09,h,164,240,240,164,158.0083,227.1683,39360,39360,35894.4834,td,null,null,null,null,null,null,"[3,1]"
NA,canvas-keyboard-response,329,282311,0.0-6.0-5.53,5014,NA,NA,NA,NA,clear_screen,null,null,NA,NA,critical,d,c,t,158.0083,227.1683,240,164,164,240,spektor,0.09,h,164,240,240,164,158.0083,227.1683,39360,39360,35894.4834,td,null,null,null,null,null,null,"[3,1]"
NA,canvas-keyboard-response,330,282525,0.0-6.0-0.54,5014,NA,NA,NA,NA,pre trial waiting period,null,null,NA,NA,critical,t,c,d,240,164,164,240,240,164,trueblood,0,w,240,164,164,240,240,164,39360,39360,39360,td,null,null,null,null,null,null,"[1,3]"
NA,canvas-keyboard-response,331,282684,0.0-6.0-1.54,5014,NA,NA,NA,NA,clear_screen,null,null,NA,NA,critical,t,c,d,240,164,164,240,240,164,trueblood,0,w,240,164,164,240,240,164,39360,39360,39360,td,null,null,null,null,null,null,"[1,3]"
NA,canvas-keyboard-response,332,284035,0.0-6.0-2.54,5014,NA,NA,NA,NA,rectangles,null,null,NA,NA,critical,t,c,d,240,164,164,240,240,164,trueblood,0,w,240,164,164,240,240,164,39360,39360,39360,td,null,null,null,null,null,null,"[1,3]"
NA,canvas-keyboard-response,333,284209,0.0-6.0-3.54,5014,NA,NA,NA,NA,clear_screen,null,null,NA,NA,critical,t,c,d,240,164,164,240,240,164,trueblood,0,w,240,164,164,240,240,164,39360,39360,39360,td,null,null,null,null,null,null,"[1,3]"
NA,canvas-keyboard-response,334,284939,0.0-6.0-4.54,5014,NA,NA,NA,NA,make choice,704,1,NA,NA,critical,t,c,d,240,164,164,240,240,164,trueblood,0,w,240,164,164,240,240,164,39360,39360,39360,td,null,null,null,null,null,null,"[1,3]"
NA,canvas-keyboard-response,335,285110,0.0-6.0-5.54,5014,NA,NA,NA,NA,clear_screen,null,null,NA,NA,critical,t,c,d,240,164,164,240,240,164,trueblood,0,w,240,164,164,240,240,164,39360,39360,39360,td,null,null,null,null,null,null,"[1,3]"
NA,canvas-keyboard-response,336,285329,0.0-6.0-0.55,5014,NA,NA,NA,NA,pre trial waiting period,null,null,NA,NA,catch,sw,l,sh,180,200,263,221,172,160,trueblood,null,null,null,null,null,null,null,null,null,null,null,NA,180,200,260,200,36000,52000,"[2,3]"
NA,canvas-keyboard-response,337,285489,0.0-6.0-1.55,5014,NA,NA,NA,NA,clear_screen,null,null,NA,NA,catch,sw,l,sh,180,200,263,221,172,160,trueblood,null,null,null,null,null,null,null,null,null,null,null,NA,180,200,260,200,36000,52000,"[2,3]"
NA,canvas-keyboard-response,338,286839,0.0-6.0-2.55,5014,NA,NA,NA,NA,rectangles,null,null,NA,NA,catch,sw,l,sh,180,200,263,221,172,160,trueblood,null,null,null,null,null,null,null,null,null,null,null,NA,180,200,260,200,36000,52000,"[2,3]"
NA,canvas-keyboard-response,339,287014,0.0-6.0-3.55,5014,NA,NA,NA,NA,clear_screen,null,null,NA,NA,catch,sw,l,sh,180,200,263,221,172,160,trueblood,null,null,null,null,null,null,null,null,null,null,null,NA,180,200,260,200,36000,52000,"[2,3]"
NA,canvas-keyboard-response,340,288163,0.0-6.0-4.55,5014,NA,NA,NA,NA,make choice,1126,2,NA,NA,catch,sw,l,sh,180,200,263,221,172,160,trueblood,null,null,null,null,null,null,null,null,null,null,null,NA,180,200,260,200,36000,52000,"[2,3]"
NA,canvas-keyboard-response,341,288337,0.0-6.0-5.55,5014,NA,NA,NA,NA,clear_screen,null,null,NA,NA,catch,sw,l,sh,180,200,263,221,172,160,trueblood,null,null,null,null,null,null,null,null,null,null,null,NA,180,200,260,200,36000,52000,"[2,3]"
NA,canvas-keyboard-response,342,288558,0.0-6.0-0.56,5014,NA,NA,NA,NA,pre trial waiting period,null,null,NA,NA,critical,d,t,c,160.6713,232.8713,164,240,240,164,spektor,0.05,h,164,240,240,164,160.6713,232.8713,39360,39360,37415.7294,td,null,null,null,null,null,null,"[2,1]"
NA,canvas-keyboard-response,343,288718,0.0-6.0-1.56,5014,NA,NA,NA,NA,clear_screen,null,null,NA,NA,critical,d,t,c,160.6713,232.8713,164,240,240,164,spektor,0.05,h,164,240,240,164,160.6713,232.8713,39360,39360,37415.7294,td,null,null,null,null,null,null,"[2,1]"
NA,canvas-keyboard-response,344,290068,0.0-6.0-2.56,5014,NA,NA,NA,NA,rectangles,null,null,NA,NA,critical,d,t,c,160.6713,232.8713,164,240,240,164,spektor,0.05,h,164,240,240,164,160.6713,232.8713,39360,39360,37415.7294,td,null,null,null,null,null,null,"[2,1]"
NA,canvas-keyboard-response,345,290253,0.0-6.0-3.56,5014,NA,NA,NA,NA,clear_screen,null,null,NA,NA,critical,d,t,c,160.6713,232.8713,164,240,240,164,spektor,0.05,h,164,240,240,164,160.6713,232.8713,39360,39360,37415.7294,td,null,null,null,null,null,null,"[2,1]"
NA,canvas-keyboard-response,346,291028,0.0-6.0-4.56,5014,NA,NA,NA,NA,make choice,753,2,NA,NA,critical,d,t,c,160.6713,232.8713,164,240,240,164,spektor,0.05,h,164,240,240,164,160.6713,232.8713,39360,39360,37415.7294,td,null,null,null,null,null,null,"[2,1]"
NA,canvas-keyboard-response,347,291200,0.0-6.0-5.56,5014,NA,NA,NA,NA,clear_screen,null,null,NA,NA,critical,d,t,c,160.6713,232.8713,164,240,240,164,spektor,0.05,h,164,240,240,164,160.6713,232.8713,39360,39360,37415.7294,td,null,null,null,null,null,null,"[2,1]"
NA,canvas-keyboard-response,348,291419,0.0-6.0-0.57,5014,NA,NA,NA,NA,pre trial waiting period,null,null,NA,NA,critical,d,t,c,237.1485,162.6685,240,164,164,240,trueblood,0.02,w,240,164,164,240,237.1485,162.6685,39360,39360,38576.5967,dc,null,null,null,null,null,null,"[1,3]"
NA,canvas-keyboard-response,349,291578,0.0-6.0-1.57,5014,NA,NA,NA,NA,clear_screen,null,null,NA,NA,critical,d,t,c,237.1485,162.6685,240,164,164,240,trueblood,0.02,w,240,164,164,240,237.1485,162.6685,39360,39360,38576.5967,dc,null,null,null,null,null,null,"[1,3]"
NA,canvas-keyboard-response,350,292928,0.0-6.0-2.57,5014,NA,NA,NA,NA,rectangles,null,null,NA,NA,critical,d,t,c,237.1485,162.6685,240,164,164,240,trueblood,0.02,w,240,164,164,240,237.1485,162.6685,39360,39360,38576.5967,dc,null,null,null,null,null,null,"[1,3]"
NA,canvas-keyboard-response,351,293103,0.0-6.0-3.57,5014,NA,NA,NA,NA,clear_screen,null,null,NA,NA,critical,d,t,c,237.1485,162.6685,240,164,164,240,trueblood,0.02,w,240,164,164,240,237.1485,162.6685,39360,39360,38576.5967,dc,null,null,null,null,null,null,"[1,3]"
NA,canvas-keyboard-response,352,294884,0.0-6.0-4.57,5014,NA,NA,NA,NA,make choice,1756,1,NA,NA,critical,d,t,c,237.1485,162.6685,240,164,164,240,trueblood,0.02,w,240,164,164,240,237.1485,162.6685,39360,39360,38576.5967,dc,null,null,null,null,null,null,"[1,3]"
NA,canvas-keyboard-response,353,295058,0.0-6.0-5.57,5014,NA,NA,NA,NA,clear_screen,null,null,NA,NA,critical,d,t,c,237.1485,162.6685,240,164,164,240,trueblood,0.02,w,240,164,164,240,237.1485,162.6685,39360,39360,38576.5967,dc,null,null,null,null,null,null,"[1,3]"
NA,canvas-keyboard-response,354,295276,0.0-6.0-0.58,5014,NA,NA,NA,NA,pre trial waiting period,null,null,NA,NA,critical,c,t,d,164,240,240,164,240,164,spektor,0,w,240,164,164,240,240,164,39360,39360,39360,td,null,null,null,null,null,null,"[2,3]"
NA,canvas-keyboard-response,355,295436,0.0-6.0-1.58,5014,NA,NA,NA,NA,clear_screen,null,null,NA,NA,critical,c,t,d,164,240,240,164,240,164,spektor,0,w,240,164,164,240,240,164,39360,39360,39360,td,null,null,null,null,null,null,"[2,3]"
NA,canvas-keyboard-response,356,296786,0.0-6.0-2.58,5014,NA,NA,NA,NA,rectangles,null,null,NA,NA,critical,c,t,d,164,240,240,164,240,164,spektor,0,w,240,164,164,240,240,164,39360,39360,39360,td,null,null,null,null,null,null,"[2,3]"
NA,canvas-keyboard-response,357,296959,0.0-6.0-3.58,5014,NA,NA,NA,NA,clear_screen,null,null,NA,NA,critical,c,t,d,164,240,240,164,240,164,spektor,0,w,240,164,164,240,240,164,39360,39360,39360,td,null,null,null,null,null,null,"[2,3]"
NA,canvas-keyboard-response,358,301715,0.0-6.0-4.58,5014,NA,NA,NA,NA,make choice,4732,2,NA,NA,critical,c,t,d,164,240,240,164,240,164,spektor,0,w,240,164,164,240,240,164,39360,39360,39360,td,null,null,null,null,null,null,"[2,3]"
NA,canvas-keyboard-response,359,301897,0.0-6.0-5.58,5014,NA,NA,NA,NA,clear_screen,null,null,NA,NA,critical,c,t,d,164,240,240,164,240,164,spektor,0,w,240,164,164,240,240,164,39360,39360,39360,td,null,null,null,null,null,null,"[2,3]"
NA,canvas-keyboard-response,360,302115,0.0-6.0-0.59,5014,NA,NA,NA,NA,pre trial waiting period,null,null,NA,NA,catch,sw,l,sh,180,200,264,230,232,154,trueblood,null,null,null,null,null,null,null,null,null,null,null,NA,180,200,260,200,36000,52000,"[2,3]"
NA,canvas-keyboard-response,361,302274,0.0-6.0-1.59,5014,NA,NA,NA,NA,clear_screen,null,null,NA,NA,catch,sw,l,sh,180,200,264,230,232,154,trueblood,null,null,null,null,null,null,null,null,null,null,null,NA,180,200,260,200,36000,52000,"[2,3]"
NA,canvas-keyboard-response,362,303626,0.0-6.0-2.59,5014,NA,NA,NA,NA,rectangles,null,null,NA,NA,catch,sw,l,sh,180,200,264,230,232,154,trueblood,null,null,null,null,null,null,null,null,null,null,null,NA,180,200,260,200,36000,52000,"[2,3]"
NA,canvas-keyboard-response,363,303799,0.0-6.0-3.59,5014,NA,NA,NA,NA,clear_screen,null,null,NA,NA,catch,sw,l,sh,180,200,264,230,232,154,trueblood,null,null,null,null,null,null,null,null,null,null,null,NA,180,200,260,200,36000,52000,"[2,3]"
NA,canvas-keyboard-response,364,304459,0.0-6.0-4.59,5014,NA,NA,NA,NA,make choice,635,2,NA,NA,catch,sw,l,sh,180,200,264,230,232,154,trueblood,null,null,null,null,null,null,null,null,null,null,null,NA,180,200,260,200,36000,52000,"[2,3]"
NA,canvas-keyboard-response,365,304632,0.0-6.0-5.59,5014,NA,NA,NA,NA,clear_screen,null,null,NA,NA,catch,sw,l,sh,180,200,264,230,232,154,trueblood,null,null,null,null,null,null,null,null,null,null,null,NA,180,200,260,200,36000,52000,"[2,3]"
NA,canvas-keyboard-response,366,304850,0.0-6.0-0.60,5014,NA,NA,NA,NA,pre trial waiting period,null,null,NA,NA,critical,t,c,d,164,240,240,164,162.6685,237.1485,trueblood,0.02,h,164,240,240,164,162.6685,237.1485,39360,39360,38576.5967,tc,null,null,null,null,null,null,"[1,2]"
NA,canvas-keyboard-response,367,305009,0.0-6.0-1.60,5014,NA,NA,NA,NA,clear_screen,null,null,NA,NA,critical,t,c,d,164,240,240,164,162.6685,237.1485,trueblood,0.02,h,164,240,240,164,162.6685,237.1485,39360,39360,38576.5967,tc,null,null,null,null,null,null,"[1,2]"
NA,canvas-keyboard-response,368,306363,0.0-6.0-2.60,5014,NA,NA,NA,NA,rectangles,null,null,NA,NA,critical,t,c,d,164,240,240,164,162.6685,237.1485,trueblood,0.02,h,164,240,240,164,162.6685,237.1485,39360,39360,38576.5967,tc,null,null,null,null,null,null,"[1,2]"
NA,canvas-keyboard-response,369,306536,0.0-6.0-3.60,5014,NA,NA,NA,NA,clear_screen,null,null,NA,NA,critical,t,c,d,164,240,240,164,162.6685,237.1485,trueblood,0.02,h,164,240,240,164,162.6685,237.1485,39360,39360,38576.5967,tc,null,null,null,null,null,null,"[1,2]"
NA,canvas-keyboard-response,370,307203,0.0-6.0-4.60,5014,NA,NA,NA,NA,make choice,641,2,NA,NA,critical,t,c,d,164,240,240,164,162.6685,237.1485,trueblood,0.02,h,164,240,240,164,162.6685,237.1485,39360,39360,38576.5967,tc,null,null,null,null,null,null,"[1,2]"
NA,canvas-keyboard-response,371,307377,0.0-6.0-5.60,5014,NA,NA,NA,NA,clear_screen,null,null,NA,NA,critical,t,c,d,164,240,240,164,162.6685,237.1485,trueblood,0.02,h,164,240,240,164,162.6685,237.1485,39360,39360,38576.5967,tc,null,null,null,null,null,null,"[1,2]"
NA,canvas-keyboard-response,372,307595,0.0-6.0-0.61,5014,NA,NA,NA,NA,pre trial waiting period,null,null,NA,NA,critical,d,t,c,154.6796,220.0396,164,240,240,164,trueblood,0.14,h,164,240,240,164,154.6796,220.0396,39360,39360,34035.6388,td,null,null,null,null,null,null,"[2,1]"
NA,canvas-keyboard-response,373,307754,0.0-6.0-1.61,5014,NA,NA,NA,NA,clear_screen,null,null,NA,NA,critical,d,t,c,154.6796,220.0396,164,240,240,164,trueblood,0.14,h,164,240,240,164,154.6796,220.0396,39360,39360,34035.6388,td,null,null,null,null,null,null,"[2,1]"
NA,canvas-keyboard-response,374,309107,0.0-6.0-2.61,5014,NA,NA,NA,NA,rectangles,null,null,NA,NA,critical,d,t,c,154.6796,220.0396,164,240,240,164,trueblood,0.14,h,164,240,240,164,154.6796,220.0396,39360,39360,34035.6388,td,null,null,null,null,null,null,"[2,1]"
NA,canvas-keyboard-response,375,309281,0.0-6.0-3.61,5014,NA,NA,NA,NA,clear_screen,null,null,NA,NA,critical,d,t,c,154.6796,220.0396,164,240,240,164,trueblood,0.14,h,164,240,240,164,154.6796,220.0396,39360,39360,34035.6388,td,null,null,null,null,null,null,"[2,1]"
NA,canvas-keyboard-response,376,311011,0.0-6.0-4.61,5014,NA,NA,NA,NA,make choice,1704,2,NA,NA,critical,d,t,c,154.6796,220.0396,164,240,240,164,trueblood,0.14,h,164,240,240,164,154.6796,220.0396,39360,39360,34035.6388,td,null,null,null,null,null,null,"[2,1]"
NA,canvas-keyboard-response,377,311185,0.0-6.0-5.61,5014,NA,NA,NA,NA,clear_screen,null,null,NA,NA,critical,d,t,c,154.6796,220.0396,164,240,240,164,trueblood,0.14,h,164,240,240,164,154.6796,220.0396,39360,39360,34035.6388,td,null,null,null,null,null,null,"[2,1]"
NA,canvas-keyboard-response,378,311404,0.0-6.0-0.62,5014,NA,NA,NA,NA,pre trial waiting period,null,null,NA,NA,critical,c,d,t,164,240,220.0396,154.6796,240,164,spektor,0.14,w,240,164,164,240,220.0396,154.6796,39360,39360,34035.6388,dc,null,null,null,null,null,null,"[2,1]"
NA,canvas-keyboard-response,379,311563,0.0-6.0-1.62,5014,NA,NA,NA,NA,clear_screen,null,null,NA,NA,critical,c,d,t,164,240,220.0396,154.6796,240,164,spektor,0.14,w,240,164,164,240,220.0396,154.6796,39360,39360,34035.6388,dc,null,null,null,null,null,null,"[2,1]"
NA,canvas-keyboard-response,380,312917,0.0-6.0-2.62,5014,NA,NA,NA,NA,rectangles,null,null,NA,NA,critical,c,d,t,164,240,220.0396,154.6796,240,164,spektor,0.14,w,240,164,164,240,220.0396,154.6796,39360,39360,34035.6388,dc,null,null,null,null,null,null,"[2,1]"
NA,canvas-keyboard-response,381,313105,0.0-6.0-3.62,5014,NA,NA,NA,NA,clear_screen,null,null,NA,NA,critical,c,d,t,164,240,220.0396,154.6796,240,164,spektor,0.14,w,240,164,164,240,220.0396,154.6796,39360,39360,34035.6388,dc,null,null,null,null,null,null,"[2,1]"
NA,canvas-keyboard-response,382,314051,0.0-6.0-4.62,5014,NA,NA,NA,NA,make choice,907,1,NA,NA,critical,c,d,t,164,240,220.0396,154.6796,240,164,spektor,0.14,w,240,164,164,240,220.0396,154.6796,39360,39360,34035.6388,dc,null,null,null,null,null,null,"[2,1]"
NA,canvas-keyboard-response,383,314227,0.0-6.0-5.62,5014,NA,NA,NA,NA,clear_screen,null,null,NA,NA,critical,c,d,t,164,240,220.0396,154.6796,240,164,spektor,0.14,w,240,164,164,240,220.0396,154.6796,39360,39360,34035.6388,dc,null,null,null,null,null,null,"[2,1]"
NA,canvas-keyboard-response,384,314447,0.0-6.0-0.63,5014,NA,NA,NA,NA,pre trial waiting period,null,null,NA,NA,critical,d,c,t,164,240,240,164,164,240,trueblood,0,h,164,240,240,164,164,240,39360,39360,39360,tc,null,null,null,null,null,null,"[3,2]"
NA,canvas-keyboard-response,385,314607,0.0-6.0-1.63,5014,NA,NA,NA,NA,clear_screen,null,null,NA,NA,critical,d,c,t,164,240,240,164,164,240,trueblood,0,h,164,240,240,164,164,240,39360,39360,39360,tc,null,null,null,null,null,null,"[3,2]"
NA,canvas-keyboard-response,386,315961,0.0-6.0-2.63,5014,NA,NA,NA,NA,rectangles,null,null,NA,NA,critical,d,c,t,164,240,240,164,164,240,trueblood,0,h,164,240,240,164,164,240,39360,39360,39360,tc,null,null,null,null,null,null,"[3,2]"
NA,canvas-keyboard-response,387,316135,0.0-6.0-3.63,5014,NA,NA,NA,NA,clear_screen,null,null,NA,NA,critical,d,c,t,164,240,240,164,164,240,trueblood,0,h,164,240,240,164,164,240,39360,39360,39360,tc,null,null,null,null,null,null,"[3,2]"
NA,canvas-keyboard-response,388,316932,0.0-6.0-4.63,5014,NA,NA,NA,NA,make choice,771,2,NA,NA,critical,d,c,t,164,240,240,164,164,240,trueblood,0,h,164,240,240,164,164,240,39360,39360,39360,tc,null,null,null,null,null,null,"[3,2]"
NA,canvas-keyboard-response,389,317107,0.0-6.0-5.63,5014,NA,NA,NA,NA,clear_screen,null,null,NA,NA,critical,d,c,t,164,240,240,164,164,240,trueblood,0,h,164,240,240,164,164,240,39360,39360,39360,tc,null,null,null,null,null,null,"[3,2]"
NA,canvas-keyboard-response,390,317327,0.0-6.0-0.64,5014,NA,NA,NA,NA,pre trial waiting period,null,null,NA,NA,critical,t,d,c,164,240,162.6685,237.1485,240,164,spektor,0.02,h,164,240,240,164,162.6685,237.1485,39360,39360,38576.5967,td,null,null,null,null,null,null,"[1,2]"
NA,canvas-keyboard-response,391,317486,0.0-6.0-1.64,5014,NA,NA,NA,NA,clear_screen,null,null,NA,NA,critical,t,d,c,164,240,162.6685,237.1485,240,164,spektor,0.02,h,164,240,240,164,162.6685,237.1485,39360,39360,38576.5967,td,null,null,null,null,null,null,"[1,2]"
NA,canvas-keyboard-response,392,318839,0.0-6.0-2.64,5014,NA,NA,NA,NA,rectangles,null,null,NA,NA,critical,t,d,c,164,240,162.6685,237.1485,240,164,spektor,0.02,h,164,240,240,164,162.6685,237.1485,39360,39360,38576.5967,td,null,null,null,null,null,null,"[1,2]"
NA,canvas-keyboard-response,393,319017,0.0-6.0-3.64,5014,NA,NA,NA,NA,clear_screen,null,null,NA,NA,critical,t,d,c,164,240,162.6685,237.1485,240,164,spektor,0.02,h,164,240,240,164,162.6685,237.1485,39360,39360,38576.5967,td,null,null,null,null,null,null,"[1,2]"
NA,canvas-keyboard-response,394,320251,0.0-6.0-4.64,5014,NA,NA,NA,NA,make choice,1207,2,NA,NA,critical,t,d,c,164,240,162.6685,237.1485,240,164,spektor,0.02,h,164,240,240,164,162.6685,237.1485,39360,39360,38576.5967,td,null,null,null,null,null,null,"[1,2]"
NA,canvas-keyboard-response,395,320425,0.0-6.0-5.64,5014,NA,NA,NA,NA,clear_screen,null,null,NA,NA,critical,t,d,c,164,240,162.6685,237.1485,240,164,spektor,0.02,h,164,240,240,164,162.6685,237.1485,39360,39360,38576.5967,td,null,null,null,null,null,null,"[1,2]"
NA,canvas-keyboard-response,396,320644,0.0-6.0-0.65,5014,NA,NA,NA,NA,pre trial waiting period,null,null,NA,NA,critical,t,d,c,240,164,220.0396,154.6796,164,240,spektor,0.14,w,240,164,164,240,220.0396,154.6796,39360,39360,34035.6388,tc,null,null,null,null,null,null,"[1,3]"
NA,canvas-keyboard-response,397,320804,0.0-6.0-1.65,5014,NA,NA,NA,NA,clear_screen,null,null,NA,NA,critical,t,d,c,240,164,220.0396,154.6796,164,240,spektor,0.14,w,240,164,164,240,220.0396,154.6796,39360,39360,34035.6388,tc,null,null,null,null,null,null,"[1,3]"
