success,trial_type,trial_index,time_elapsed,internal_node_id,sub_n,timeout,failed_images,failed_audio,failed_video,screen_id,rt,response,stimulus,view_history,trial,r1,r2,r3,w1,h1,w2,h2,w3,h3,display,tdd,tdo,tw,th,cw,ch,dw,dh,ta,ca,da,probe,csls,csss,clls,clss,sa,la,probe_rects
TRUE,fullscreen,0,4053,0.0-0.0,5023,NA,NA,NA,NA,NA,NA,NA,NA,NA,NA,NA,NA,NA,NA,NA,NA,NA,NA,NA,NA,NA,NA,NA,NA,NA,NA,NA,NA,NA,NA,NA,NA,NA,NA,NA,NA,NA,NA,NA
TRUE,preload,1,4069,0.0-1.0,5023,FALSE,NA,NA,NA,img preload,NA,NA,NA,NA,NA,NA,NA,NA,NA,NA,NA,NA,NA,NA,NA,NA,NA,NA,NA,NA,NA,NA,NA,NA,NA,NA,NA,NA,NA,NA,NA,NA,NA,NA
NA,survey-html-form,2,8384,0.0-2.0,5023,NA,NA,NA,NA,enter-sub-number,4304,"{""response"":""15""}",NA,NA,NA,NA,NA,NA,NA,NA,NA,NA,NA,NA,NA,NA,NA,NA,NA,NA,NA,NA,NA,NA,NA,NA,NA,NA,NA,NA,NA,NA,NA,NA
NA,image-button-response,3,85660,0.0-3.0,5023,NA,NA,NA,NA,NA,77210,0,consent.png,NA,NA,NA,NA,NA,NA,NA,NA,NA,NA,NA,NA,NA,NA,NA,NA,NA,NA,NA,NA,NA,NA,NA,NA,NA,NA,NA,NA,NA,NA,NA
NA,html-button-response,4,92875,0.0-4.0,5023,NA,NA,NA,NA,intro mssg,7211,0,"<div style= ""font-size:25px;"" <p> <strong> Welcome! </strong><br> <p style=""color:#8B0000; font-size:25px;""><strong> Please do NOT exit full screen until you are done with the experiment. </strong> </p><p style=""font-size:25px;color:#8B0000;""> <strong> Your data will be lost <br> if you try to go back or refresh the page after the experiment starts. Feel free to click ""previous"" during the instructions, however.</strong> </p><br><p> <strong> Thanks in advance for your contribution to our research! </strong></p>",NA,NA,NA,NA,NA,NA,NA,NA,NA,NA,NA,NA,NA,NA,NA,NA,NA,NA,NA,NA,NA,NA,NA,NA,NA,NA,NA,NA,NA,NA,NA
NA,instructions,5,125571,0.0-5.0,5023,NA,NA,NA,NA,instructions,32691,NA,NA,NA,NA,NA,NA,NA,NA,NA,NA,NA,NA,NA,NA,NA,NA,NA,NA,NA,NA,NA,NA,NA,NA,NA,NA,NA,NA,NA,NA,NA,NA,NA
NA,canvas-keyboard-response,6,125777,0.0-6.0-0.0,5023,NA,NA,NA,NA,pre trial waiting period,null,null,NA,NA,critical,t,d,c,240,164,232.8713,160.6713,164,240,trueblood,0.05,w,240,164,164,240,232.8713,160.6713,39360,39360,37415.7294,tc,null,null,null,null,null,null,"[1,3]"
NA,canvas-keyboard-response,7,125939,0.0-6.0-1.0,5023,NA,NA,NA,NA,clear_screen,null,null,NA,NA,critical,t,d,c,240,164,232.8713,160.6713,164,240,trueblood,0.05,w,240,164,164,240,232.8713,160.6713,39360,39360,37415.7294,tc,null,null,null,null,null,null,"[1,3]"
NA,canvas-keyboard-response,8,127282,0.0-6.0-2.0,5023,NA,NA,NA,NA,rectangles,null,null,NA,NA,critical,t,d,c,240,164,232.8713,160.6713,164,240,trueblood,0.05,w,240,164,164,240,232.8713,160.6713,39360,39360,37415.7294,tc,null,null,null,null,null,null,"[1,3]"
NA,canvas-keyboard-response,9,127444,0.0-6.0-3.0,5023,NA,NA,NA,NA,clear_screen,null,null,NA,NA,critical,t,d,c,240,164,232.8713,160.6713,164,240,trueblood,0.05,w,240,164,164,240,232.8713,160.6713,39360,39360,37415.7294,tc,null,null,null,null,null,null,"[1,3]"
NA,canvas-keyboard-response,10,129899,0.0-6.0-4.0,5023,NA,NA,NA,NA,make choice,2440,1,NA,NA,critical,t,d,c,240,164,232.8713,160.6713,164,240,trueblood,0.05,w,240,164,164,240,232.8713,160.6713,39360,39360,37415.7294,tc,null,null,null,null,null,null,"[1,3]"
NA,canvas-keyboard-response,11,130061,0.0-6.0-5.0,5023,NA,NA,NA,NA,clear_screen,null,null,NA,NA,critical,t,d,c,240,164,232.8713,160.6713,164,240,trueblood,0.05,w,240,164,164,240,232.8713,160.6713,39360,39360,37415.7294,tc,null,null,null,null,null,null,"[1,3]"
NA,canvas-keyboard-response,12,130267,0.0-6.0-0.1,5023,NA,NA,NA,NA,pre trial waiting period,null,null,NA,NA,critical,c,t,d,240,164,164,240,162.6685,237.1485,spektor,0.02,h,164,240,240,164,162.6685,237.1485,39360,39360,38576.5967,tc,null,null,null,null,null,null,"[2,1]"
NA,canvas-keyboard-response,13,130427,0.0-6.0-1.1,5023,NA,NA,NA,NA,clear_screen,null,null,NA,NA,critical,c,t,d,240,164,164,240,162.6685,237.1485,spektor,0.02,h,164,240,240,164,162.6685,237.1485,39360,39360,38576.5967,tc,null,null,null,null,null,null,"[2,1]"
NA,canvas-keyboard-response,14,131768,0.0-6.0-2.1,5023,NA,NA,NA,NA,rectangles,null,null,NA,NA,critical,c,t,d,240,164,164,240,162.6685,237.1485,spektor,0.02,h,164,240,240,164,162.6685,237.1485,39360,39360,38576.5967,tc,null,null,null,null,null,null,"[2,1]"
NA,canvas-keyboard-response,15,131930,0.0-6.0-3.1,5023,NA,NA,NA,NA,clear_screen,null,null,NA,NA,critical,c,t,d,240,164,164,240,162.6685,237.1485,spektor,0.02,h,164,240,240,164,162.6685,237.1485,39360,39360,38576.5967,tc,null,null,null,null,null,null,"[2,1]"
NA,canvas-keyboard-response,16,132827,0.0-6.0-4.1,5023,NA,NA,NA,NA,make choice,883,2,NA,NA,critical,c,t,d,240,164,164,240,162.6685,237.1485,spektor,0.02,h,164,240,240,164,162.6685,237.1485,39360,39360,38576.5967,tc,null,null,null,null,null,null,"[2,1]"
NA,canvas-keyboard-response,17,132989,0.0-6.0-5.1,5023,NA,NA,NA,NA,clear_screen,null,null,NA,NA,critical,c,t,d,240,164,164,240,162.6685,237.1485,spektor,0.02,h,164,240,240,164,162.6685,237.1485,39360,39360,38576.5967,tc,null,null,null,null,null,null,"[2,1]"
NA,canvas-keyboard-response,18,133202,0.0-6.0-0.2,5023,NA,NA,NA,NA,pre trial waiting period,null,null,NA,NA,catch,sw,sh,l,180,200,199,145,209,239,trueblood,null,null,null,null,null,null,null,null,null,null,null,NA,180,200,260,200,36000,52000,"[2,3]"
NA,canvas-keyboard-response,19,133366,0.0-6.0-1.2,5023,NA,NA,NA,NA,clear_screen,null,null,NA,NA,catch,sw,sh,l,180,200,199,145,209,239,trueblood,null,null,null,null,null,null,null,null,null,null,null,NA,180,200,260,200,36000,52000,"[2,3]"
NA,canvas-keyboard-response,20,134707,0.0-6.0-2.2,5023,NA,NA,NA,NA,rectangles,null,null,NA,NA,catch,sw,sh,l,180,200,199,145,209,239,trueblood,null,null,null,null,null,null,null,null,null,null,null,NA,180,200,260,200,36000,52000,"[2,3]"
NA,canvas-keyboard-response,21,134868,0.0-6.0-3.2,5023,NA,NA,NA,NA,clear_screen,null,null,NA,NA,catch,sw,sh,l,180,200,199,145,209,239,trueblood,null,null,null,null,null,null,null,null,null,null,null,NA,180,200,260,200,36000,52000,"[2,3]"
NA,canvas-keyboard-response,22,135963,0.0-6.0-4.2,5023,NA,NA,NA,NA,make choice,1080,3,NA,NA,catch,sw,sh,l,180,200,199,145,209,239,trueblood,null,null,null,null,null,null,null,null,null,null,null,NA,180,200,260,200,36000,52000,"[2,3]"
NA,canvas-keyboard-response,23,136124,0.0-6.0-5.2,5023,NA,NA,NA,NA,clear_screen,null,null,NA,NA,catch,sw,sh,l,180,200,199,145,209,239,trueblood,null,null,null,null,null,null,null,null,null,null,null,NA,180,200,260,200,36000,52000,"[2,3]"
NA,canvas-keyboard-response,24,136331,0.0-6.0-0.3,5023,NA,NA,NA,NA,pre trial waiting period,null,null,NA,NA,critical,t,c,d,240,164,164,240,227.1683,158.0083,spektor,0.09,w,240,164,164,240,227.1683,158.0083,39360,39360,35894.4834,dc,null,null,null,null,null,null,"[3,2]"
NA,canvas-keyboard-response,25,136490,0.0-6.0-1.3,5023,NA,NA,NA,NA,clear_screen,null,null,NA,NA,critical,t,c,d,240,164,164,240,227.1683,158.0083,spektor,0.09,w,240,164,164,240,227.1683,158.0083,39360,39360,35894.4834,dc,null,null,null,null,null,null,"[3,2]"
NA,canvas-keyboard-response,26,137828,0.0-6.0-2.3,5023,NA,NA,NA,NA,rectangles,null,null,NA,NA,critical,t,c,d,240,164,164,240,227.1683,158.0083,spektor,0.09,w,240,164,164,240,227.1683,158.0083,39360,39360,35894.4834,dc,null,null,null,null,null,null,"[3,2]"
NA,canvas-keyboard-response,27,137994,0.0-6.0-3.3,5023,NA,NA,NA,NA,clear_screen,null,null,NA,NA,critical,t,c,d,240,164,164,240,227.1683,158.0083,spektor,0.09,w,240,164,164,240,227.1683,158.0083,39360,39360,35894.4834,dc,null,null,null,null,null,null,"[3,2]"
NA,canvas-keyboard-response,28,139643,0.0-6.0-4.3,5023,NA,NA,NA,NA,make choice,1635,2,NA,NA,critical,t,c,d,240,164,164,240,227.1683,158.0083,spektor,0.09,w,240,164,164,240,227.1683,158.0083,39360,39360,35894.4834,dc,null,null,null,null,null,null,"[3,2]"
NA,canvas-keyboard-response,29,139803,0.0-6.0-5.3,5023,NA,NA,NA,NA,clear_screen,null,null,NA,NA,critical,t,c,d,240,164,164,240,227.1683,158.0083,spektor,0.09,w,240,164,164,240,227.1683,158.0083,39360,39360,35894.4834,dc,null,null,null,null,null,null,"[3,2]"
NA,canvas-keyboard-response,30,140009,0.0-6.0-0.4,5023,NA,NA,NA,NA,pre trial waiting period,null,null,NA,NA,critical,c,d,t,240,164,164,240,164,240,trueblood,0,h,164,240,240,164,164,240,39360,39360,39360,tc,null,null,null,null,null,null,"[3,1]"
NA,canvas-keyboard-response,31,140162,0.0-6.0-1.4,5023,NA,NA,NA,NA,clear_screen,null,null,NA,NA,critical,c,d,t,240,164,164,240,164,240,trueblood,0,h,164,240,240,164,164,240,39360,39360,39360,tc,null,null,null,null,null,null,"[3,1]"
NA,canvas-keyboard-response,32,141494,0.0-6.0-2.4,5023,NA,NA,NA,NA,rectangles,null,null,NA,NA,critical,c,d,t,240,164,164,240,164,240,trueblood,0,h,164,240,240,164,164,240,39360,39360,39360,tc,null,null,null,null,null,null,"[3,1]"
NA,canvas-keyboard-response,33,141655,0.0-6.0-3.4,5023,NA,NA,NA,NA,clear_screen,null,null,NA,NA,critical,c,d,t,240,164,164,240,164,240,trueblood,0,h,164,240,240,164,164,240,39360,39360,39360,tc,null,null,null,null,null,null,"[3,1]"
NA,canvas-keyboard-response,34,143346,0.0-6.0-4.4,5023,NA,NA,NA,NA,make choice,1677,3,NA,NA,critical,c,d,t,240,164,164,240,164,240,trueblood,0,h,164,240,240,164,164,240,39360,39360,39360,tc,null,null,null,null,null,null,"[3,1]"
NA,canvas-keyboard-response,35,143507,0.0-6.0-5.4,5023,NA,NA,NA,NA,clear_screen,null,null,NA,NA,critical,c,d,t,240,164,164,240,164,240,trueblood,0,h,164,240,240,164,164,240,39360,39360,39360,tc,null,null,null,null,null,null,"[3,1]"
NA,canvas-keyboard-response,36,143713,0.0-6.0-0.5,5023,NA,NA,NA,NA,pre trial waiting period,null,null,NA,NA,critical,t,c,d,164,240,240,164,158.0083,227.1683,trueblood,0.09,h,164,240,240,164,158.0083,227.1683,39360,39360,35894.4834,td,null,null,null,null,null,null,"[1,3]"
NA,canvas-keyboard-response,37,143867,0.0-6.0-1.5,5023,NA,NA,NA,NA,clear_screen,null,null,NA,NA,critical,t,c,d,164,240,240,164,158.0083,227.1683,trueblood,0.09,h,164,240,240,164,158.0083,227.1683,39360,39360,35894.4834,td,null,null,null,null,null,null,"[1,3]"
NA,canvas-keyboard-response,38,145207,0.0-6.0-2.5,5023,NA,NA,NA,NA,rectangles,null,null,NA,NA,critical,t,c,d,164,240,240,164,158.0083,227.1683,trueblood,0.09,h,164,240,240,164,158.0083,227.1683,39360,39360,35894.4834,td,null,null,null,null,null,null,"[1,3]"
NA,canvas-keyboard-response,39,145369,0.0-6.0-3.5,5023,NA,NA,NA,NA,clear_screen,null,null,NA,NA,critical,t,c,d,164,240,240,164,158.0083,227.1683,trueblood,0.09,h,164,240,240,164,158.0083,227.1683,39360,39360,35894.4834,td,null,null,null,null,null,null,"[1,3]"
NA,canvas-keyboard-response,40,147515,0.0-6.0-4.5,5023,NA,NA,NA,NA,make choice,2133,1,NA,NA,critical,t,c,d,164,240,240,164,158.0083,227.1683,trueblood,0.09,h,164,240,240,164,158.0083,227.1683,39360,39360,35894.4834,td,null,null,null,null,null,null,"[1,3]"
NA,canvas-keyboard-response,41,147675,0.0-6.0-5.5,5023,NA,NA,NA,NA,clear_screen,null,null,NA,NA,critical,t,c,d,164,240,240,164,158.0083,227.1683,trueblood,0.09,h,164,240,240,164,158.0083,227.1683,39360,39360,35894.4834,td,null,null,null,null,null,null,"[1,3]"
NA,canvas-keyboard-response,42,147883,0.0-6.0-0.6,5023,NA,NA,NA,NA,pre trial waiting period,null,null,NA,NA,critical,c,d,t,164,240,227.1683,158.0083,240,164,trueblood,0.09,w,240,164,164,240,227.1683,158.0083,39360,39360,35894.4834,td,null,null,null,null,null,null,"[3,2]"
NA,canvas-keyboard-response,43,148043,0.0-6.0-1.6,5023,NA,NA,NA,NA,clear_screen,null,null,NA,NA,critical,c,d,t,164,240,227.1683,158.0083,240,164,trueblood,0.09,w,240,164,164,240,227.1683,158.0083,39360,39360,35894.4834,td,null,null,null,null,null,null,"[3,2]"
NA,canvas-keyboard-response,44,149383,0.0-6.0-2.6,5023,NA,NA,NA,NA,rectangles,null,null,NA,NA,critical,c,d,t,164,240,227.1683,158.0083,240,164,trueblood,0.09,w,240,164,164,240,227.1683,158.0083,39360,39360,35894.4834,td,null,null,null,null,null,null,"[3,2]"
NA,canvas-keyboard-response,45,149549,0.0-6.0-3.6,5023,NA,NA,NA,NA,clear_screen,null,null,NA,NA,critical,c,d,t,164,240,227.1683,158.0083,240,164,trueblood,0.09,w,240,164,164,240,227.1683,158.0083,39360,39360,35894.4834,td,null,null,null,null,null,null,"[3,2]"
NA,canvas-keyboard-response,46,150699,0.0-6.0-4.6,5023,NA,NA,NA,NA,make choice,1136,3,NA,NA,critical,c,d,t,164,240,227.1683,158.0083,240,164,trueblood,0.09,w,240,164,164,240,227.1683,158.0083,39360,39360,35894.4834,td,null,null,null,null,null,null,"[3,2]"
NA,canvas-keyboard-response,47,150860,0.0-6.0-5.6,5023,NA,NA,NA,NA,clear_screen,null,null,NA,NA,critical,c,d,t,164,240,227.1683,158.0083,240,164,trueblood,0.09,w,240,164,164,240,227.1683,158.0083,39360,39360,35894.4834,td,null,null,null,null,null,null,"[3,2]"
NA,canvas-keyboard-response,48,151069,0.0-6.0-0.7,5023,NA,NA,NA,NA,pre trial waiting period,null,null,NA,NA,catch,l,sh,sw,224,174,169,149,169,176,trueblood,null,null,null,null,null,null,null,null,null,null,null,NA,180,200,260,200,36000,52000,"[1,2]"
NA,canvas-keyboard-response,49,151227,0.0-6.0-1.7,5023,NA,NA,NA,NA,clear_screen,null,null,NA,NA,catch,l,sh,sw,224,174,169,149,169,176,trueblood,null,null,null,null,null,null,null,null,null,null,null,NA,180,200,260,200,36000,52000,"[1,2]"
NA,canvas-keyboard-response,50,152567,0.0-6.0-2.7,5023,NA,NA,NA,NA,rectangles,null,null,NA,NA,catch,l,sh,sw,224,174,169,149,169,176,trueblood,null,null,null,null,null,null,null,null,null,null,null,NA,180,200,260,200,36000,52000,"[1,2]"
NA,canvas-keyboard-response,51,152730,0.0-6.0-3.7,5023,NA,NA,NA,NA,clear_screen,null,null,NA,NA,catch,l,sh,sw,224,174,169,149,169,176,trueblood,null,null,null,null,null,null,null,null,null,null,null,NA,180,200,260,200,36000,52000,"[1,2]"
NA,canvas-keyboard-response,52,154116,0.0-6.0-4.7,5023,NA,NA,NA,NA,make choice,1372,1,NA,NA,catch,l,sh,sw,224,174,169,149,169,176,trueblood,null,null,null,null,null,null,null,null,null,null,null,NA,180,200,260,200,36000,52000,"[1,2]"
NA,canvas-keyboard-response,53,154278,0.0-6.0-5.7,5023,NA,NA,NA,NA,clear_screen,null,null,NA,NA,catch,l,sh,sw,224,174,169,149,169,176,trueblood,null,null,null,null,null,null,null,null,null,null,null,NA,180,200,260,200,36000,52000,"[1,2]"
NA,canvas-keyboard-response,54,154484,0.0-6.0-0.8,5023,NA,NA,NA,NA,pre trial waiting period,null,null,NA,NA,catch,sh,sw,l,166,217,209,215,232,237,spektor,null,null,null,null,null,null,null,null,null,null,null,NA,180,200,260,200,36000,52000,"[1,3]"
NA,canvas-keyboard-response,55,154639,0.0-6.0-1.8,5023,NA,NA,NA,NA,clear_screen,null,null,NA,NA,catch,sh,sw,l,166,217,209,215,232,237,spektor,null,null,null,null,null,null,null,null,null,null,null,NA,180,200,260,200,36000,52000,"[1,3]"
NA,canvas-keyboard-response,56,155977,0.0-6.0-2.8,5023,NA,NA,NA,NA,rectangles,null,null,NA,NA,catch,sh,sw,l,166,217,209,215,232,237,spektor,null,null,null,null,null,null,null,null,null,null,null,NA,180,200,260,200,36000,52000,"[1,3]"
NA,canvas-keyboard-response,57,156143,0.0-6.0-3.8,5023,NA,NA,NA,NA,clear_screen,null,null,NA,NA,catch,sh,sw,l,166,217,209,215,232,237,spektor,null,null,null,null,null,null,null,null,null,null,null,NA,180,200,260,200,36000,52000,"[1,3]"
NA,canvas-keyboard-response,58,156987,0.0-6.0-4.8,5023,NA,NA,NA,NA,make choice,832,3,NA,NA,catch,sh,sw,l,166,217,209,215,232,237,spektor,null,null,null,null,null,null,null,null,null,null,null,NA,180,200,260,200,36000,52000,"[1,3]"
NA,canvas-keyboard-response,59,157148,0.0-6.0-5.8,5023,NA,NA,NA,NA,clear_screen,null,null,NA,NA,catch,sh,sw,l,166,217,209,215,232,237,spektor,null,null,null,null,null,null,null,null,null,null,null,NA,180,200,260,200,36000,52000,"[1,3]"
NA,canvas-keyboard-response,60,157359,0.0-6.0-0.9,5023,NA,NA,NA,NA,pre trial waiting period,null,null,NA,NA,critical,c,d,t,164,240,227.1683,158.0083,240,164,spektor,0.09,w,240,164,164,240,227.1683,158.0083,39360,39360,35894.4834,tc,null,null,null,null,null,null,"[3,1]"
NA,canvas-keyboard-response,61,157520,0.0-6.0-1.9,5023,NA,NA,NA,NA,clear_screen,null,null,NA,NA,critical,c,d,t,164,240,227.1683,158.0083,240,164,spektor,0.09,w,240,164,164,240,227.1683,158.0083,39360,39360,35894.4834,tc,null,null,null,null,null,null,"[3,1]"
NA,canvas-keyboard-response,62,158862,0.0-6.0-2.9,5023,NA,NA,NA,NA,rectangles,null,null,NA,NA,critical,c,d,t,164,240,227.1683,158.0083,240,164,spektor,0.09,w,240,164,164,240,227.1683,158.0083,39360,39360,35894.4834,tc,null,null,null,null,null,null,"[3,1]"
NA,canvas-keyboard-response,63,158946,0.0-6.0-3.9,5023,NA,NA,NA,NA,clear_screen,72,1,NA,NA,critical,c,d,t,164,240,227.1683,158.0083,240,164,spektor,0.09,w,240,164,164,240,227.1683,158.0083,39360,39360,35894.4834,tc,null,null,null,null,null,null,"[3,1]"
NA,canvas-keyboard-response,64,161027,0.0-6.0-4.9,5023,NA,NA,NA,NA,make choice,2066,1,NA,NA,critical,c,d,t,164,240,227.1683,158.0083,240,164,spektor,0.09,w,240,164,164,240,227.1683,158.0083,39360,39360,35894.4834,tc,null,null,null,null,null,null,"[3,1]"
NA,canvas-keyboard-response,65,161190,0.0-6.0-5.9,5023,NA,NA,NA,NA,clear_screen,null,null,NA,NA,critical,c,d,t,164,240,227.1683,158.0083,240,164,spektor,0.09,w,240,164,164,240,227.1683,158.0083,39360,39360,35894.4834,tc,null,null,null,null,null,null,"[3,1]"
NA,canvas-keyboard-response,66,161399,0.0-6.0-0.10,5023,NA,NA,NA,NA,pre trial waiting period,null,null,NA,NA,catch,sh,l,sw,162,161,290,167,171,165,trueblood,null,null,null,null,null,null,null,null,null,null,null,NA,180,200,260,200,36000,52000,"[2,3]"
NA,canvas-keyboard-response,67,161553,0.0-6.0-1.10,5023,NA,NA,NA,NA,clear_screen,null,null,NA,NA,catch,sh,l,sw,162,161,290,167,171,165,trueblood,null,null,null,null,null,null,null,null,null,null,null,NA,180,200,260,200,36000,52000,"[2,3]"
NA,canvas-keyboard-response,68,162889,0.0-6.0-2.10,5023,NA,NA,NA,NA,rectangles,null,null,NA,NA,catch,sh,l,sw,162,161,290,167,171,165,trueblood,null,null,null,null,null,null,null,null,null,null,null,NA,180,200,260,200,36000,52000,"[2,3]"
NA,canvas-keyboard-response,69,163052,0.0-6.0-3.10,5023,NA,NA,NA,NA,clear_screen,null,null,NA,NA,catch,sh,l,sw,162,161,290,167,171,165,trueblood,null,null,null,null,null,null,null,null,null,null,null,NA,180,200,260,200,36000,52000,"[2,3]"
NA,canvas-keyboard-response,70,163691,0.0-6.0-4.10,5023,NA,NA,NA,NA,make choice,626,2,NA,NA,catch,sh,l,sw,162,161,290,167,171,165,trueblood,null,null,null,null,null,null,null,null,null,null,null,NA,180,200,260,200,36000,52000,"[2,3]"
NA,canvas-keyboard-response,71,163856,0.0-6.0-5.10,5023,NA,NA,NA,NA,clear_screen,null,null,NA,NA,catch,sh,l,sw,162,161,290,167,171,165,trueblood,null,null,null,null,null,null,null,null,null,null,null,NA,180,200,260,200,36000,52000,"[2,3]"
NA,canvas-keyboard-response,72,164066,0.0-6.0-0.11,5023,NA,NA,NA,NA,pre trial waiting period,null,null,NA,NA,critical,d,t,c,220.0396,154.6796,240,164,164,240,trueblood,0.14,w,240,164,164,240,220.0396,154.6796,39360,39360,34035.6388,tc,null,null,null,null,null,null,"[2,3]"
NA,canvas-keyboard-response,73,164219,0.0-6.0-1.11,5023,NA,NA,NA,NA,clear_screen,null,null,NA,NA,critical,d,t,c,220.0396,154.6796,240,164,164,240,trueblood,0.14,w,240,164,164,240,220.0396,154.6796,39360,39360,34035.6388,tc,null,null,null,null,null,null,"[2,3]"
NA,canvas-keyboard-response,74,165562,0.0-6.0-2.11,5023,NA,NA,NA,NA,rectangles,null,null,NA,NA,critical,d,t,c,220.0396,154.6796,240,164,164,240,trueblood,0.14,w,240,164,164,240,220.0396,154.6796,39360,39360,34035.6388,tc,null,null,null,null,null,null,"[2,3]"
NA,canvas-keyboard-response,75,165724,0.0-6.0-3.11,5023,NA,NA,NA,NA,clear_screen,null,null,NA,NA,critical,d,t,c,220.0396,154.6796,240,164,164,240,trueblood,0.14,w,240,164,164,240,220.0396,154.6796,39360,39360,34035.6388,tc,null,null,null,null,null,null,"[2,3]"
NA,canvas-keyboard-response,76,166305,0.0-6.0-4.11,5023,NA,NA,NA,NA,make choice,569,2,NA,NA,critical,d,t,c,220.0396,154.6796,240,164,164,240,trueblood,0.14,w,240,164,164,240,220.0396,154.6796,39360,39360,34035.6388,tc,null,null,null,null,null,null,"[2,3]"
NA,canvas-keyboard-response,77,166471,0.0-6.0-5.11,5023,NA,NA,NA,NA,clear_screen,null,null,NA,NA,critical,d,t,c,220.0396,154.6796,240,164,164,240,trueblood,0.14,w,240,164,164,240,220.0396,154.6796,39360,39360,34035.6388,tc,null,null,null,null,null,null,"[2,3]"
NA,canvas-keyboard-response,78,166683,0.0-6.0-0.12,5023,NA,NA,NA,NA,pre trial waiting period,null,null,NA,NA,critical,d,t,c,232.8713,160.6713,240,164,164,240,spektor,0.05,w,240,164,164,240,232.8713,160.6713,39360,39360,37415.7294,dc,null,null,null,null,null,null,"[1,3]"
NA,canvas-keyboard-response,79,166840,0.0-6.0-1.12,5023,NA,NA,NA,NA,clear_screen,null,null,NA,NA,critical,d,t,c,232.8713,160.6713,240,164,164,240,spektor,0.05,w,240,164,164,240,232.8713,160.6713,39360,39360,37415.7294,dc,null,null,null,null,null,null,"[1,3]"
NA,canvas-keyboard-response,80,168183,0.0-6.0-2.12,5023,NA,NA,NA,NA,rectangles,null,null,NA,NA,critical,d,t,c,232.8713,160.6713,240,164,164,240,spektor,0.05,w,240,164,164,240,232.8713,160.6713,39360,39360,37415.7294,dc,null,null,null,null,null,null,"[1,3]"
NA,canvas-keyboard-response,81,168332,0.0-6.0-3.12,5023,NA,NA,NA,NA,clear_screen,133,3,NA,NA,critical,d,t,c,232.8713,160.6713,240,164,164,240,spektor,0.05,w,240,164,164,240,232.8713,160.6713,39360,39360,37415.7294,dc,null,null,null,null,null,null,"[1,3]"
NA,canvas-keyboard-response,82,168955,0.0-6.0-4.12,5023,NA,NA,NA,NA,make choice,601,3,NA,NA,critical,d,t,c,232.8713,160.6713,240,164,164,240,spektor,0.05,w,240,164,164,240,232.8713,160.6713,39360,39360,37415.7294,dc,null,null,null,null,null,null,"[1,3]"
NA,canvas-keyboard-response,83,169121,0.0-6.0-5.12,5023,NA,NA,NA,NA,clear_screen,null,null,NA,NA,critical,d,t,c,232.8713,160.6713,240,164,164,240,spektor,0.05,w,240,164,164,240,232.8713,160.6713,39360,39360,37415.7294,dc,null,null,null,null,null,null,"[1,3]"
NA,canvas-keyboard-response,84,169336,0.0-6.0-0.13,5023,NA,NA,NA,NA,pre trial waiting period,null,null,NA,NA,critical,c,d,t,240,164,158.0083,227.1683,164,240,spektor,0.09,h,164,240,240,164,158.0083,227.1683,39360,39360,35894.4834,tc,null,null,null,null,null,null,"[3,1]"
NA,canvas-keyboard-response,85,169496,0.0-6.0-1.13,5023,NA,NA,NA,NA,clear_screen,null,null,NA,NA,critical,c,d,t,240,164,158.0083,227.1683,164,240,spektor,0.09,h,164,240,240,164,158.0083,227.1683,39360,39360,35894.4834,tc,null,null,null,null,null,null,"[3,1]"
NA,canvas-keyboard-response,86,170842,0.0-6.0-2.13,5023,NA,NA,NA,NA,rectangles,null,null,NA,NA,critical,c,d,t,240,164,158.0083,227.1683,164,240,spektor,0.09,h,164,240,240,164,158.0083,227.1683,39360,39360,35894.4834,tc,null,null,null,null,null,null,"[3,1]"
NA,canvas-keyboard-response,87,171006,0.0-6.0-3.13,5023,NA,NA,NA,NA,clear_screen,null,null,NA,NA,critical,c,d,t,240,164,158.0083,227.1683,164,240,spektor,0.09,h,164,240,240,164,158.0083,227.1683,39360,39360,35894.4834,tc,null,null,null,null,null,null,"[3,1]"
NA,canvas-keyboard-response,88,172043,0.0-6.0-4.13,5023,NA,NA,NA,NA,make choice,1020,3,NA,NA,critical,c,d,t,240,164,158.0083,227.1683,164,240,spektor,0.09,h,164,240,240,164,158.0083,227.1683,39360,39360,35894.4834,tc,null,null,null,null,null,null,"[3,1]"
NA,canvas-keyboard-response,89,172206,0.0-6.0-5.13,5023,NA,NA,NA,NA,clear_screen,null,null,NA,NA,critical,c,d,t,240,164,158.0083,227.1683,164,240,spektor,0.09,h,164,240,240,164,158.0083,227.1683,39360,39360,35894.4834,tc,null,null,null,null,null,null,"[3,1]"
NA,canvas-keyboard-response,90,172420,0.0-6.0-0.14,5023,NA,NA,NA,NA,pre trial waiting period,null,null,NA,NA,critical,t,c,d,240,164,164,240,237.1485,162.6685,trueblood,0.02,w,240,164,164,240,237.1485,162.6685,39360,39360,38576.5967,tc,null,null,null,null,null,null,"[1,2]"
NA,canvas-keyboard-response,91,172584,0.0-6.0-1.14,5023,NA,NA,NA,NA,clear_screen,null,null,NA,NA,critical,t,c,d,240,164,164,240,237.1485,162.6685,trueblood,0.02,w,240,164,164,240,237.1485,162.6685,39360,39360,38576.5967,tc,null,null,null,null,null,null,"[1,2]"
NA,canvas-keyboard-response,92,173930,0.0-6.0-2.14,5023,NA,NA,NA,NA,rectangles,null,null,NA,NA,critical,t,c,d,240,164,164,240,237.1485,162.6685,trueblood,0.02,w,240,164,164,240,237.1485,162.6685,39360,39360,38576.5967,tc,null,null,null,null,null,null,"[1,2]"
NA,canvas-keyboard-response,93,174091,0.0-6.0-3.14,5023,NA,NA,NA,NA,clear_screen,null,null,NA,NA,critical,t,c,d,240,164,164,240,237.1485,162.6685,trueblood,0.02,w,240,164,164,240,237.1485,162.6685,39360,39360,38576.5967,tc,null,null,null,null,null,null,"[1,2]"
NA,canvas-keyboard-response,94,175395,0.0-6.0-4.14,5023,NA,NA,NA,NA,make choice,1288,2,NA,NA,critical,t,c,d,240,164,164,240,237.1485,162.6685,trueblood,0.02,w,240,164,164,240,237.1485,162.6685,39360,39360,38576.5967,tc,null,null,null,null,null,null,"[1,2]"
NA,canvas-keyboard-response,95,175558,0.0-6.0-5.14,5023,NA,NA,NA,NA,clear_screen,null,null,NA,NA,critical,t,c,d,240,164,164,240,237.1485,162.6685,trueblood,0.02,w,240,164,164,240,237.1485,162.6685,39360,39360,38576.5967,tc,null,null,null,null,null,null,"[1,2]"
NA,canvas-keyboard-response,96,175769,0.0-6.0-0.15,5023,NA,NA,NA,NA,pre trial waiting period,null,null,NA,NA,catch,sw,sh,l,180,200,206,214,166,248,spektor,null,null,null,null,null,null,null,null,null,null,null,NA,180,200,260,200,36000,52000,"[1,3]"
NA,canvas-keyboard-response,97,175926,0.0-6.0-1.15,5023,NA,NA,NA,NA,clear_screen,null,null,NA,NA,catch,sw,sh,l,180,200,206,214,166,248,spektor,null,null,null,null,null,null,null,null,null,null,null,NA,180,200,260,200,36000,52000,"[1,3]"
NA,canvas-keyboard-response,98,177268,0.0-6.0-2.15,5023,NA,NA,NA,NA,rectangles,null,null,NA,NA,catch,sw,sh,l,180,200,206,214,166,248,spektor,null,null,null,null,null,null,null,null,null,null,null,NA,180,200,260,200,36000,52000,"[1,3]"
NA,canvas-keyboard-response,99,177436,0.0-6.0-3.15,5023,NA,NA,NA,NA,clear_screen,null,null,NA,NA,catch,sw,sh,l,180,200,206,214,166,248,spektor,null,null,null,null,null,null,null,null,null,null,null,NA,180,200,260,200,36000,52000,"[1,3]"
NA,canvas-keyboard-response,100,178067,0.0-6.0-4.15,5023,NA,NA,NA,NA,make choice,619,3,NA,NA,catch,sw,sh,l,180,200,206,214,166,248,spektor,null,null,null,null,null,null,null,null,null,null,null,NA,180,200,260,200,36000,52000,"[1,3]"
NA,canvas-keyboard-response,101,178229,0.0-6.0-5.15,5023,NA,NA,NA,NA,clear_screen,null,null,NA,NA,catch,sw,sh,l,180,200,206,214,166,248,spektor,null,null,null,null,null,null,null,null,null,null,null,NA,180,200,260,200,36000,52000,"[1,3]"
NA,canvas-keyboard-response,102,178440,0.0-6.0-0.16,5023,NA,NA,NA,NA,pre trial waiting period,null,null,NA,NA,critical,d,c,t,232.8713,160.6713,164,240,240,164,trueblood,0.05,w,240,164,164,240,232.8713,160.6713,39360,39360,37415.7294,dc,null,null,null,null,null,null,"[1,2]"
NA,canvas-keyboard-response,103,178594,0.0-6.0-1.16,5023,NA,NA,NA,NA,clear_screen,null,null,NA,NA,critical,d,c,t,232.8713,160.6713,164,240,240,164,trueblood,0.05,w,240,164,164,240,232.8713,160.6713,39360,39360,37415.7294,dc,null,null,null,null,null,null,"[1,2]"
NA,canvas-keyboard-response,104,179936,0.0-6.0-2.16,5023,NA,NA,NA,NA,rectangles,null,null,NA,NA,critical,d,c,t,232.8713,160.6713,164,240,240,164,trueblood,0.05,w,240,164,164,240,232.8713,160.6713,39360,39360,37415.7294,dc,null,null,null,null,null,null,"[1,2]"
NA,canvas-keyboard-response,105,180102,0.0-6.0-3.16,5023,NA,NA,NA,NA,clear_screen,null,null,NA,NA,critical,d,c,t,232.8713,160.6713,164,240,240,164,trueblood,0.05,w,240,164,164,240,232.8713,160.6713,39360,39360,37415.7294,dc,null,null,null,null,null,null,"[1,2]"
NA,canvas-keyboard-response,106,181482,0.0-6.0-4.16,5023,NA,NA,NA,NA,make choice,1363,2,NA,NA,critical,d,c,t,232.8713,160.6713,164,240,240,164,trueblood,0.05,w,240,164,164,240,232.8713,160.6713,39360,39360,37415.7294,dc,null,null,null,null,null,null,"[1,2]"
NA,canvas-keyboard-response,107,181645,0.0-6.0-5.16,5023,NA,NA,NA,NA,clear_screen,null,null,NA,NA,critical,d,c,t,232.8713,160.6713,164,240,240,164,trueblood,0.05,w,240,164,164,240,232.8713,160.6713,39360,39360,37415.7294,dc,null,null,null,null,null,null,"[1,2]"
NA,canvas-keyboard-response,108,181855,0.0-6.0-0.17,5023,NA,NA,NA,NA,pre trial waiting period,null,null,NA,NA,critical,c,t,d,240,164,164,240,158.0083,227.1683,trueblood,0.09,h,164,240,240,164,158.0083,227.1683,39360,39360,35894.4834,tc,null,null,null,null,null,null,"[2,1]"
NA,canvas-keyboard-response,109,182011,0.0-6.0-1.17,5023,NA,NA,NA,NA,clear_screen,null,null,NA,NA,critical,c,t,d,240,164,164,240,158.0083,227.1683,trueblood,0.09,h,164,240,240,164,158.0083,227.1683,39360,39360,35894.4834,tc,null,null,null,null,null,null,"[2,1]"
NA,canvas-keyboard-response,110,183352,0.0-6.0-2.17,5023,NA,NA,NA,NA,rectangles,null,null,NA,NA,critical,c,t,d,240,164,164,240,158.0083,227.1683,trueblood,0.09,h,164,240,240,164,158.0083,227.1683,39360,39360,35894.4834,tc,null,null,null,null,null,null,"[2,1]"
NA,canvas-keyboard-response,111,183518,0.0-6.0-3.17,5023,NA,NA,NA,NA,clear_screen,null,null,NA,NA,critical,c,t,d,240,164,164,240,158.0083,227.1683,trueblood,0.09,h,164,240,240,164,158.0083,227.1683,39360,39360,35894.4834,tc,null,null,null,null,null,null,"[2,1]"
NA,canvas-keyboard-response,112,184427,0.0-6.0-4.17,5023,NA,NA,NA,NA,make choice,895,1,NA,NA,critical,c,t,d,240,164,164,240,158.0083,227.1683,trueblood,0.09,h,164,240,240,164,158.0083,227.1683,39360,39360,35894.4834,tc,null,null,null,null,null,null,"[2,1]"
NA,canvas-keyboard-response,113,184591,0.0-6.0-5.17,5023,NA,NA,NA,NA,clear_screen,null,null,NA,NA,critical,c,t,d,240,164,164,240,158.0083,227.1683,trueblood,0.09,h,164,240,240,164,158.0083,227.1683,39360,39360,35894.4834,tc,null,null,null,null,null,null,"[2,1]"
NA,canvas-keyboard-response,114,184803,0.0-6.0-0.18,5023,NA,NA,NA,NA,pre trial waiting period,null,null,NA,NA,critical,c,d,t,164,240,220.0396,154.6796,240,164,spektor,0.14,w,240,164,164,240,220.0396,154.6796,39360,39360,34035.6388,dc,null,null,null,null,null,null,"[2,1]"
NA,canvas-keyboard-response,115,184965,0.0-6.0-1.18,5023,NA,NA,NA,NA,clear_screen,null,null,NA,NA,critical,c,d,t,164,240,220.0396,154.6796,240,164,spektor,0.14,w,240,164,164,240,220.0396,154.6796,39360,39360,34035.6388,dc,null,null,null,null,null,null,"[2,1]"
NA,canvas-keyboard-response,116,186309,0.0-6.0-2.18,5023,NA,NA,NA,NA,rectangles,null,null,NA,NA,critical,c,d,t,164,240,220.0396,154.6796,240,164,spektor,0.14,w,240,164,164,240,220.0396,154.6796,39360,39360,34035.6388,dc,null,null,null,null,null,null,"[2,1]"
NA,canvas-keyboard-response,117,186473,0.0-6.0-3.18,5023,NA,NA,NA,NA,clear_screen,null,null,NA,NA,critical,c,d,t,164,240,220.0396,154.6796,240,164,spektor,0.14,w,240,164,164,240,220.0396,154.6796,39360,39360,34035.6388,dc,null,null,null,null,null,null,"[2,1]"
NA,canvas-keyboard-response,118,187859,0.0-6.0-4.18,5023,NA,NA,NA,NA,make choice,1372,1,NA,NA,critical,c,d,t,164,240,220.0396,154.6796,240,164,spektor,0.14,w,240,164,164,240,220.0396,154.6796,39360,39360,34035.6388,dc,null,null,null,null,null,null,"[2,1]"
NA,canvas-keyboard-response,119,188023,0.0-6.0-5.18,5023,NA,NA,NA,NA,clear_screen,null,null,NA,NA,critical,c,d,t,164,240,220.0396,154.6796,240,164,spektor,0.14,w,240,164,164,240,220.0396,154.6796,39360,39360,34035.6388,dc,null,null,null,null,null,null,"[2,1]"
NA,canvas-keyboard-response,120,188236,0.0-6.0-0.19,5023,NA,NA,NA,NA,pre trial waiting period,null,null,NA,NA,critical,c,d,t,164,240,232.8713,160.6713,240,164,spektor,0.05,w,240,164,164,240,232.8713,160.6713,39360,39360,37415.7294,tc,null,null,null,null,null,null,"[3,1]"
NA,canvas-keyboard-response,121,188390,0.0-6.0-1.19,5023,NA,NA,NA,NA,clear_screen,null,null,NA,NA,critical,c,d,t,164,240,232.8713,160.6713,240,164,spektor,0.05,w,240,164,164,240,232.8713,160.6713,39360,39360,37415.7294,tc,null,null,null,null,null,null,"[3,1]"
NA,canvas-keyboard-response,122,189730,0.0-6.0-2.19,5023,NA,NA,NA,NA,rectangles,null,null,NA,NA,critical,c,d,t,164,240,232.8713,160.6713,240,164,spektor,0.05,w,240,164,164,240,232.8713,160.6713,39360,39360,37415.7294,tc,null,null,null,null,null,null,"[3,1]"
NA,canvas-keyboard-response,123,189895,0.0-6.0-3.19,5023,NA,NA,NA,NA,clear_screen,null,null,NA,NA,critical,c,d,t,164,240,232.8713,160.6713,240,164,spektor,0.05,w,240,164,164,240,232.8713,160.6713,39360,39360,37415.7294,tc,null,null,null,null,null,null,"[3,1]"
NA,canvas-keyboard-response,124,191675,0.0-6.0-4.19,5023,NA,NA,NA,NA,make choice,1766,1,NA,NA,critical,c,d,t,164,240,232.8713,160.6713,240,164,spektor,0.05,w,240,164,164,240,232.8713,160.6713,39360,39360,37415.7294,tc,null,null,null,null,null,null,"[3,1]"
NA,canvas-keyboard-response,125,191838,0.0-6.0-5.19,5023,NA,NA,NA,NA,clear_screen,null,null,NA,NA,critical,c,d,t,164,240,232.8713,160.6713,240,164,spektor,0.05,w,240,164,164,240,232.8713,160.6713,39360,39360,37415.7294,tc,null,null,null,null,null,null,"[3,1]"
NA,canvas-keyboard-response,126,192051,0.0-6.0-0.20,5023,NA,NA,NA,NA,pre trial waiting period,null,null,NA,NA,critical,c,t,d,240,164,164,240,154.6796,220.0396,spektor,0.14,h,164,240,240,164,154.6796,220.0396,39360,39360,34035.6388,td,null,null,null,null,null,null,"[2,3]"
NA,canvas-keyboard-response,127,192213,0.0-6.0-1.20,5023,NA,NA,NA,NA,clear_screen,null,null,NA,NA,critical,c,t,d,240,164,164,240,154.6796,220.0396,spektor,0.14,h,164,240,240,164,154.6796,220.0396,39360,39360,34035.6388,td,null,null,null,null,null,null,"[2,3]"
NA,canvas-keyboard-response,128,193554,0.0-6.0-2.20,5023,NA,NA,NA,NA,rectangles,null,null,NA,NA,critical,c,t,d,240,164,164,240,154.6796,220.0396,spektor,0.14,h,164,240,240,164,154.6796,220.0396,39360,39360,34035.6388,td,null,null,null,null,null,null,"[2,3]"
NA,canvas-keyboard-response,129,193721,0.0-6.0-3.20,5023,NA,NA,NA,NA,clear_screen,null,null,NA,NA,critical,c,t,d,240,164,164,240,154.6796,220.0396,spektor,0.14,h,164,240,240,164,154.6796,220.0396,39360,39360,34035.6388,td,null,null,null,null,null,null,"[2,3]"
NA,canvas-keyboard-response,130,194443,0.0-6.0-4.20,5023,NA,NA,NA,NA,make choice,704,2,NA,NA,critical,c,t,d,240,164,164,240,154.6796,220.0396,spektor,0.14,h,164,240,240,164,154.6796,220.0396,39360,39360,34035.6388,td,null,null,null,null,null,null,"[2,3]"
NA,canvas-keyboard-response,131,194609,0.0-6.0-5.20,5023,NA,NA,NA,NA,clear_screen,null,null,NA,NA,critical,c,t,d,240,164,164,240,154.6796,220.0396,spektor,0.14,h,164,240,240,164,154.6796,220.0396,39360,39360,34035.6388,td,null,null,null,null,null,null,"[2,3]"
NA,canvas-keyboard-response,132,194819,0.0-6.0-0.21,5023,NA,NA,NA,NA,pre trial waiting period,null,null,NA,NA,catch,sw,sh,l,180,200,160,184,221,221,spektor,null,null,null,null,null,null,null,null,null,null,null,NA,180,200,260,200,36000,52000,"[1,3]"
NA,canvas-keyboard-response,133,194981,0.0-6.0-1.21,5023,NA,NA,NA,NA,clear_screen,null,null,NA,NA,catch,sw,sh,l,180,200,160,184,221,221,spektor,null,null,null,null,null,null,null,null,null,null,null,NA,180,200,260,200,36000,52000,"[1,3]"
NA,canvas-keyboard-response,134,196323,0.0-6.0-2.21,5023,NA,NA,NA,NA,rectangles,null,null,NA,NA,catch,sw,sh,l,180,200,160,184,221,221,spektor,null,null,null,null,null,null,null,null,null,null,null,NA,180,200,260,200,36000,52000,"[1,3]"
NA,canvas-keyboard-response,135,196487,0.0-6.0-3.21,5023,NA,NA,NA,NA,clear_screen,null,null,NA,NA,catch,sw,sh,l,180,200,160,184,221,221,spektor,null,null,null,null,null,null,null,null,null,null,null,NA,180,200,260,200,36000,52000,"[1,3]"
NA,canvas-keyboard-response,136,198155,0.0-6.0-4.21,5023,NA,NA,NA,NA,make choice,1651,3,NA,NA,catch,sw,sh,l,180,200,160,184,221,221,spektor,null,null,null,null,null,null,null,null,null,null,null,NA,180,200,260,200,36000,52000,"[1,3]"
NA,canvas-keyboard-response,137,198319,0.0-6.0-5.21,5023,NA,NA,NA,NA,clear_screen,null,null,NA,NA,catch,sw,sh,l,180,200,160,184,221,221,spektor,null,null,null,null,null,null,null,null,null,null,null,NA,180,200,260,200,36000,52000,"[1,3]"
NA,canvas-keyboard-response,138,198530,0.0-6.0-0.22,5023,NA,NA,NA,NA,pre trial waiting period,null,null,NA,NA,critical,t,d,c,164,240,160.6713,232.8713,240,164,trueblood,0.05,h,164,240,240,164,160.6713,232.8713,39360,39360,37415.7294,td,null,null,null,null,null,null,"[1,2]"
NA,canvas-keyboard-response,139,198688,0.0-6.0-1.22,5023,NA,NA,NA,NA,clear_screen,null,null,NA,NA,critical,t,d,c,164,240,160.6713,232.8713,240,164,trueblood,0.05,h,164,240,240,164,160.6713,232.8713,39360,39360,37415.7294,td,null,null,null,null,null,null,"[1,2]"
NA,canvas-keyboard-response,140,200029,0.0-6.0-2.22,5023,NA,NA,NA,NA,rectangles,null,null,NA,NA,critical,t,d,c,164,240,160.6713,232.8713,240,164,trueblood,0.05,h,164,240,240,164,160.6713,232.8713,39360,39360,37415.7294,td,null,null,null,null,null,null,"[1,2]"
NA,canvas-keyboard-response,141,200202,0.0-6.0-3.22,5023,NA,NA,NA,NA,clear_screen,null,null,NA,NA,critical,t,d,c,164,240,160.6713,232.8713,240,164,trueblood,0.05,h,164,240,240,164,160.6713,232.8713,39360,39360,37415.7294,td,null,null,null,null,null,null,"[1,2]"
NA,canvas-keyboard-response,142,201443,0.0-6.0-4.22,5023,NA,NA,NA,NA,make choice,1223,2,NA,NA,critical,t,d,c,164,240,160.6713,232.8713,240,164,trueblood,0.05,h,164,240,240,164,160.6713,232.8713,39360,39360,37415.7294,td,null,null,null,null,null,null,"[1,2]"
NA,canvas-keyboard-response,143,201611,0.0-6.0-5.22,5023,NA,NA,NA,NA,clear_screen,null,null,NA,NA,critical,t,d,c,164,240,160.6713,232.8713,240,164,trueblood,0.05,h,164,240,240,164,160.6713,232.8713,39360,39360,37415.7294,td,null,null,null,null,null,null,"[1,2]"
NA,canvas-keyboard-response,144,201821,0.0-6.0-0.23,5023,NA,NA,NA,NA,pre trial waiting period,null,null,NA,NA,critical,t,c,d,240,164,164,240,237.1485,162.6685,spektor,0.02,w,240,164,164,240,237.1485,162.6685,39360,39360,38576.5967,tc,null,null,null,null,null,null,"[1,2]"
NA,canvas-keyboard-response,145,201981,0.0-6.0-1.23,5023,NA,NA,NA,NA,clear_screen,null,null,NA,NA,critical,t,c,d,240,164,164,240,237.1485,162.6685,spektor,0.02,w,240,164,164,240,237.1485,162.6685,39360,39360,38576.5967,tc,null,null,null,null,null,null,"[1,2]"
NA,canvas-keyboard-response,146,203323,0.0-6.0-2.23,5023,NA,NA,NA,NA,rectangles,null,null,NA,NA,critical,t,c,d,240,164,164,240,237.1485,162.6685,spektor,0.02,w,240,164,164,240,237.1485,162.6685,39360,39360,38576.5967,tc,null,null,null,null,null,null,"[1,2]"
NA,canvas-keyboard-response,147,203493,0.0-6.0-3.23,5023,NA,NA,NA,NA,clear_screen,null,null,NA,NA,critical,t,c,d,240,164,164,240,237.1485,162.6685,spektor,0.02,w,240,164,164,240,237.1485,162.6685,39360,39360,38576.5967,tc,null,null,null,null,null,null,"[1,2]"
NA,canvas-keyboard-response,148,204099,0.0-6.0-4.23,5023,NA,NA,NA,NA,make choice,589,2,NA,NA,critical,t,c,d,240,164,164,240,237.1485,162.6685,spektor,0.02,w,240,164,164,240,237.1485,162.6685,39360,39360,38576.5967,tc,null,null,null,null,null,null,"[1,2]"
NA,canvas-keyboard-response,149,204266,0.0-6.0-5.23,5023,NA,NA,NA,NA,clear_screen,null,null,NA,NA,critical,t,c,d,240,164,164,240,237.1485,162.6685,spektor,0.02,w,240,164,164,240,237.1485,162.6685,39360,39360,38576.5967,tc,null,null,null,null,null,null,"[1,2]"
NA,canvas-keyboard-response,150,204479,0.0-6.0-0.24,5023,NA,NA,NA,NA,pre trial waiting period,null,null,NA,NA,catch,l,sw,sh,272,198,177,222,202,199,trueblood,null,null,null,null,null,null,null,null,null,null,null,NA,180,200,260,200,36000,52000,"[1,2]"
NA,canvas-keyboard-response,151,204634,0.0-6.0-1.24,5023,NA,NA,NA,NA,clear_screen,null,null,NA,NA,catch,l,sw,sh,272,198,177,222,202,199,trueblood,null,null,null,null,null,null,null,null,null,null,null,NA,180,200,260,200,36000,52000,"[1,2]"
NA,canvas-keyboard-response,152,205974,0.0-6.0-2.24,5023,NA,NA,NA,NA,rectangles,null,null,NA,NA,catch,l,sw,sh,272,198,177,222,202,199,trueblood,null,null,null,null,null,null,null,null,null,null,null,NA,180,200,260,200,36000,52000,"[1,2]"
NA,canvas-keyboard-response,153,206139,0.0-6.0-3.24,5023,NA,NA,NA,NA,clear_screen,null,null,NA,NA,catch,l,sw,sh,272,198,177,222,202,199,trueblood,null,null,null,null,null,null,null,null,null,null,null,NA,180,200,260,200,36000,52000,"[1,2]"
NA,canvas-keyboard-response,154,206562,0.0-6.0-4.24,5023,NA,NA,NA,NA,make choice,404,1,NA,NA,catch,l,sw,sh,272,198,177,222,202,199,trueblood,null,null,null,null,null,null,null,null,null,null,null,NA,180,200,260,200,36000,52000,"[1,2]"
NA,canvas-keyboard-response,155,206729,0.0-6.0-5.24,5023,NA,NA,NA,NA,clear_screen,null,null,NA,NA,catch,l,sw,sh,272,198,177,222,202,199,trueblood,null,null,null,null,null,null,null,null,null,null,null,NA,180,200,260,200,36000,52000,"[1,2]"
NA,canvas-keyboard-response,156,206940,0.0-6.0-0.25,5023,NA,NA,NA,NA,pre trial waiting period,null,null,NA,NA,catch,sw,sh,l,180,200,234,185,237,239,trueblood,null,null,null,null,null,null,null,null,null,null,null,NA,180,200,260,200,36000,52000,"[1,3]"
NA,canvas-keyboard-response,157,207102,0.0-6.0-1.25,5023,NA,NA,NA,NA,clear_screen,null,null,NA,NA,catch,sw,sh,l,180,200,234,185,237,239,trueblood,null,null,null,null,null,null,null,null,null,null,null,NA,180,200,260,200,36000,52000,"[1,3]"
NA,canvas-keyboard-response,158,208445,0.0-6.0-2.25,5023,NA,NA,NA,NA,rectangles,null,null,NA,NA,catch,sw,sh,l,180,200,234,185,237,239,trueblood,null,null,null,null,null,null,null,null,null,null,null,NA,180,200,260,200,36000,52000,"[1,3]"
NA,canvas-keyboard-response,159,208615,0.0-6.0-3.25,5023,NA,NA,NA,NA,clear_screen,null,null,NA,NA,catch,sw,sh,l,180,200,234,185,237,239,trueblood,null,null,null,null,null,null,null,null,null,null,null,NA,180,200,260,200,36000,52000,"[1,3]"
NA,canvas-keyboard-response,160,209306,0.0-6.0-4.25,5023,NA,NA,NA,NA,make choice,676,3,NA,NA,catch,sw,sh,l,180,200,234,185,237,239,trueblood,null,null,null,null,null,null,null,null,null,null,null,NA,180,200,260,200,36000,52000,"[1,3]"
NA,canvas-keyboard-response,161,209470,0.0-6.0-5.25,5023,NA,NA,NA,NA,clear_screen,null,null,NA,NA,catch,sw,sh,l,180,200,234,185,237,239,trueblood,null,null,null,null,null,null,null,null,null,null,null,NA,180,200,260,200,36000,52000,"[1,3]"
NA,canvas-keyboard-response,162,209686,0.0-6.0-0.26,5023,NA,NA,NA,NA,pre trial waiting period,null,null,NA,NA,critical,t,d,c,164,240,164,240,240,164,spektor,0,h,164,240,240,164,164,240,39360,39360,39360,td,null,null,null,null,null,null,"[1,2]"
NA,canvas-keyboard-response,163,209847,0.0-6.0-1.26,5023,NA,NA,NA,NA,clear_screen,null,null,NA,NA,critical,t,d,c,164,240,164,240,240,164,spektor,0,h,164,240,240,164,164,240,39360,39360,39360,td,null,null,null,null,null,null,"[1,2]"
NA,canvas-keyboard-response,164,211188,0.0-6.0-2.26,5023,NA,NA,NA,NA,rectangles,null,null,NA,NA,critical,t,d,c,164,240,164,240,240,164,spektor,0,h,164,240,240,164,164,240,39360,39360,39360,td,null,null,null,null,null,null,"[1,2]"
NA,canvas-keyboard-response,165,211354,0.0-6.0-3.26,5023,NA,NA,NA,NA,clear_screen,null,null,NA,NA,critical,t,d,c,164,240,164,240,240,164,spektor,0,h,164,240,240,164,164,240,39360,39360,39360,td,null,null,null,null,null,null,"[1,2]"
NA,canvas-keyboard-response,166,212003,0.0-6.0-4.26,5023,NA,NA,NA,NA,make choice,631,2,NA,NA,critical,t,d,c,164,240,164,240,240,164,spektor,0,h,164,240,240,164,164,240,39360,39360,39360,td,null,null,null,null,null,null,"[1,2]"
NA,canvas-keyboard-response,167,212170,0.0-6.0-5.26,5023,NA,NA,NA,NA,clear_screen,null,null,NA,NA,critical,t,d,c,164,240,164,240,240,164,spektor,0,h,164,240,240,164,164,240,39360,39360,39360,td,null,null,null,null,null,null,"[1,2]"
NA,canvas-keyboard-response,168,212382,0.0-6.0-0.27,5023,NA,NA,NA,NA,pre trial waiting period,null,null,NA,NA,critical,d,c,t,158.0083,227.1683,240,164,164,240,trueblood,0.09,h,164,240,240,164,158.0083,227.1683,39360,39360,35894.4834,dc,null,null,null,null,null,null,"[1,2]"
NA,canvas-keyboard-response,169,212544,0.0-6.0-1.27,5023,NA,NA,NA,NA,clear_screen,null,null,NA,NA,critical,d,c,t,158.0083,227.1683,240,164,164,240,trueblood,0.09,h,164,240,240,164,158.0083,227.1683,39360,39360,35894.4834,dc,null,null,null,null,null,null,"[1,2]"
NA,canvas-keyboard-response,170,213884,0.0-6.0-2.27,5023,NA,NA,NA,NA,rectangles,null,null,NA,NA,critical,d,c,t,158.0083,227.1683,240,164,164,240,trueblood,0.09,h,164,240,240,164,158.0083,227.1683,39360,39360,35894.4834,dc,null,null,null,null,null,null,"[1,2]"
NA,canvas-keyboard-response,171,214049,0.0-6.0-3.27,5023,NA,NA,NA,NA,clear_screen,null,null,NA,NA,critical,d,c,t,158.0083,227.1683,240,164,164,240,trueblood,0.09,h,164,240,240,164,158.0083,227.1683,39360,39360,35894.4834,dc,null,null,null,null,null,null,"[1,2]"
NA,canvas-keyboard-response,172,214714,0.0-6.0-4.27,5023,NA,NA,NA,NA,make choice,646,2,NA,NA,critical,d,c,t,158.0083,227.1683,240,164,164,240,trueblood,0.09,h,164,240,240,164,158.0083,227.1683,39360,39360,35894.4834,dc,null,null,null,null,null,null,"[1,2]"
NA,canvas-keyboard-response,173,214880,0.0-6.0-5.27,5023,NA,NA,NA,NA,clear_screen,null,null,NA,NA,critical,d,c,t,158.0083,227.1683,240,164,164,240,trueblood,0.09,h,164,240,240,164,158.0083,227.1683,39360,39360,35894.4834,dc,null,null,null,null,null,null,"[1,2]"
NA,canvas-keyboard-response,174,215090,0.0-6.0-0.28,5023,NA,NA,NA,NA,pre trial waiting period,null,null,NA,NA,critical,c,d,t,240,164,158.0083,227.1683,164,240,spektor,0.09,h,164,240,240,164,158.0083,227.1683,39360,39360,35894.4834,td,null,null,null,null,null,null,"[3,2]"
NA,canvas-keyboard-response,175,215248,0.0-6.0-1.28,5023,NA,NA,NA,NA,clear_screen,null,null,NA,NA,critical,c,d,t,240,164,158.0083,227.1683,164,240,spektor,0.09,h,164,240,240,164,158.0083,227.1683,39360,39360,35894.4834,td,null,null,null,null,null,null,"[3,2]"
NA,canvas-keyboard-response,176,216592,0.0-6.0-2.28,5023,NA,NA,NA,NA,rectangles,null,null,NA,NA,critical,c,d,t,240,164,158.0083,227.1683,164,240,spektor,0.09,h,164,240,240,164,158.0083,227.1683,39360,39360,35894.4834,td,null,null,null,null,null,null,"[3,2]"
NA,canvas-keyboard-response,177,216758,0.0-6.0-3.28,5023,NA,NA,NA,NA,clear_screen,null,null,NA,NA,critical,c,d,t,240,164,158.0083,227.1683,164,240,spektor,0.09,h,164,240,240,164,158.0083,227.1683,39360,39360,35894.4834,td,null,null,null,null,null,null,"[3,2]"
NA,canvas-keyboard-response,178,217321,0.0-6.0-4.28,5023,NA,NA,NA,NA,make choice,548,3,NA,NA,critical,c,d,t,240,164,158.0083,227.1683,164,240,spektor,0.09,h,164,240,240,164,158.0083,227.1683,39360,39360,35894.4834,td,null,null,null,null,null,null,"[3,2]"
NA,canvas-keyboard-response,179,217486,0.0-6.0-5.28,5023,NA,NA,NA,NA,clear_screen,null,null,NA,NA,critical,c,d,t,240,164,158.0083,227.1683,164,240,spektor,0.09,h,164,240,240,164,158.0083,227.1683,39360,39360,35894.4834,td,null,null,null,null,null,null,"[3,2]"
NA,canvas-keyboard-response,180,217702,0.0-6.0-0.29,5023,NA,NA,NA,NA,pre trial waiting period,null,null,NA,NA,critical,c,d,t,164,240,237.1485,162.6685,240,164,spektor,0.02,w,240,164,164,240,237.1485,162.6685,39360,39360,38576.5967,td,null,null,null,null,null,null,"[3,2]"
NA,canvas-keyboard-response,181,217862,0.0-6.0-1.29,5023,NA,NA,NA,NA,clear_screen,null,null,NA,NA,critical,c,d,t,164,240,237.1485,162.6685,240,164,spektor,0.02,w,240,164,164,240,237.1485,162.6685,39360,39360,38576.5967,td,null,null,null,null,null,null,"[3,2]"
NA,canvas-keyboard-response,182,219203,0.0-6.0-2.29,5023,NA,NA,NA,NA,rectangles,null,null,NA,NA,critical,c,d,t,164,240,237.1485,162.6685,240,164,spektor,0.02,w,240,164,164,240,237.1485,162.6685,39360,39360,38576.5967,td,null,null,null,null,null,null,"[3,2]"
NA,canvas-keyboard-response,183,219368,0.0-6.0-3.29,5023,NA,NA,NA,NA,clear_screen,null,null,NA,NA,critical,c,d,t,164,240,237.1485,162.6685,240,164,spektor,0.02,w,240,164,164,240,237.1485,162.6685,39360,39360,38576.5967,td,null,null,null,null,null,null,"[3,2]"
NA,canvas-keyboard-response,184,220555,0.0-6.0-4.29,5023,NA,NA,NA,NA,make choice,1169,3,NA,NA,critical,c,d,t,164,240,237.1485,162.6685,240,164,spektor,0.02,w,240,164,164,240,237.1485,162.6685,39360,39360,38576.5967,td,null,null,null,null,null,null,"[3,2]"
NA,canvas-keyboard-response,185,220722,0.0-6.0-5.29,5023,NA,NA,NA,NA,clear_screen,null,null,NA,NA,critical,c,d,t,164,240,237.1485,162.6685,240,164,spektor,0.02,w,240,164,164,240,237.1485,162.6685,39360,39360,38576.5967,td,null,null,null,null,null,null,"[3,2]"
NA,canvas-keyboard-response,186,220934,0.0-6.0-0.30,5023,NA,NA,NA,NA,pre trial waiting period,null,null,NA,NA,critical,t,d,c,240,164,220.0396,154.6796,164,240,spektor,0.14,w,240,164,164,240,220.0396,154.6796,39360,39360,34035.6388,td,null,null,null,null,null,null,"[1,2]"
NA,canvas-keyboard-response,187,221097,0.0-6.0-1.30,5023,NA,NA,NA,NA,clear_screen,null,null,NA,NA,critical,t,d,c,240,164,220.0396,154.6796,164,240,spektor,0.14,w,240,164,164,240,220.0396,154.6796,39360,39360,34035.6388,td,null,null,null,null,null,null,"[1,2]"
NA,canvas-keyboard-response,188,222441,0.0-6.0-2.30,5023,NA,NA,NA,NA,rectangles,null,null,NA,NA,critical,t,d,c,240,164,220.0396,154.6796,164,240,spektor,0.14,w,240,164,164,240,220.0396,154.6796,39360,39360,34035.6388,td,null,null,null,null,null,null,"[1,2]"
NA,canvas-keyboard-response,189,222609,0.0-6.0-3.30,5023,NA,NA,NA,NA,clear_screen,null,null,NA,NA,critical,t,d,c,240,164,220.0396,154.6796,164,240,spektor,0.14,w,240,164,164,240,220.0396,154.6796,39360,39360,34035.6388,td,null,null,null,null,null,null,"[1,2]"
NA,canvas-keyboard-response,190,224091,0.0-6.0-4.30,5023,NA,NA,NA,NA,make choice,1462,2,NA,NA,critical,t,d,c,240,164,220.0396,154.6796,164,240,spektor,0.14,w,240,164,164,240,220.0396,154.6796,39360,39360,34035.6388,td,null,null,null,null,null,null,"[1,2]"
NA,canvas-keyboard-response,191,224259,0.0-6.0-5.30,5023,NA,NA,NA,NA,clear_screen,null,null,NA,NA,critical,t,d,c,240,164,220.0396,154.6796,164,240,spektor,0.14,w,240,164,164,240,220.0396,154.6796,39360,39360,34035.6388,td,null,null,null,null,null,null,"[1,2]"
NA,canvas-keyboard-response,192,224471,0.0-6.0-0.31,5023,NA,NA,NA,NA,pre trial waiting period,null,null,NA,NA,catch,sh,sw,l,210,160,149,228,285,204,spektor,null,null,null,null,null,null,null,null,null,null,null,NA,180,200,260,200,36000,52000,"[2,3]"
NA,canvas-keyboard-response,193,224631,0.0-6.0-1.31,5023,NA,NA,NA,NA,clear_screen,null,null,NA,NA,catch,sh,sw,l,210,160,149,228,285,204,spektor,null,null,null,null,null,null,null,null,null,null,null,NA,180,200,260,200,36000,52000,"[2,3]"
NA,canvas-keyboard-response,194,225976,0.0-6.0-2.31,5023,NA,NA,NA,NA,rectangles,null,null,NA,NA,catch,sh,sw,l,210,160,149,228,285,204,spektor,null,null,null,null,null,null,null,null,null,null,null,NA,180,200,260,200,36000,52000,"[2,3]"
NA,canvas-keyboard-response,195,226145,0.0-6.0-3.31,5023,NA,NA,NA,NA,clear_screen,null,null,NA,NA,catch,sh,sw,l,210,160,149,228,285,204,spektor,null,null,null,null,null,null,null,null,null,null,null,NA,180,200,260,200,36000,52000,"[2,3]"
NA,canvas-keyboard-response,196,227131,0.0-6.0-4.31,5023,NA,NA,NA,NA,make choice,968,3,NA,NA,catch,sh,sw,l,210,160,149,228,285,204,spektor,null,null,null,null,null,null,null,null,null,null,null,NA,180,200,260,200,36000,52000,"[2,3]"
NA,canvas-keyboard-response,197,227299,0.0-6.0-5.31,5023,NA,NA,NA,NA,clear_screen,null,null,NA,NA,catch,sh,sw,l,210,160,149,228,285,204,spektor,null,null,null,null,null,null,null,null,null,null,null,NA,180,200,260,200,36000,52000,"[2,3]"
NA,canvas-keyboard-response,198,227513,0.0-6.0-0.32,5023,NA,NA,NA,NA,pre trial waiting period,null,null,NA,NA,catch,l,sh,sw,249,230,162,146,206,209,spektor,null,null,null,null,null,null,null,null,null,null,null,NA,180,200,260,200,36000,52000,"[1,2]"
NA,canvas-keyboard-response,199,227667,0.0-6.0-1.32,5023,NA,NA,NA,NA,clear_screen,null,null,NA,NA,catch,l,sh,sw,249,230,162,146,206,209,spektor,null,null,null,null,null,null,null,null,null,null,null,NA,180,200,260,200,36000,52000,"[1,2]"
NA,canvas-keyboard-response,200,229010,0.0-6.0-2.32,5023,NA,NA,NA,NA,rectangles,null,null,NA,NA,catch,l,sh,sw,249,230,162,146,206,209,spektor,null,null,null,null,null,null,null,null,null,null,null,NA,180,200,260,200,36000,52000,"[1,2]"
NA,canvas-keyboard-response,201,229178,0.0-6.0-3.32,5023,NA,NA,NA,NA,clear_screen,null,null,NA,NA,catch,l,sh,sw,249,230,162,146,206,209,spektor,null,null,null,null,null,null,null,null,null,null,null,NA,180,200,260,200,36000,52000,"[1,2]"
NA,canvas-keyboard-response,202,230307,0.0-6.0-4.32,5023,NA,NA,NA,NA,make choice,1111,1,NA,NA,catch,l,sh,sw,249,230,162,146,206,209,spektor,null,null,null,null,null,null,null,null,null,null,null,NA,180,200,260,200,36000,52000,"[1,2]"
NA,canvas-keyboard-response,203,230474,0.0-6.0-5.32,5023,NA,NA,NA,NA,clear_screen,null,null,NA,NA,catch,l,sh,sw,249,230,162,146,206,209,spektor,null,null,null,null,null,null,null,null,null,null,null,NA,180,200,260,200,36000,52000,"[1,2]"
NA,canvas-keyboard-response,204,230692,0.0-6.0-0.33,5023,NA,NA,NA,NA,pre trial waiting period,null,null,NA,NA,critical,t,d,c,240,164,237.1485,162.6685,164,240,trueblood,0.02,w,240,164,164,240,237.1485,162.6685,39360,39360,38576.5967,dc,null,null,null,null,null,null,"[2,3]"
NA,canvas-keyboard-response,205,230847,0.0-6.0-1.33,5023,NA,NA,NA,NA,clear_screen,null,null,NA,NA,critical,t,d,c,240,164,237.1485,162.6685,164,240,trueblood,0.02,w,240,164,164,240,237.1485,162.6685,39360,39360,38576.5967,dc,null,null,null,null,null,null,"[2,3]"
NA,canvas-keyboard-response,206,232193,0.0-6.0-2.33,5023,NA,NA,NA,NA,rectangles,null,null,NA,NA,critical,t,d,c,240,164,237.1485,162.6685,164,240,trueblood,0.02,w,240,164,164,240,237.1485,162.6685,39360,39360,38576.5967,dc,null,null,null,null,null,null,"[2,3]"
NA,canvas-keyboard-response,207,232362,0.0-6.0-3.33,5023,NA,NA,NA,NA,clear_screen,null,null,NA,NA,critical,t,d,c,240,164,237.1485,162.6685,164,240,trueblood,0.02,w,240,164,164,240,237.1485,162.6685,39360,39360,38576.5967,dc,null,null,null,null,null,null,"[2,3]"
NA,canvas-keyboard-response,208,233635,0.0-6.0-4.33,5023,NA,NA,NA,NA,make choice,1254,2,NA,NA,critical,t,d,c,240,164,237.1485,162.6685,164,240,trueblood,0.02,w,240,164,164,240,237.1485,162.6685,39360,39360,38576.5967,dc,null,null,null,null,null,null,"[2,3]"
NA,canvas-keyboard-response,209,233799,0.0-6.0-5.33,5023,NA,NA,NA,NA,clear_screen,null,null,NA,NA,critical,t,d,c,240,164,237.1485,162.6685,164,240,trueblood,0.02,w,240,164,164,240,237.1485,162.6685,39360,39360,38576.5967,dc,null,null,null,null,null,null,"[2,3]"
NA,canvas-keyboard-response,210,234014,0.0-6.0-0.34,5023,NA,NA,NA,NA,pre trial waiting period,null,null,NA,NA,catch,l,sw,sh,243,187,166,220,190,213,trueblood,null,null,null,null,null,null,null,null,null,null,null,NA,180,200,260,200,36000,52000,"[1,2]"
NA,canvas-keyboard-response,211,234168,0.0-6.0-1.34,5023,NA,NA,NA,NA,clear_screen,null,null,NA,NA,catch,l,sw,sh,243,187,166,220,190,213,trueblood,null,null,null,null,null,null,null,null,null,null,null,NA,180,200,260,200,36000,52000,"[1,2]"
NA,canvas-keyboard-response,212,235510,0.0-6.0-2.34,5023,NA,NA,NA,NA,rectangles,null,null,NA,NA,catch,l,sw,sh,243,187,166,220,190,213,trueblood,null,null,null,null,null,null,null,null,null,null,null,NA,180,200,260,200,36000,52000,"[1,2]"
NA,canvas-keyboard-response,213,235676,0.0-6.0-3.34,5023,NA,NA,NA,NA,clear_screen,null,null,NA,NA,catch,l,sw,sh,243,187,166,220,190,213,trueblood,null,null,null,null,null,null,null,null,null,null,null,NA,180,200,260,200,36000,52000,"[1,2]"
NA,canvas-keyboard-response,214,236594,0.0-6.0-4.34,5023,NA,NA,NA,NA,make choice,898,2,NA,NA,catch,l,sw,sh,243,187,166,220,190,213,trueblood,null,null,null,null,null,null,null,null,null,null,null,NA,180,200,260,200,36000,52000,"[1,2]"
NA,canvas-keyboard-response,215,236760,0.0-6.0-5.34,5023,NA,NA,NA,NA,clear_screen,null,null,NA,NA,catch,l,sw,sh,243,187,166,220,190,213,trueblood,null,null,null,null,null,null,null,null,null,null,null,NA,180,200,260,200,36000,52000,"[1,2]"
NA,canvas-keyboard-response,216,236977,0.0-6.0-0.35,5023,NA,NA,NA,NA,pre trial waiting period,null,null,NA,NA,critical,c,d,t,240,164,164,240,164,240,spektor,0,h,164,240,240,164,164,240,39360,39360,39360,tc,null,null,null,null,null,null,"[3,1]"
NA,canvas-keyboard-response,217,237135,0.0-6.0-1.35,5023,NA,NA,NA,NA,clear_screen,null,null,NA,NA,critical,c,d,t,240,164,164,240,164,240,spektor,0,h,164,240,240,164,164,240,39360,39360,39360,tc,null,null,null,null,null,null,"[3,1]"
NA,canvas-keyboard-response,218,238479,0.0-6.0-2.35,5023,NA,NA,NA,NA,rectangles,null,null,NA,NA,critical,c,d,t,240,164,164,240,164,240,spektor,0,h,164,240,240,164,164,240,39360,39360,39360,tc,null,null,null,null,null,null,"[3,1]"
NA,canvas-keyboard-response,219,238649,0.0-6.0-3.35,5023,NA,NA,NA,NA,clear_screen,null,null,NA,NA,critical,c,d,t,240,164,164,240,164,240,spektor,0,h,164,240,240,164,164,240,39360,39360,39360,tc,null,null,null,null,null,null,"[3,1]"
NA,canvas-keyboard-response,220,239915,0.0-6.0-4.35,5023,NA,NA,NA,NA,make choice,1247,3,NA,NA,critical,c,d,t,240,164,164,240,164,240,spektor,0,h,164,240,240,164,164,240,39360,39360,39360,tc,null,null,null,null,null,null,"[3,1]"
NA,canvas-keyboard-response,221,240081,0.0-6.0-5.35,5023,NA,NA,NA,NA,clear_screen,null,null,NA,NA,critical,c,d,t,240,164,164,240,164,240,spektor,0,h,164,240,240,164,164,240,39360,39360,39360,tc,null,null,null,null,null,null,"[3,1]"
NA,canvas-keyboard-response,222,240298,0.0-6.0-0.36,5023,NA,NA,NA,NA,pre trial waiting period,null,null,NA,NA,catch,sw,sh,l,180,200,170,160,221,288,spektor,null,null,null,null,null,null,null,null,null,null,null,NA,180,200,260,200,36000,52000,"[2,3]"
NA,canvas-keyboard-response,223,240457,0.0-6.0-1.36,5023,NA,NA,NA,NA,clear_screen,null,null,NA,NA,catch,sw,sh,l,180,200,170,160,221,288,spektor,null,null,null,null,null,null,null,null,null,null,null,NA,180,200,260,200,36000,52000,"[2,3]"
NA,canvas-keyboard-response,224,241800,0.0-6.0-2.36,5023,NA,NA,NA,NA,rectangles,null,null,NA,NA,catch,sw,sh,l,180,200,170,160,221,288,spektor,null,null,null,null,null,null,null,null,null,null,null,NA,180,200,260,200,36000,52000,"[2,3]"
NA,canvas-keyboard-response,225,241973,0.0-6.0-3.36,5023,NA,NA,NA,NA,clear_screen,null,null,NA,NA,catch,sw,sh,l,180,200,170,160,221,288,spektor,null,null,null,null,null,null,null,null,null,null,null,NA,180,200,260,200,36000,52000,"[2,3]"
NA,canvas-keyboard-response,226,242474,0.0-6.0-4.36,5023,NA,NA,NA,NA,make choice,482,3,NA,NA,catch,sw,sh,l,180,200,170,160,221,288,spektor,null,null,null,null,null,null,null,null,null,null,null,NA,180,200,260,200,36000,52000,"[2,3]"
NA,canvas-keyboard-response,227,242644,0.0-6.0-5.36,5023,NA,NA,NA,NA,clear_screen,null,null,NA,NA,catch,sw,sh,l,180,200,170,160,221,288,spektor,null,null,null,null,null,null,null,null,null,null,null,NA,180,200,260,200,36000,52000,"[2,3]"
NA,canvas-keyboard-response,228,242859,0.0-6.0-0.37,5023,NA,NA,NA,NA,pre trial waiting period,null,null,NA,NA,critical,d,t,c,160.6713,232.8713,164,240,240,164,spektor,0.05,h,164,240,240,164,160.6713,232.8713,39360,39360,37415.7294,tc,null,null,null,null,null,null,"[2,3]"
NA,canvas-keyboard-response,229,243020,0.0-6.0-1.37,5023,NA,NA,NA,NA,clear_screen,null,null,NA,NA,critical,d,t,c,160.6713,232.8713,164,240,240,164,spektor,0.05,h,164,240,240,164,160.6713,232.8713,39360,39360,37415.7294,tc,null,null,null,null,null,null,"[2,3]"
NA,canvas-keyboard-response,230,244363,0.0-6.0-2.37,5023,NA,NA,NA,NA,rectangles,null,null,NA,NA,critical,d,t,c,160.6713,232.8713,164,240,240,164,spektor,0.05,h,164,240,240,164,160.6713,232.8713,39360,39360,37415.7294,tc,null,null,null,null,null,null,"[2,3]"
NA,canvas-keyboard-response,231,244533,0.0-6.0-3.37,5023,NA,NA,NA,NA,clear_screen,null,null,NA,NA,critical,d,t,c,160.6713,232.8713,164,240,240,164,spektor,0.05,h,164,240,240,164,160.6713,232.8713,39360,39360,37415.7294,tc,null,null,null,null,null,null,"[2,3]"
NA,canvas-keyboard-response,232,245410,0.0-6.0-4.37,5023,NA,NA,NA,NA,make choice,858,2,NA,NA,critical,d,t,c,160.6713,232.8713,164,240,240,164,spektor,0.05,h,164,240,240,164,160.6713,232.8713,39360,39360,37415.7294,tc,null,null,null,null,null,null,"[2,3]"
NA,canvas-keyboard-response,233,245577,0.0-6.0-5.37,5023,NA,NA,NA,NA,clear_screen,null,null,NA,NA,critical,d,t,c,160.6713,232.8713,164,240,240,164,spektor,0.05,h,164,240,240,164,160.6713,232.8713,39360,39360,37415.7294,tc,null,null,null,null,null,null,"[2,3]"
NA,canvas-keyboard-response,234,245792,0.0-6.0-0.38,5023,NA,NA,NA,NA,pre trial waiting period,null,null,NA,NA,catch,sh,l,sw,235,150,265,160,163,190,trueblood,null,null,null,null,null,null,null,null,null,null,null,NA,180,200,260,200,36000,52000,"[2,3]"
NA,canvas-keyboard-response,235,245953,0.0-6.0-1.38,5023,NA,NA,NA,NA,clear_screen,null,null,NA,NA,catch,sh,l,sw,235,150,265,160,163,190,trueblood,null,null,null,null,null,null,null,null,null,null,null,NA,180,200,260,200,36000,52000,"[2,3]"
NA,canvas-keyboard-response,236,247296,0.0-6.0-2.38,5023,NA,NA,NA,NA,rectangles,null,null,NA,NA,catch,sh,l,sw,235,150,265,160,163,190,trueblood,null,null,null,null,null,null,null,null,null,null,null,NA,180,200,260,200,36000,52000,"[2,3]"
NA,canvas-keyboard-response,237,247462,0.0-6.0-3.38,5023,NA,NA,NA,NA,clear_screen,null,null,NA,NA,catch,sh,l,sw,235,150,265,160,163,190,trueblood,null,null,null,null,null,null,null,null,null,null,null,NA,180,200,260,200,36000,52000,"[2,3]"
NA,canvas-keyboard-response,238,248066,0.0-6.0-4.38,5023,NA,NA,NA,NA,make choice,584,2,NA,NA,catch,sh,l,sw,235,150,265,160,163,190,trueblood,null,null,null,null,null,null,null,null,null,null,null,NA,180,200,260,200,36000,52000,"[2,3]"
NA,canvas-keyboard-response,239,248234,0.0-6.0-5.38,5023,NA,NA,NA,NA,clear_screen,null,null,NA,NA,catch,sh,l,sw,235,150,265,160,163,190,trueblood,null,null,null,null,null,null,null,null,null,null,null,NA,180,200,260,200,36000,52000,"[2,3]"
NA,canvas-keyboard-response,240,248452,0.0-6.0-0.39,5023,NA,NA,NA,NA,pre trial waiting period,null,null,NA,NA,catch,sh,l,sw,202,215,197,232,206,216,spektor,null,null,null,null,null,null,null,null,null,null,null,NA,180,200,260,200,36000,52000,"[1,2]"
NA,canvas-keyboard-response,241,248610,0.0-6.0-1.39,5023,NA,NA,NA,NA,clear_screen,null,null,NA,NA,catch,sh,l,sw,202,215,197,232,206,216,spektor,null,null,null,null,null,null,null,null,null,null,null,NA,180,200,260,200,36000,52000,"[1,2]"
NA,canvas-keyboard-response,242,249958,0.0-6.0-2.39,5023,NA,NA,NA,NA,rectangles,null,null,NA,NA,catch,sh,l,sw,202,215,197,232,206,216,spektor,null,null,null,null,null,null,null,null,null,null,null,NA,180,200,260,200,36000,52000,"[1,2]"
NA,canvas-keyboard-response,243,250131,0.0-6.0-3.39,5023,NA,NA,NA,NA,clear_screen,null,null,NA,NA,catch,sh,l,sw,202,215,197,232,206,216,spektor,null,null,null,null,null,null,null,null,null,null,null,NA,180,200,260,200,36000,52000,"[1,2]"
NA,canvas-keyboard-response,244,250876,0.0-6.0-4.39,5023,NA,NA,NA,NA,make choice,727,2,NA,NA,catch,sh,l,sw,202,215,197,232,206,216,spektor,null,null,null,null,null,null,null,null,null,null,null,NA,180,200,260,200,36000,52000,"[1,2]"
NA,canvas-keyboard-response,245,251044,0.0-6.0-5.39,5023,NA,NA,NA,NA,clear_screen,null,null,NA,NA,catch,sh,l,sw,202,215,197,232,206,216,spektor,null,null,null,null,null,null,null,null,null,null,null,NA,180,200,260,200,36000,52000,"[1,2]"
NA,canvas-keyboard-response,246,251261,0.0-6.0-0.40,5023,NA,NA,NA,NA,pre trial waiting period,null,null,NA,NA,catch,sh,sw,l,171,161,178,234,160,251,spektor,null,null,null,null,null,null,null,null,null,null,null,NA,180,200,260,200,36000,52000,"[1,3]"
NA,canvas-keyboard-response,247,251425,0.0-6.0-1.40,5023,NA,NA,NA,NA,clear_screen,null,null,NA,NA,catch,sh,sw,l,171,161,178,234,160,251,spektor,null,null,null,null,null,null,null,null,null,null,null,NA,180,200,260,200,36000,52000,"[1,3]"
NA,canvas-keyboard-response,248,252768,0.0-6.0-2.40,5023,NA,NA,NA,NA,rectangles,null,null,NA,NA,catch,sh,sw,l,171,161,178,234,160,251,spektor,null,null,null,null,null,null,null,null,null,null,null,NA,180,200,260,200,36000,52000,"[1,3]"
NA,canvas-keyboard-response,249,252940,0.0-6.0-3.40,5023,NA,NA,NA,NA,clear_screen,null,null,NA,NA,catch,sh,sw,l,171,161,178,234,160,251,spektor,null,null,null,null,null,null,null,null,null,null,null,NA,180,200,260,200,36000,52000,"[1,3]"
NA,canvas-keyboard-response,250,253595,0.0-6.0-4.40,5023,NA,NA,NA,NA,make choice,637,3,NA,NA,catch,sh,sw,l,171,161,178,234,160,251,spektor,null,null,null,null,null,null,null,null,null,null,null,NA,180,200,260,200,36000,52000,"[1,3]"
NA,canvas-keyboard-response,251,253761,0.0-6.0-5.40,5023,NA,NA,NA,NA,clear_screen,null,null,NA,NA,catch,sh,sw,l,171,161,178,234,160,251,spektor,null,null,null,null,null,null,null,null,null,null,null,NA,180,200,260,200,36000,52000,"[1,3]"
NA,canvas-keyboard-response,252,253978,0.0-6.0-0.41,5023,NA,NA,NA,NA,pre trial waiting period,null,null,NA,NA,critical,d,t,c,164,240,164,240,240,164,trueblood,0,h,164,240,240,164,164,240,39360,39360,39360,td,null,null,null,null,null,null,"[2,1]"
NA,canvas-keyboard-response,253,254137,0.0-6.0-1.41,5023,NA,NA,NA,NA,clear_screen,null,null,NA,NA,critical,d,t,c,164,240,164,240,240,164,trueblood,0,h,164,240,240,164,164,240,39360,39360,39360,td,null,null,null,null,null,null,"[2,1]"
NA,canvas-keyboard-response,254,255483,0.0-6.0-2.41,5023,NA,NA,NA,NA,rectangles,null,null,NA,NA,critical,d,t,c,164,240,164,240,240,164,trueblood,0,h,164,240,240,164,164,240,39360,39360,39360,td,null,null,null,null,null,null,"[2,1]"
NA,canvas-keyboard-response,255,255652,0.0-6.0-3.41,5023,NA,NA,NA,NA,clear_screen,null,null,NA,NA,critical,d,t,c,164,240,164,240,240,164,trueblood,0,h,164,240,240,164,164,240,39360,39360,39360,td,null,null,null,null,null,null,"[2,1]"
NA,canvas-keyboard-response,256,256411,0.0-6.0-4.41,5023,NA,NA,NA,NA,make choice,738,2,NA,NA,critical,d,t,c,164,240,164,240,240,164,trueblood,0,h,164,240,240,164,164,240,39360,39360,39360,td,null,null,null,null,null,null,"[2,1]"
NA,canvas-keyboard-response,257,256578,0.0-6.0-5.41,5023,NA,NA,NA,NA,clear_screen,null,null,NA,NA,critical,d,t,c,164,240,164,240,240,164,trueblood,0,h,164,240,240,164,164,240,39360,39360,39360,td,null,null,null,null,null,null,"[2,1]"
NA,canvas-keyboard-response,258,256790,0.0-6.0-0.42,5023,NA,NA,NA,NA,pre trial waiting period,null,null,NA,NA,critical,d,t,c,232.8713,160.6713,240,164,164,240,spektor,0.05,w,240,164,164,240,232.8713,160.6713,39360,39360,37415.7294,td,null,null,null,null,null,null,"[2,1]"
NA,canvas-keyboard-response,259,256944,0.0-6.0-1.42,5023,NA,NA,NA,NA,clear_screen,null,null,NA,NA,critical,d,t,c,232.8713,160.6713,240,164,164,240,spektor,0.05,w,240,164,164,240,232.8713,160.6713,39360,39360,37415.7294,td,null,null,null,null,null,null,"[2,1]"
NA,canvas-keyboard-response,260,258291,0.0-6.0-2.42,5023,NA,NA,NA,NA,rectangles,null,null,NA,NA,critical,d,t,c,232.8713,160.6713,240,164,164,240,spektor,0.05,w,240,164,164,240,232.8713,160.6713,39360,39360,37415.7294,td,null,null,null,null,null,null,"[2,1]"
NA,canvas-keyboard-response,261,258466,0.0-6.0-3.42,5023,NA,NA,NA,NA,clear_screen,null,null,NA,NA,critical,d,t,c,232.8713,160.6713,240,164,164,240,spektor,0.05,w,240,164,164,240,232.8713,160.6713,39360,39360,37415.7294,td,null,null,null,null,null,null,"[2,1]"
NA,canvas-keyboard-response,262,259658,0.0-6.0-4.42,5023,NA,NA,NA,NA,make choice,1180,2,NA,NA,critical,d,t,c,232.8713,160.6713,240,164,164,240,spektor,0.05,w,240,164,164,240,232.8713,160.6713,39360,39360,37415.7294,td,null,null,null,null,null,null,"[2,1]"
NA,canvas-keyboard-response,263,259827,0.0-6.0-5.42,5023,NA,NA,NA,NA,clear_screen,null,null,NA,NA,critical,d,t,c,232.8713,160.6713,240,164,164,240,spektor,0.05,w,240,164,164,240,232.8713,160.6713,39360,39360,37415.7294,td,null,null,null,null,null,null,"[2,1]"
NA,canvas-keyboard-response,264,260044,0.0-6.0-0.43,5023,NA,NA,NA,NA,pre trial waiting period,null,null,NA,NA,catch,l,sh,sw,253,189,166,155,174,165,spektor,null,null,null,null,null,null,null,null,null,null,null,NA,180,200,260,200,36000,52000,"[1,3]"
NA,canvas-keyboard-response,265,260206,0.0-6.0-1.43,5023,NA,NA,NA,NA,clear_screen,null,null,NA,NA,catch,l,sh,sw,253,189,166,155,174,165,spektor,null,null,null,null,null,null,null,null,null,null,null,NA,180,200,260,200,36000,52000,"[1,3]"
NA,canvas-keyboard-response,266,261548,0.0-6.0-2.43,5023,NA,NA,NA,NA,rectangles,null,null,NA,NA,catch,l,sh,sw,253,189,166,155,174,165,spektor,null,null,null,null,null,null,null,null,null,null,null,NA,180,200,260,200,36000,52000,"[1,3]"
NA,canvas-keyboard-response,267,261717,0.0-6.0-3.43,5023,NA,NA,NA,NA,clear_screen,null,null,NA,NA,catch,l,sh,sw,253,189,166,155,174,165,spektor,null,null,null,null,null,null,null,null,null,null,null,NA,180,200,260,200,36000,52000,"[1,3]"
NA,canvas-keyboard-response,268,262762,0.0-6.0-4.43,5023,NA,NA,NA,NA,make choice,1024,1,NA,NA,catch,l,sh,sw,253,189,166,155,174,165,spektor,null,null,null,null,null,null,null,null,null,null,null,NA,180,200,260,200,36000,52000,"[1,3]"
NA,canvas-keyboard-response,269,262931,0.0-6.0-5.43,5023,NA,NA,NA,NA,clear_screen,null,null,NA,NA,catch,l,sh,sw,253,189,166,155,174,165,spektor,null,null,null,null,null,null,null,null,null,null,null,NA,180,200,260,200,36000,52000,"[1,3]"
NA,canvas-keyboard-response,270,263145,0.0-6.0-0.44,5023,NA,NA,NA,NA,pre trial waiting period,null,null,NA,NA,critical,t,c,d,240,164,164,240,237.1485,162.6685,trueblood,0.02,w,240,164,164,240,237.1485,162.6685,39360,39360,38576.5967,td,null,null,null,null,null,null,"[1,3]"
NA,canvas-keyboard-response,271,263304,0.0-6.0-1.44,5023,NA,NA,NA,NA,clear_screen,null,null,NA,NA,critical,t,c,d,240,164,164,240,237.1485,162.6685,trueblood,0.02,w,240,164,164,240,237.1485,162.6685,39360,39360,38576.5967,td,null,null,null,null,null,null,"[1,3]"
NA,canvas-keyboard-response,272,264648,0.0-6.0-2.44,5023,NA,NA,NA,NA,rectangles,null,null,NA,NA,critical,t,c,d,240,164,164,240,237.1485,162.6685,trueblood,0.02,w,240,164,164,240,237.1485,162.6685,39360,39360,38576.5967,td,null,null,null,null,null,null,"[1,3]"
NA,canvas-keyboard-response,273,264814,0.0-6.0-3.44,5023,NA,NA,NA,NA,clear_screen,null,null,NA,NA,critical,t,c,d,240,164,164,240,237.1485,162.6685,trueblood,0.02,w,240,164,164,240,237.1485,162.6685,39360,39360,38576.5967,td,null,null,null,null,null,null,"[1,3]"
NA,canvas-keyboard-response,274,265874,0.0-6.0-4.44,5023,NA,NA,NA,NA,make choice,1041,3,NA,NA,critical,t,c,d,240,164,164,240,237.1485,162.6685,trueblood,0.02,w,240,164,164,240,237.1485,162.6685,39360,39360,38576.5967,td,null,null,null,null,null,null,"[1,3]"
NA,canvas-keyboard-response,275,266041,0.0-6.0-5.44,5023,NA,NA,NA,NA,clear_screen,null,null,NA,NA,critical,t,c,d,240,164,164,240,237.1485,162.6685,trueblood,0.02,w,240,164,164,240,237.1485,162.6685,39360,39360,38576.5967,td,null,null,null,null,null,null,"[1,3]"
NA,canvas-keyboard-response,276,266254,0.0-6.0-0.45,5023,NA,NA,NA,NA,pre trial waiting period,null,null,NA,NA,critical,t,c,d,240,164,164,240,220.0396,154.6796,trueblood,0.14,w,240,164,164,240,220.0396,154.6796,39360,39360,34035.6388,dc,null,null,null,null,null,null,"[3,2]"
NA,canvas-keyboard-response,277,266411,0.0-6.0-1.45,5023,NA,NA,NA,NA,clear_screen,null,null,NA,NA,critical,t,c,d,240,164,164,240,220.0396,154.6796,trueblood,0.14,w,240,164,164,240,220.0396,154.6796,39360,39360,34035.6388,dc,null,null,null,null,null,null,"[3,2]"
NA,canvas-keyboard-response,278,267755,0.0-6.0-2.45,5023,NA,NA,NA,NA,rectangles,null,null,NA,NA,critical,t,c,d,240,164,164,240,220.0396,154.6796,trueblood,0.14,w,240,164,164,240,220.0396,154.6796,39360,39360,34035.6388,dc,null,null,null,null,null,null,"[3,2]"
NA,canvas-keyboard-response,279,267925,0.0-6.0-3.45,5023,NA,NA,NA,NA,clear_screen,null,null,NA,NA,critical,t,c,d,240,164,164,240,220.0396,154.6796,trueblood,0.14,w,240,164,164,240,220.0396,154.6796,39360,39360,34035.6388,dc,null,null,null,null,null,null,"[3,2]"
NA,canvas-keyboard-response,280,270362,0.0-6.0-4.45,5023,NA,NA,NA,NA,make choice,2416,2,NA,NA,critical,t,c,d,240,164,164,240,220.0396,154.6796,trueblood,0.14,w,240,164,164,240,220.0396,154.6796,39360,39360,34035.6388,dc,null,null,null,null,null,null,"[3,2]"
NA,canvas-keyboard-response,281,270531,0.0-6.0-5.45,5023,NA,NA,NA,NA,clear_screen,null,null,NA,NA,critical,t,c,d,240,164,164,240,220.0396,154.6796,trueblood,0.14,w,240,164,164,240,220.0396,154.6796,39360,39360,34035.6388,dc,null,null,null,null,null,null,"[3,2]"
NA,canvas-keyboard-response,282,270747,0.0-6.0-0.46,5023,NA,NA,NA,NA,pre trial waiting period,null,null,NA,NA,critical,c,d,t,240,164,154.6796,220.0396,164,240,spektor,0.14,h,164,240,240,164,154.6796,220.0396,39360,39360,34035.6388,dc,null,null,null,null,null,null,"[2,1]"
NA,canvas-keyboard-response,283,270909,0.0-6.0-1.46,5023,NA,NA,NA,NA,clear_screen,null,null,NA,NA,critical,c,d,t,240,164,154.6796,220.0396,164,240,spektor,0.14,h,164,240,240,164,154.6796,220.0396,39360,39360,34035.6388,dc,null,null,null,null,null,null,"[2,1]"
NA,canvas-keyboard-response,284,272257,0.0-6.0-2.46,5023,NA,NA,NA,NA,rectangles,null,null,NA,NA,critical,c,d,t,240,164,154.6796,220.0396,164,240,spektor,0.14,h,164,240,240,164,154.6796,220.0396,39360,39360,34035.6388,dc,null,null,null,null,null,null,"[2,1]"
NA,canvas-keyboard-response,285,272426,0.0-6.0-3.46,5023,NA,NA,NA,NA,clear_screen,null,null,NA,NA,critical,c,d,t,240,164,154.6796,220.0396,164,240,spektor,0.14,h,164,240,240,164,154.6796,220.0396,39360,39360,34035.6388,dc,null,null,null,null,null,null,"[2,1]"
NA,canvas-keyboard-response,286,273604,0.0-6.0-4.46,5023,NA,NA,NA,NA,make choice,1157,1,NA,NA,critical,c,d,t,240,164,154.6796,220.0396,164,240,spektor,0.14,h,164,240,240,164,154.6796,220.0396,39360,39360,34035.6388,dc,null,null,null,null,null,null,"[2,1]"
NA,canvas-keyboard-response,287,273772,0.0-6.0-5.46,5023,NA,NA,NA,NA,clear_screen,null,null,NA,NA,critical,c,d,t,240,164,154.6796,220.0396,164,240,spektor,0.14,h,164,240,240,164,154.6796,220.0396,39360,39360,34035.6388,dc,null,null,null,null,null,null,"[2,1]"
NA,canvas-keyboard-response,288,273988,0.0-6.0-0.47,5023,NA,NA,NA,NA,pre trial waiting period,null,null,NA,NA,critical,c,d,t,240,164,162.6685,237.1485,164,240,trueblood,0.02,h,164,240,240,164,162.6685,237.1485,39360,39360,38576.5967,td,null,null,null,null,null,null,"[3,2]"
NA,canvas-keyboard-response,289,274150,0.0-6.0-1.47,5023,NA,NA,NA,NA,clear_screen,null,null,NA,NA,critical,c,d,t,240,164,162.6685,237.1485,164,240,trueblood,0.02,h,164,240,240,164,162.6685,237.1485,39360,39360,38576.5967,td,null,null,null,null,null,null,"[3,2]"
NA,canvas-keyboard-response,290,275496,0.0-6.0-2.47,5023,NA,NA,NA,NA,rectangles,null,null,NA,NA,critical,c,d,t,240,164,162.6685,237.1485,164,240,trueblood,0.02,h,164,240,240,164,162.6685,237.1485,39360,39360,38576.5967,td,null,null,null,null,null,null,"[3,2]"
NA,canvas-keyboard-response,291,275675,0.0-6.0-3.47,5023,NA,NA,NA,NA,clear_screen,null,null,NA,NA,critical,c,d,t,240,164,162.6685,237.1485,164,240,trueblood,0.02,h,164,240,240,164,162.6685,237.1485,39360,39360,38576.5967,td,null,null,null,null,null,null,"[3,2]"
NA,canvas-keyboard-response,292,276035,0.0-6.0-4.47,5023,NA,NA,NA,NA,make choice,330,3,NA,NA,critical,c,d,t,240,164,162.6685,237.1485,164,240,trueblood,0.02,h,164,240,240,164,162.6685,237.1485,39360,39360,38576.5967,td,null,null,null,null,null,null,"[3,2]"
NA,canvas-keyboard-response,293,276203,0.0-6.0-5.47,5023,NA,NA,NA,NA,clear_screen,null,null,NA,NA,critical,c,d,t,240,164,162.6685,237.1485,164,240,trueblood,0.02,h,164,240,240,164,162.6685,237.1485,39360,39360,38576.5967,td,null,null,null,null,null,null,"[3,2]"
NA,canvas-keyboard-response,294,276415,0.0-6.0-0.48,5023,NA,NA,NA,NA,pre trial waiting period,null,null,NA,NA,catch,sh,sw,l,198,158,170,222,224,223,trueblood,null,null,null,null,null,null,null,null,null,null,null,NA,180,200,260,200,36000,52000,"[2,3]"
NA,canvas-keyboard-response,295,276575,0.0-6.0-1.48,5023,NA,NA,NA,NA,clear_screen,null,null,NA,NA,catch,sh,sw,l,198,158,170,222,224,223,trueblood,null,null,null,null,null,null,null,null,null,null,null,NA,180,200,260,200,36000,52000,"[2,3]"
NA,canvas-keyboard-response,296,277922,0.0-6.0-2.48,5023,NA,NA,NA,NA,rectangles,null,null,NA,NA,catch,sh,sw,l,198,158,170,222,224,223,trueblood,null,null,null,null,null,null,null,null,null,null,null,NA,180,200,260,200,36000,52000,"[2,3]"
NA,canvas-keyboard-response,297,278091,0.0-6.0-3.48,5023,NA,NA,NA,NA,clear_screen,null,null,NA,NA,catch,sh,sw,l,198,158,170,222,224,223,trueblood,null,null,null,null,null,null,null,null,null,null,null,NA,180,200,260,200,36000,52000,"[2,3]"
NA,canvas-keyboard-response,298,280124,0.0-6.0-4.48,5023,NA,NA,NA,NA,make choice,2009,3,NA,NA,catch,sh,sw,l,198,158,170,222,224,223,trueblood,null,null,null,null,null,null,null,null,null,null,null,NA,180,200,260,200,36000,52000,"[2,3]"
NA,canvas-keyboard-response,299,280290,0.0-6.0-5.48,5023,NA,NA,NA,NA,clear_screen,null,null,NA,NA,catch,sh,sw,l,198,158,170,222,224,223,trueblood,null,null,null,null,null,null,null,null,null,null,null,NA,180,200,260,200,36000,52000,"[2,3]"
NA,canvas-keyboard-response,300,280506,0.0-6.0-0.49,5023,NA,NA,NA,NA,pre trial waiting period,null,null,NA,NA,catch,sw,l,sh,180,200,194,266,168,167,trueblood,null,null,null,null,null,null,null,null,null,null,null,NA,180,200,260,200,36000,52000,"[2,3]"
NA,canvas-keyboard-response,301,280661,0.0-6.0-1.49,5023,NA,NA,NA,NA,clear_screen,null,null,NA,NA,catch,sw,l,sh,180,200,194,266,168,167,trueblood,null,null,null,null,null,null,null,null,null,null,null,NA,180,200,260,200,36000,52000,"[2,3]"
NA,canvas-keyboard-response,302,282008,0.0-6.0-2.49,5023,NA,NA,NA,NA,rectangles,null,null,NA,NA,catch,sw,l,sh,180,200,194,266,168,167,trueblood,null,null,null,null,null,null,null,null,null,null,null,NA,180,200,260,200,36000,52000,"[2,3]"
NA,canvas-keyboard-response,303,282179,0.0-6.0-3.49,5023,NA,NA,NA,NA,clear_screen,null,null,NA,NA,catch,sw,l,sh,180,200,194,266,168,167,trueblood,null,null,null,null,null,null,null,null,null,null,null,NA,180,200,260,200,36000,52000,"[2,3]"
NA,canvas-keyboard-response,304,282786,0.0-6.0-4.49,5023,NA,NA,NA,NA,make choice,589,2,NA,NA,catch,sw,l,sh,180,200,194,266,168,167,trueblood,null,null,null,null,null,null,null,null,null,null,null,NA,180,200,260,200,36000,52000,"[2,3]"
NA,canvas-keyboard-response,305,282957,0.0-6.0-5.49,5023,NA,NA,NA,NA,clear_screen,null,null,NA,NA,catch,sw,l,sh,180,200,194,266,168,167,trueblood,null,null,null,null,null,null,null,null,null,null,null,NA,180,200,260,200,36000,52000,"[2,3]"
NA,canvas-keyboard-response,306,283175,0.0-6.0-0.50,5023,NA,NA,NA,NA,pre trial waiting period,null,null,NA,NA,catch,sh,sw,l,165,199,218,186,298,210,trueblood,null,null,null,null,null,null,null,null,null,null,null,NA,180,200,260,200,36000,52000,"[2,3]"
NA,canvas-keyboard-response,307,283332,0.0-6.0-1.50,5023,NA,NA,NA,NA,clear_screen,null,null,NA,NA,catch,sh,sw,l,165,199,218,186,298,210,trueblood,null,null,null,null,null,null,null,null,null,null,null,NA,180,200,260,200,36000,52000,"[2,3]"
NA,canvas-keyboard-response,308,284678,0.0-6.0-2.50,5023,NA,NA,NA,NA,rectangles,null,null,NA,NA,catch,sh,sw,l,165,199,218,186,298,210,trueblood,null,null,null,null,null,null,null,null,null,null,null,NA,180,200,260,200,36000,52000,"[2,3]"
NA,canvas-keyboard-response,309,284846,0.0-6.0-3.50,5023,NA,NA,NA,NA,clear_screen,null,null,NA,NA,catch,sh,sw,l,165,199,218,186,298,210,trueblood,null,null,null,null,null,null,null,null,null,null,null,NA,180,200,260,200,36000,52000,"[2,3]"
NA,canvas-keyboard-response,310,285827,0.0-6.0-4.50,5023,NA,NA,NA,NA,make choice,961,3,NA,NA,catch,sh,sw,l,165,199,218,186,298,210,trueblood,null,null,null,null,null,null,null,null,null,null,null,NA,180,200,260,200,36000,52000,"[2,3]"
NA,canvas-keyboard-response,311,285997,0.0-6.0-5.50,5023,NA,NA,NA,NA,clear_screen,null,null,NA,NA,catch,sh,sw,l,165,199,218,186,298,210,trueblood,null,null,null,null,null,null,null,null,null,null,null,NA,180,200,260,200,36000,52000,"[2,3]"
NA,canvas-keyboard-response,312,286213,0.0-6.0-0.51,5023,NA,NA,NA,NA,pre trial waiting period,null,null,NA,NA,critical,d,c,t,240,164,164,240,240,164,trueblood,0,w,240,164,164,240,240,164,39360,39360,39360,dc,null,null,null,null,null,null,"[1,2]"
NA,canvas-keyboard-response,313,286377,0.0-6.0-1.51,5023,NA,NA,NA,NA,clear_screen,null,null,NA,NA,critical,d,c,t,240,164,164,240,240,164,trueblood,0,w,240,164,164,240,240,164,39360,39360,39360,dc,null,null,null,null,null,null,"[1,2]"
NA,canvas-keyboard-response,314,287722,0.0-6.0-2.51,5023,NA,NA,NA,NA,rectangles,null,null,NA,NA,critical,d,c,t,240,164,164,240,240,164,trueblood,0,w,240,164,164,240,240,164,39360,39360,39360,dc,null,null,null,null,null,null,"[1,2]"
NA,canvas-keyboard-response,315,287894,0.0-6.0-3.51,5023,NA,NA,NA,NA,clear_screen,null,null,NA,NA,critical,d,c,t,240,164,164,240,240,164,trueblood,0,w,240,164,164,240,240,164,39360,39360,39360,dc,null,null,null,null,null,null,"[1,2]"
NA,canvas-keyboard-response,316,289210,0.0-6.0-4.51,5023,NA,NA,NA,NA,make choice,1295,1,NA,NA,critical,d,c,t,240,164,164,240,240,164,trueblood,0,w,240,164,164,240,240,164,39360,39360,39360,dc,null,null,null,null,null,null,"[1,2]"
NA,canvas-keyboard-response,317,289380,0.0-6.0-5.51,5023,NA,NA,NA,NA,clear_screen,null,null,NA,NA,critical,d,c,t,240,164,164,240,240,164,trueblood,0,w,240,164,164,240,240,164,39360,39360,39360,dc,null,null,null,null,null,null,"[1,2]"
NA,canvas-keyboard-response,318,289599,0.0-6.0-0.52,5023,NA,NA,NA,NA,pre trial waiting period,null,null,NA,NA,critical,t,c,d,240,164,164,240,240,164,trueblood,0,w,240,164,164,240,240,164,39360,39360,39360,tc,null,null,null,null,null,null,"[1,2]"
NA,canvas-keyboard-response,319,289761,0.0-6.0-1.52,5023,NA,NA,NA,NA,clear_screen,null,null,NA,NA,critical,t,c,d,240,164,164,240,240,164,trueblood,0,w,240,164,164,240,240,164,39360,39360,39360,tc,null,null,null,null,null,null,"[1,2]"
NA,canvas-keyboard-response,320,291107,0.0-6.0-2.52,5023,NA,NA,NA,NA,rectangles,null,null,NA,NA,critical,t,c,d,240,164,164,240,240,164,trueblood,0,w,240,164,164,240,240,164,39360,39360,39360,tc,null,null,null,null,null,null,"[1,2]"
NA,canvas-keyboard-response,321,291277,0.0-6.0-3.52,5023,NA,NA,NA,NA,clear_screen,null,null,NA,NA,critical,t,c,d,240,164,164,240,240,164,trueblood,0,w,240,164,164,240,240,164,39360,39360,39360,tc,null,null,null,null,null,null,"[1,2]"
NA,canvas-keyboard-response,322,292306,0.0-6.0-4.52,5023,NA,NA,NA,NA,make choice,1009,1,NA,NA,critical,t,c,d,240,164,164,240,240,164,trueblood,0,w,240,164,164,240,240,164,39360,39360,39360,tc,null,null,null,null,null,null,"[1,2]"
NA,canvas-keyboard-response,323,292474,0.0-6.0-5.52,5023,NA,NA,NA,NA,clear_screen,null,null,NA,NA,critical,t,c,d,240,164,164,240,240,164,trueblood,0,w,240,164,164,240,240,164,39360,39360,39360,tc,null,null,null,null,null,null,"[1,2]"
NA,canvas-keyboard-response,324,292693,0.0-6.0-0.53,5023,NA,NA,NA,NA,pre trial waiting period,null,null,NA,NA,critical,d,c,t,164,240,240,164,164,240,trueblood,0,h,164,240,240,164,164,240,39360,39360,39360,dc,null,null,null,null,null,null,"[1,2]"
NA,canvas-keyboard-response,325,292852,0.0-6.0-1.53,5023,NA,NA,NA,NA,clear_screen,null,null,NA,NA,critical,d,c,t,164,240,240,164,164,240,trueblood,0,h,164,240,240,164,164,240,39360,39360,39360,dc,null,null,null,null,null,null,"[1,2]"
NA,canvas-keyboard-response,326,294197,0.0-6.0-2.53,5023,NA,NA,NA,NA,rectangles,null,null,NA,NA,critical,d,c,t,164,240,240,164,164,240,trueblood,0,h,164,240,240,164,164,240,39360,39360,39360,dc,null,null,null,null,null,null,"[1,2]"
NA,canvas-keyboard-response,327,294370,0.0-6.0-3.53,5023,NA,NA,NA,NA,clear_screen,null,null,NA,NA,critical,d,c,t,164,240,240,164,164,240,trueblood,0,h,164,240,240,164,164,240,39360,39360,39360,dc,null,null,null,null,null,null,"[1,2]"
NA,canvas-keyboard-response,328,294778,0.0-6.0-4.53,5023,NA,NA,NA,NA,make choice,388,2,NA,NA,critical,d,c,t,164,240,240,164,164,240,trueblood,0,h,164,240,240,164,164,240,39360,39360,39360,dc,null,null,null,null,null,null,"[1,2]"
NA,canvas-keyboard-response,329,294948,0.0-6.0-5.53,5023,NA,NA,NA,NA,clear_screen,null,null,NA,NA,critical,d,c,t,164,240,240,164,164,240,trueblood,0,h,164,240,240,164,164,240,39360,39360,39360,dc,null,null,null,null,null,null,"[1,2]"
NA,canvas-keyboard-response,330,295166,0.0-6.0-0.54,5023,NA,NA,NA,NA,pre trial waiting period,null,null,NA,NA,critical,d,c,t,162.6685,237.1485,240,164,164,240,trueblood,0.02,h,164,240,240,164,162.6685,237.1485,39360,39360,38576.5967,tc,null,null,null,null,null,null,"[3,2]"
NA,canvas-keyboard-response,331,295324,0.0-6.0-1.54,5023,NA,NA,NA,NA,clear_screen,null,null,NA,NA,critical,d,c,t,162.6685,237.1485,240,164,164,240,trueblood,0.02,h,164,240,240,164,162.6685,237.1485,39360,39360,38576.5967,tc,null,null,null,null,null,null,"[3,2]"
NA,canvas-keyboard-response,332,296670,0.0-6.0-2.54,5023,NA,NA,NA,NA,rectangles,null,null,NA,NA,critical,d,c,t,162.6685,237.1485,240,164,164,240,trueblood,0.02,h,164,240,240,164,162.6685,237.1485,39360,39360,38576.5967,tc,null,null,null,null,null,null,"[3,2]"
NA,canvas-keyboard-response,333,296840,0.0-6.0-3.54,5023,NA,NA,NA,NA,clear_screen,null,null,NA,NA,critical,d,c,t,162.6685,237.1485,240,164,164,240,trueblood,0.02,h,164,240,240,164,162.6685,237.1485,39360,39360,38576.5967,tc,null,null,null,null,null,null,"[3,2]"
NA,canvas-keyboard-response,334,297402,0.0-6.0-4.54,5023,NA,NA,NA,NA,make choice,543,2,NA,NA,critical,d,c,t,162.6685,237.1485,240,164,164,240,trueblood,0.02,h,164,240,240,164,162.6685,237.1485,39360,39360,38576.5967,tc,null,null,null,null,null,null,"[3,2]"
NA,canvas-keyboard-response,335,297572,0.0-6.0-5.54,5023,NA,NA,NA,NA,clear_screen,null,null,NA,NA,critical,d,c,t,162.6685,237.1485,240,164,164,240,trueblood,0.02,h,164,240,240,164,162.6685,237.1485,39360,39360,38576.5967,tc,null,null,null,null,null,null,"[3,2]"
NA,canvas-keyboard-response,336,297790,0.0-6.0-0.55,5023,NA,NA,NA,NA,pre trial waiting period,null,null,NA,NA,catch,l,sh,sw,235,225,188,163,199,176,spektor,null,null,null,null,null,null,null,null,null,null,null,NA,180,200,260,200,36000,52000,"[1,3]"
NA,canvas-keyboard-response,337,297953,0.0-6.0-1.55,5023,NA,NA,NA,NA,clear_screen,null,null,NA,NA,catch,l,sh,sw,235,225,188,163,199,176,spektor,null,null,null,null,null,null,null,null,null,null,null,NA,180,200,260,200,36000,52000,"[1,3]"
NA,canvas-keyboard-response,338,299301,0.0-6.0-2.55,5023,NA,NA,NA,NA,rectangles,null,null,NA,NA,catch,l,sh,sw,235,225,188,163,199,176,spektor,null,null,null,null,null,null,null,null,null,null,null,NA,180,200,260,200,36000,52000,"[1,3]"
NA,canvas-keyboard-response,339,299475,0.0-6.0-3.55,5023,NA,NA,NA,NA,clear_screen,null,null,NA,NA,catch,l,sh,sw,235,225,188,163,199,176,spektor,null,null,null,null,null,null,null,null,null,null,null,NA,180,200,260,200,36000,52000,"[1,3]"
NA,canvas-keyboard-response,340,300290,0.0-6.0-4.55,5023,NA,NA,NA,NA,make choice,795,1,NA,NA,catch,l,sh,sw,235,225,188,163,199,176,spektor,null,null,null,null,null,null,null,null,null,null,null,NA,180,200,260,200,36000,52000,"[1,3]"
NA,canvas-keyboard-response,341,300461,0.0-6.0-5.55,5023,NA,NA,NA,NA,clear_screen,null,null,NA,NA,catch,l,sh,sw,235,225,188,163,199,176,spektor,null,null,null,null,null,null,null,null,null,null,null,NA,180,200,260,200,36000,52000,"[1,3]"
NA,canvas-keyboard-response,342,300678,0.0-6.0-0.56,5023,NA,NA,NA,NA,pre trial waiting period,null,null,NA,NA,critical,d,t,c,162.6685,237.1485,164,240,240,164,spektor,0.02,h,164,240,240,164,162.6685,237.1485,39360,39360,38576.5967,dc,null,null,null,null,null,null,"[1,3]"
NA,canvas-keyboard-response,343,300838,0.0-6.0-1.56,5023,NA,NA,NA,NA,clear_screen,null,null,NA,NA,critical,d,t,c,162.6685,237.1485,164,240,240,164,spektor,0.02,h,164,240,240,164,162.6685,237.1485,39360,39360,38576.5967,dc,null,null,null,null,null,null,"[1,3]"
NA,canvas-keyboard-response,344,302187,0.0-6.0-2.56,5023,NA,NA,NA,NA,rectangles,null,null,NA,NA,critical,d,t,c,162.6685,237.1485,164,240,240,164,spektor,0.02,h,164,240,240,164,162.6685,237.1485,39360,39360,38576.5967,dc,null,null,null,null,null,null,"[1,3]"
NA,canvas-keyboard-response,345,302358,0.0-6.0-3.56,5023,NA,NA,NA,NA,clear_screen,null,null,NA,NA,critical,d,t,c,162.6685,237.1485,164,240,240,164,spektor,0.02,h,164,240,240,164,162.6685,237.1485,39360,39360,38576.5967,dc,null,null,null,null,null,null,"[1,3]"
NA,canvas-keyboard-response,346,303290,0.0-6.0-4.56,5023,NA,NA,NA,NA,make choice,909,1,NA,NA,critical,d,t,c,162.6685,237.1485,164,240,240,164,spektor,0.02,h,164,240,240,164,162.6685,237.1485,39360,39360,38576.5967,dc,null,null,null,null,null,null,"[1,3]"
NA,canvas-keyboard-response,347,303459,0.0-6.0-5.56,5023,NA,NA,NA,NA,clear_screen,null,null,NA,NA,critical,d,t,c,162.6685,237.1485,164,240,240,164,spektor,0.02,h,164,240,240,164,162.6685,237.1485,39360,39360,38576.5967,dc,null,null,null,null,null,null,"[1,3]"
NA,canvas-keyboard-response,348,303676,0.0-6.0-0.57,5023,NA,NA,NA,NA,pre trial waiting period,null,null,NA,NA,critical,d,c,t,154.6796,220.0396,240,164,164,240,trueblood,0.14,h,164,240,240,164,154.6796,220.0396,39360,39360,34035.6388,td,null,null,null,null,null,null,"[3,1]"
NA,canvas-keyboard-response,349,303838,0.0-6.0-1.57,5023,NA,NA,NA,NA,clear_screen,null,null,NA,NA,critical,d,c,t,154.6796,220.0396,240,164,164,240,trueblood,0.14,h,164,240,240,164,154.6796,220.0396,39360,39360,34035.6388,td,null,null,null,null,null,null,"[3,1]"
NA,canvas-keyboard-response,350,305184,0.0-6.0-2.57,5023,NA,NA,NA,NA,rectangles,null,null,NA,NA,critical,d,c,t,154.6796,220.0396,240,164,164,240,trueblood,0.14,h,164,240,240,164,154.6796,220.0396,39360,39360,34035.6388,td,null,null,null,null,null,null,"[3,1]"
NA,canvas-keyboard-response,351,305315,0.0-6.0-3.57,5023,NA,NA,NA,NA,clear_screen,111,2,NA,NA,critical,d,c,t,154.6796,220.0396,240,164,164,240,trueblood,0.14,h,164,240,240,164,154.6796,220.0396,39360,39360,34035.6388,td,null,null,null,null,null,null,"[3,1]"
NA,canvas-keyboard-response,352,307419,0.0-6.0-4.57,5023,NA,NA,NA,NA,make choice,2084,3,NA,NA,critical,d,c,t,154.6796,220.0396,240,164,164,240,trueblood,0.14,h,164,240,240,164,154.6796,220.0396,39360,39360,34035.6388,td,null,null,null,null,null,null,"[3,1]"
NA,canvas-keyboard-response,353,307590,0.0-6.0-5.57,5023,NA,NA,NA,NA,clear_screen,null,null,NA,NA,critical,d,c,t,154.6796,220.0396,240,164,164,240,trueblood,0.14,h,164,240,240,164,154.6796,220.0396,39360,39360,34035.6388,td,null,null,null,null,null,null,"[3,1]"
NA,canvas-keyboard-response,354,307808,0.0-6.0-0.58,5023,NA,NA,NA,NA,pre trial waiting period,null,null,NA,NA,catch,sh,sw,l,166,150,208,193,228,161,spektor,null,null,null,null,null,null,null,null,null,null,null,NA,180,200,260,200,36000,52000,"[1,3]"
NA,canvas-keyboard-response,355,307969,0.0-6.0-1.58,5023,NA,NA,NA,NA,clear_screen,null,null,NA,NA,catch,sh,sw,l,166,150,208,193,228,161,spektor,null,null,null,null,null,null,null,null,null,null,null,NA,180,200,260,200,36000,52000,"[1,3]"
NA,canvas-keyboard-response,356,309318,0.0-6.0-2.58,5023,NA,NA,NA,NA,rectangles,null,null,NA,NA,catch,sh,sw,l,166,150,208,193,228,161,spektor,null,null,null,null,null,null,null,null,null,null,null,NA,180,200,260,200,36000,52000,"[1,3]"
NA,canvas-keyboard-response,357,309488,0.0-6.0-3.58,5023,NA,NA,NA,NA,clear_screen,null,null,NA,NA,catch,sh,sw,l,166,150,208,193,228,161,spektor,null,null,null,null,null,null,null,null,null,null,null,NA,180,200,260,200,36000,52000,"[1,3]"
NA,canvas-keyboard-response,358,311274,0.0-6.0-4.58,5023,NA,NA,NA,NA,make choice,1765,3,NA,NA,catch,sh,sw,l,166,150,208,193,228,161,spektor,null,null,null,null,null,null,null,null,null,null,null,NA,180,200,260,200,36000,52000,"[1,3]"
NA,canvas-keyboard-response,359,311445,0.0-6.0-5.58,5023,NA,NA,NA,NA,clear_screen,null,null,NA,NA,catch,sh,sw,l,166,150,208,193,228,161,spektor,null,null,null,null,null,null,null,null,null,null,null,NA,180,200,260,200,36000,52000,"[1,3]"
NA,canvas-keyboard-response,360,311665,0.0-6.0-0.59,5023,NA,NA,NA,NA,pre trial waiting period,null,null,NA,NA,catch,l,sh,sw,193,265,201,205,219,180,trueblood,null,null,null,null,null,null,null,null,null,null,null,NA,180,200,260,200,36000,52000,"[1,3]"
NA,canvas-keyboard-response,361,311825,0.0-6.0-1.59,5023,NA,NA,NA,NA,clear_screen,null,null,NA,NA,catch,l,sh,sw,193,265,201,205,219,180,trueblood,null,null,null,null,null,null,null,null,null,null,null,NA,180,200,260,200,36000,52000,"[1,3]"
NA,canvas-keyboard-response,362,313173,0.0-6.0-2.59,5023,NA,NA,NA,NA,rectangles,null,null,NA,NA,catch,l,sh,sw,193,265,201,205,219,180,trueblood,null,null,null,null,null,null,null,null,null,null,null,NA,180,200,260,200,36000,52000,"[1,3]"
NA,canvas-keyboard-response,363,313354,0.0-6.0-3.59,5023,NA,NA,NA,NA,clear_screen,null,null,NA,NA,catch,l,sh,sw,193,265,201,205,219,180,trueblood,null,null,null,null,null,null,null,null,null,null,null,NA,180,200,260,200,36000,52000,"[1,3]"
NA,canvas-keyboard-response,364,313795,0.0-6.0-4.59,5023,NA,NA,NA,NA,make choice,407,1,NA,NA,catch,l,sh,sw,193,265,201,205,219,180,trueblood,null,null,null,null,null,null,null,null,null,null,null,NA,180,200,260,200,36000,52000,"[1,3]"
NA,canvas-keyboard-response,365,313968,0.0-6.0-5.59,5023,NA,NA,NA,NA,clear_screen,null,null,NA,NA,catch,l,sh,sw,193,265,201,205,219,180,trueblood,null,null,null,null,null,null,null,null,null,null,null,NA,180,200,260,200,36000,52000,"[1,3]"
NA,canvas-keyboard-response,366,314190,0.0-6.0-0.60,5023,NA,NA,NA,NA,pre trial waiting period,null,null,NA,NA,critical,c,t,d,164,240,240,164,220.0396,154.6796,trueblood,0.14,w,240,164,164,240,220.0396,154.6796,39360,39360,34035.6388,td,null,null,null,null,null,null,"[2,3]"
NA,canvas-keyboard-response,367,314349,0.0-6.0-1.60,5023,NA,NA,NA,NA,clear_screen,null,null,NA,NA,critical,c,t,d,164,240,240,164,220.0396,154.6796,trueblood,0.14,w,240,164,164,240,220.0396,154.6796,39360,39360,34035.6388,td,null,null,null,null,null,null,"[2,3]"
NA,canvas-keyboard-response,368,315697,0.0-6.0-2.60,5023,NA,NA,NA,NA,rectangles,null,null,NA,NA,critical,c,t,d,164,240,240,164,220.0396,154.6796,trueblood,0.14,w,240,164,164,240,220.0396,154.6796,39360,39360,34035.6388,td,null,null,null,null,null,null,"[2,3]"
NA,canvas-keyboard-response,369,315872,0.0-6.0-3.60,5023,NA,NA,NA,NA,clear_screen,null,null,NA,NA,critical,c,t,d,164,240,240,164,220.0396,154.6796,trueblood,0.14,w,240,164,164,240,220.0396,154.6796,39360,39360,34035.6388,td,null,null,null,null,null,null,"[2,3]"
NA,canvas-keyboard-response,370,316900,0.0-6.0-4.60,5023,NA,NA,NA,NA,make choice,1005,2,NA,NA,critical,c,t,d,164,240,240,164,220.0396,154.6796,trueblood,0.14,w,240,164,164,240,220.0396,154.6796,39360,39360,34035.6388,td,null,null,null,null,null,null,"[2,3]"
NA,canvas-keyboard-response,371,317071,0.0-6.0-5.60,5023,NA,NA,NA,NA,clear_screen,null,null,NA,NA,critical,c,t,d,164,240,240,164,220.0396,154.6796,trueblood,0.14,w,240,164,164,240,220.0396,154.6796,39360,39360,34035.6388,td,null,null,null,null,null,null,"[2,3]"
NA,canvas-keyboard-response,372,317289,0.0-6.0-0.61,5023,NA,NA,NA,NA,pre trial waiting period,null,null,NA,NA,critical,c,d,t,240,164,160.6713,232.8713,164,240,spektor,0.05,h,164,240,240,164,160.6713,232.8713,39360,39360,37415.7294,dc,null,null,null,null,null,null,"[2,1]"
NA,canvas-keyboard-response,373,317453,0.0-6.0-1.61,5023,NA,NA,NA,NA,clear_screen,null,null,NA,NA,critical,c,d,t,240,164,160.6713,232.8713,164,240,spektor,0.05,h,164,240,240,164,160.6713,232.8713,39360,39360,37415.7294,dc,null,null,null,null,null,null,"[2,1]"
NA,canvas-keyboard-response,374,318803,0.0-6.0-2.61,5023,NA,NA,NA,NA,rectangles,null,null,NA,NA,critical,c,d,t,240,164,160.6713,232.8713,164,240,spektor,0.05,h,164,240,240,164,160.6713,232.8713,39360,39360,37415.7294,dc,null,null,null,null,null,null,"[2,1]"
NA,canvas-keyboard-response,375,318975,0.0-6.0-3.61,5023,NA,NA,NA,NA,clear_screen,null,null,NA,NA,critical,c,d,t,240,164,160.6713,232.8713,164,240,spektor,0.05,h,164,240,240,164,160.6713,232.8713,39360,39360,37415.7294,dc,null,null,null,null,null,null,"[2,1]"
NA,canvas-keyboard-response,376,319954,0.0-6.0-4.61,5023,NA,NA,NA,NA,make choice,956,2,NA,NA,critical,c,d,t,240,164,160.6713,232.8713,164,240,spektor,0.05,h,164,240,240,164,160.6713,232.8713,39360,39360,37415.7294,dc,null,null,null,null,null,null,"[2,1]"
NA,canvas-keyboard-response,377,320123,0.0-6.0-5.61,5023,NA,NA,NA,NA,clear_screen,null,null,NA,NA,critical,c,d,t,240,164,160.6713,232.8713,164,240,spektor,0.05,h,164,240,240,164,160.6713,232.8713,39360,39360,37415.7294,dc,null,null,null,null,null,null,"[2,1]"
NA,canvas-keyboard-response,378,320342,0.0-6.0-0.62,5023,NA,NA,NA,NA,pre trial waiting period,null,null,NA,NA,critical,c,d,t,240,164,154.6796,220.0396,164,240,spektor,0.14,h,164,240,240,164,154.6796,220.0396,39360,39360,34035.6388,tc,null,null,null,null,null,null,"[3,1]"
NA,canvas-keyboard-response,379,320502,0.0-6.0-1.62,5023,NA,NA,NA,NA,clear_screen,null,null,NA,NA,critical,c,d,t,240,164,154.6796,220.0396,164,240,spektor,0.14,h,164,240,240,164,154.6796,220.0396,39360,39360,34035.6388,tc,null,null,null,null,null,null,"[3,1]"
NA,canvas-keyboard-response,380,321847,0.0-6.0-2.62,5023,NA,NA,NA,NA,rectangles,null,null,NA,NA,critical,c,d,t,240,164,154.6796,220.0396,164,240,spektor,0.14,h,164,240,240,164,154.6796,220.0396,39360,39360,34035.6388,tc,null,null,null,null,null,null,"[3,1]"
NA,canvas-keyboard-response,381,322019,0.0-6.0-3.62,5023,NA,NA,NA,NA,clear_screen,null,null,NA,NA,critical,c,d,t,240,164,154.6796,220.0396,164,240,spektor,0.14,h,164,240,240,164,154.6796,220.0396,39360,39360,34035.6388,tc,null,null,null,null,null,null,"[3,1]"
NA,canvas-keyboard-response,382,323138,0.0-6.0-4.62,5023,NA,NA,NA,NA,make choice,1094,3,NA,NA,critical,c,d,t,240,164,154.6796,220.0396,164,240,spektor,0.14,h,164,240,240,164,154.6796,220.0396,39360,39360,34035.6388,tc,null,null,null,null,null,null,"[3,1]"
NA,canvas-keyboard-response,383,323310,0.0-6.0-5.62,5023,NA,NA,NA,NA,clear_screen,null,null,NA,NA,critical,c,d,t,240,164,154.6796,220.0396,164,240,spektor,0.14,h,164,240,240,164,154.6796,220.0396,39360,39360,34035.6388,tc,null,null,null,null,null,null,"[3,1]"
NA,canvas-keyboard-response,384,323531,0.0-6.0-0.63,5023,NA,NA,NA,NA,pre trial waiting period,null,null,NA,NA,critical,t,d,c,164,240,160.6713,232.8713,240,164,spektor,0.05,h,164,240,240,164,160.6713,232.8713,39360,39360,37415.7294,td,null,null,null,null,null,null,"[1,2]"
NA,canvas-keyboard-response,385,323689,0.0-6.0-1.63,5023,NA,NA,NA,NA,clear_screen,null,null,NA,NA,critical,t,d,c,164,240,160.6713,232.8713,240,164,spektor,0.05,h,164,240,240,164,160.6713,232.8713,39360,39360,37415.7294,td,null,null,null,null,null,null,"[1,2]"
NA,canvas-keyboard-response,386,325039,0.0-6.0-2.63,5023,NA,NA,NA,NA,rectangles,null,null,NA,NA,critical,t,d,c,164,240,160.6713,232.8713,240,164,spektor,0.05,h,164,240,240,164,160.6713,232.8713,39360,39360,37415.7294,td,null,null,null,null,null,null,"[1,2]"
NA,canvas-keyboard-response,387,325214,0.0-6.0-3.63,5023,NA,NA,NA,NA,clear_screen,null,null,NA,NA,critical,t,d,c,164,240,160.6713,232.8713,240,164,spektor,0.05,h,164,240,240,164,160.6713,232.8713,39360,39360,37415.7294,td,null,null,null,null,null,null,"[1,2]"
NA,canvas-keyboard-response,388,325754,0.0-6.0-4.63,5023,NA,NA,NA,NA,make choice,518,1,NA,NA,critical,t,d,c,164,240,160.6713,232.8713,240,164,spektor,0.05,h,164,240,240,164,160.6713,232.8713,39360,39360,37415.7294,td,null,null,null,null,null,null,"[1,2]"
NA,canvas-keyboard-response,389,325924,0.0-6.0-5.63,5023,NA,NA,NA,NA,clear_screen,null,null,NA,NA,critical,t,d,c,164,240,160.6713,232.8713,240,164,spektor,0.05,h,164,240,240,164,160.6713,232.8713,39360,39360,37415.7294,td,null,null,null,null,null,null,"[1,2]"
NA,canvas-keyboard-response,390,326143,0.0-6.0-0.64,5023,NA,NA,NA,NA,pre trial waiting period,null,null,NA,NA,critical,t,c,d,164,240,240,164,154.6796,220.0396,trueblood,0.14,h,164,240,240,164,154.6796,220.0396,39360,39360,34035.6388,dc,null,null,null,null,null,null,"[3,2]"
NA,canvas-keyboard-response,391,326305,0.0-6.0-1.64,5023,NA,NA,NA,NA,clear_screen,null,null,NA,NA,critical,t,c,d,164,240,240,164,154.6796,220.0396,trueblood,0.14,h,164,240,240,164,154.6796,220.0396,39360,39360,34035.6388,dc,null,null,null,null,null,null,"[3,2]"
NA,canvas-keyboard-response,392,327652,0.0-6.0-2.64,5023,NA,NA,NA,NA,rectangles,null,null,NA,NA,critical,t,c,d,164,240,240,164,154.6796,220.0396,trueblood,0.14,h,164,240,240,164,154.6796,220.0396,39360,39360,34035.6388,dc,null,null,null,null,null,null,"[3,2]"
NA,canvas-keyboard-response,393,327826,0.0-6.0-3.64,5023,NA,NA,NA,NA,clear_screen,null,null,NA,NA,critical,t,c,d,164,240,240,164,154.6796,220.0396,trueblood,0.14,h,164,240,240,164,154.6796,220.0396,39360,39360,34035.6388,dc,null,null,null,null,null,null,"[3,2]"
NA,canvas-keyboard-response,394,328345,0.0-6.0-4.64,5023,NA,NA,NA,NA,make choice,496,2,NA,NA,critical,t,c,d,164,240,240,164,154.6796,220.0396,trueblood,0.14,h,164,240,240,164,154.6796,220.0396,39360,39360,34035.6388,dc,null,null,null,null,null,null,"[3,2]"
NA,canvas-keyboard-response,395,328516,0.0-6.0-5.64,5023,NA,NA,NA,NA,clear_screen,null,null,NA,NA,critical,t,c,d,164,240,240,164,154.6796,220.0396,trueblood,0.14,h,164,240,240,164,154.6796,220.0396,39360,39360,34035.6388,dc,null,null,null,null,null,null,"[3,2]"
