success,trial_type,trial_index,time_elapsed,internal_node_id,sub_n,timeout,failed_images,failed_audio,failed_video,screen_id,rt,response,stimulus,view_history,trial,r1,r2,r3,w1,h1,w2,h2,w3,h3,display,tdd,tdo,tw,th,cw,ch,dw,dh,ta,ca,da,probe,csls,csss,clls,clss,sa,la,probe_rects
TRUE,fullscreen,0,4204,0.0-0.0,5016,NA,NA,NA,NA,NA,NA,NA,NA,NA,NA,NA,NA,NA,NA,NA,NA,NA,NA,NA,NA,NA,NA,NA,NA,NA,NA,NA,NA,NA,NA,NA,NA,NA,NA,NA,NA,NA,NA,NA
TRUE,preload,1,4221,0.0-1.0,5016,FALSE,NA,NA,NA,img preload,NA,NA,NA,NA,NA,NA,NA,NA,NA,NA,NA,NA,NA,NA,NA,NA,NA,NA,NA,NA,NA,NA,NA,NA,NA,NA,NA,NA,NA,NA,NA,NA,NA,NA
NA,survey-html-form,2,22569,0.0-2.0,5016,NA,NA,NA,NA,enter-sub-number,18342,"{""response"":""08""}",NA,NA,NA,NA,NA,NA,NA,NA,NA,NA,NA,NA,NA,NA,NA,NA,NA,NA,NA,NA,NA,NA,NA,NA,NA,NA,NA,NA,NA,NA,NA,NA
NA,image-button-response,3,104975,0.0-3.0,5016,NA,NA,NA,NA,NA,82337,0,consent.png,NA,NA,NA,NA,NA,NA,NA,NA,NA,NA,NA,NA,NA,NA,NA,NA,NA,NA,NA,NA,NA,NA,NA,NA,NA,NA,NA,NA,NA,NA,NA
NA,html-button-response,4,117637,0.0-4.0,5016,NA,NA,NA,NA,intro mssg,12656,0,"<div style= ""font-size:25px;"" <p> <strong> Welcome! </strong><br> <p style=""color:#8B0000; font-size:25px;""><strong> Please do NOT exit full screen until you are done with the experiment. </strong> </p><p style=""font-size:25px;color:#8B0000;""> <strong> Your data will be lost <br> if you try to go back or refresh the page after the experiment starts. Feel free to click ""previous"" during the instructions, however.</strong> </p><br><p> <strong> Thanks in advance for your contribution to our research! </strong></p>",NA,NA,NA,NA,NA,NA,NA,NA,NA,NA,NA,NA,NA,NA,NA,NA,NA,NA,NA,NA,NA,NA,NA,NA,NA,NA,NA,NA,NA,NA,NA
NA,instructions,5,165453,0.0-5.0,5016,NA,NA,NA,NA,instructions,47811,NA,NA,NA,NA,NA,NA,NA,NA,NA,NA,NA,NA,NA,NA,NA,NA,NA,NA,NA,NA,NA,NA,NA,NA,NA,NA,NA,NA,NA,NA,NA,NA,NA
NA,canvas-keyboard-response,6,165660,0.0-6.0-0.0,5016,NA,NA,NA,NA,pre trial waiting period,null,null,NA,NA,critical,c,d,t,240,164,160.6713,232.8713,164,240,spektor,0.05,h,164,240,240,164,160.6713,232.8713,39360,39360,37415.7294,dc,null,null,null,null,null,null,"[2,1]"
NA,canvas-keyboard-response,7,165822,0.0-6.0-1.0,5016,NA,NA,NA,NA,clear_screen,null,null,NA,NA,critical,c,d,t,240,164,160.6713,232.8713,164,240,spektor,0.05,h,164,240,240,164,160.6713,232.8713,39360,39360,37415.7294,dc,null,null,null,null,null,null,"[2,1]"
NA,canvas-keyboard-response,8,167167,0.0-6.0-2.0,5016,NA,NA,NA,NA,rectangles,null,null,NA,NA,critical,c,d,t,240,164,160.6713,232.8713,164,240,spektor,0.05,h,164,240,240,164,160.6713,232.8713,39360,39360,37415.7294,dc,null,null,null,null,null,null,"[2,1]"
NA,canvas-keyboard-response,9,167329,0.0-6.0-3.0,5016,NA,NA,NA,NA,clear_screen,null,null,NA,NA,critical,c,d,t,240,164,160.6713,232.8713,164,240,spektor,0.05,h,164,240,240,164,160.6713,232.8713,39360,39360,37415.7294,dc,null,null,null,null,null,null,"[2,1]"
NA,canvas-keyboard-response,10,172073,0.0-6.0-4.0,5016,NA,NA,NA,NA,make choice,4731,2,NA,NA,critical,c,d,t,240,164,160.6713,232.8713,164,240,spektor,0.05,h,164,240,240,164,160.6713,232.8713,39360,39360,37415.7294,dc,null,null,null,null,null,null,"[2,1]"
NA,canvas-keyboard-response,11,172235,0.0-6.0-5.0,5016,NA,NA,NA,NA,clear_screen,null,null,NA,NA,critical,c,d,t,240,164,160.6713,232.8713,164,240,spektor,0.05,h,164,240,240,164,160.6713,232.8713,39360,39360,37415.7294,dc,null,null,null,null,null,null,"[2,1]"
NA,canvas-keyboard-response,12,172440,0.0-6.0-0.1,5016,NA,NA,NA,NA,pre trial waiting period,null,null,NA,NA,critical,d,t,c,154.6796,220.0396,164,240,240,164,spektor,0.14,h,164,240,240,164,154.6796,220.0396,39360,39360,34035.6388,tc,null,null,null,null,null,null,"[2,3]"
NA,canvas-keyboard-response,13,172603,0.0-6.0-1.1,5016,NA,NA,NA,NA,clear_screen,null,null,NA,NA,critical,d,t,c,154.6796,220.0396,164,240,240,164,spektor,0.14,h,164,240,240,164,154.6796,220.0396,39360,39360,34035.6388,tc,null,null,null,null,null,null,"[2,3]"
NA,canvas-keyboard-response,14,173944,0.0-6.0-2.1,5016,NA,NA,NA,NA,rectangles,null,null,NA,NA,critical,d,t,c,154.6796,220.0396,164,240,240,164,spektor,0.14,h,164,240,240,164,154.6796,220.0396,39360,39360,34035.6388,tc,null,null,null,null,null,null,"[2,3]"
NA,canvas-keyboard-response,15,174106,0.0-6.0-3.1,5016,NA,NA,NA,NA,clear_screen,null,null,NA,NA,critical,d,t,c,154.6796,220.0396,164,240,240,164,spektor,0.14,h,164,240,240,164,154.6796,220.0396,39360,39360,34035.6388,tc,null,null,null,null,null,null,"[2,3]"
NA,canvas-keyboard-response,16,178992,0.0-6.0-4.1,5016,NA,NA,NA,NA,make choice,4872,3,NA,NA,critical,d,t,c,154.6796,220.0396,164,240,240,164,spektor,0.14,h,164,240,240,164,154.6796,220.0396,39360,39360,34035.6388,tc,null,null,null,null,null,null,"[2,3]"
NA,canvas-keyboard-response,17,179154,0.0-6.0-5.1,5016,NA,NA,NA,NA,clear_screen,null,null,NA,NA,critical,d,t,c,154.6796,220.0396,164,240,240,164,spektor,0.14,h,164,240,240,164,154.6796,220.0396,39360,39360,34035.6388,tc,null,null,null,null,null,null,"[2,3]"
NA,canvas-keyboard-response,18,179359,0.0-6.0-0.2,5016,NA,NA,NA,NA,pre trial waiting period,null,null,NA,NA,catch,sw,l,sh,180,200,196,253,223,215,trueblood,null,null,null,null,null,null,null,null,null,null,null,NA,180,200,260,200,36000,52000,"[1,2]"
NA,canvas-keyboard-response,19,179518,0.0-6.0-1.2,5016,NA,NA,NA,NA,clear_screen,null,null,NA,NA,catch,sw,l,sh,180,200,196,253,223,215,trueblood,null,null,null,null,null,null,null,null,null,null,null,NA,180,200,260,200,36000,52000,"[1,2]"
NA,canvas-keyboard-response,20,180853,0.0-6.0-2.2,5016,NA,NA,NA,NA,rectangles,null,null,NA,NA,catch,sw,l,sh,180,200,196,253,223,215,trueblood,null,null,null,null,null,null,null,null,null,null,null,NA,180,200,260,200,36000,52000,"[1,2]"
NA,canvas-keyboard-response,21,181015,0.0-6.0-3.2,5016,NA,NA,NA,NA,clear_screen,null,null,NA,NA,catch,sw,l,sh,180,200,196,253,223,215,trueblood,null,null,null,null,null,null,null,null,null,null,null,NA,180,200,260,200,36000,52000,"[1,2]"
NA,canvas-keyboard-response,22,182417,0.0-6.0-4.2,5016,NA,NA,NA,NA,make choice,1388,2,NA,NA,catch,sw,l,sh,180,200,196,253,223,215,trueblood,null,null,null,null,null,null,null,null,null,null,null,NA,180,200,260,200,36000,52000,"[1,2]"
NA,canvas-keyboard-response,23,182577,0.0-6.0-5.2,5016,NA,NA,NA,NA,clear_screen,null,null,NA,NA,catch,sw,l,sh,180,200,196,253,223,215,trueblood,null,null,null,null,null,null,null,null,null,null,null,NA,180,200,260,200,36000,52000,"[1,2]"
NA,canvas-keyboard-response,24,182781,0.0-6.0-0.3,5016,NA,NA,NA,NA,pre trial waiting period,null,null,NA,NA,critical,t,c,d,164,240,240,164,154.6796,220.0396,trueblood,0.14,h,164,240,240,164,154.6796,220.0396,39360,39360,34035.6388,td,null,null,null,null,null,null,"[1,3]"
NA,canvas-keyboard-response,25,182943,0.0-6.0-1.3,5016,NA,NA,NA,NA,clear_screen,null,null,NA,NA,critical,t,c,d,164,240,240,164,154.6796,220.0396,trueblood,0.14,h,164,240,240,164,154.6796,220.0396,39360,39360,34035.6388,td,null,null,null,null,null,null,"[1,3]"
NA,canvas-keyboard-response,26,184280,0.0-6.0-2.3,5016,NA,NA,NA,NA,rectangles,null,null,NA,NA,critical,t,c,d,164,240,240,164,154.6796,220.0396,trueblood,0.14,h,164,240,240,164,154.6796,220.0396,39360,39360,34035.6388,td,null,null,null,null,null,null,"[1,3]"
NA,canvas-keyboard-response,27,184444,0.0-6.0-3.3,5016,NA,NA,NA,NA,clear_screen,null,null,NA,NA,critical,t,c,d,164,240,240,164,154.6796,220.0396,trueblood,0.14,h,164,240,240,164,154.6796,220.0396,39360,39360,34035.6388,td,null,null,null,null,null,null,"[1,3]"
NA,canvas-keyboard-response,28,185585,0.0-6.0-4.3,5016,NA,NA,NA,NA,make choice,1127,1,NA,NA,critical,t,c,d,164,240,240,164,154.6796,220.0396,trueblood,0.14,h,164,240,240,164,154.6796,220.0396,39360,39360,34035.6388,td,null,null,null,null,null,null,"[1,3]"
NA,canvas-keyboard-response,29,185745,0.0-6.0-5.3,5016,NA,NA,NA,NA,clear_screen,null,null,NA,NA,critical,t,c,d,164,240,240,164,154.6796,220.0396,trueblood,0.14,h,164,240,240,164,154.6796,220.0396,39360,39360,34035.6388,td,null,null,null,null,null,null,"[1,3]"
NA,canvas-keyboard-response,30,185948,0.0-6.0-0.4,5016,NA,NA,NA,NA,pre trial waiting period,null,null,NA,NA,critical,c,d,t,164,240,240,164,240,164,spektor,0,w,240,164,164,240,240,164,39360,39360,39360,tc,null,null,null,null,null,null,"[3,1]"
NA,canvas-keyboard-response,31,186109,0.0-6.0-1.4,5016,NA,NA,NA,NA,clear_screen,null,null,NA,NA,critical,c,d,t,164,240,240,164,240,164,spektor,0,w,240,164,164,240,240,164,39360,39360,39360,tc,null,null,null,null,null,null,"[3,1]"
NA,canvas-keyboard-response,32,187452,0.0-6.0-2.4,5016,NA,NA,NA,NA,rectangles,null,null,NA,NA,critical,c,d,t,164,240,240,164,240,164,spektor,0,w,240,164,164,240,240,164,39360,39360,39360,tc,null,null,null,null,null,null,"[3,1]"
NA,canvas-keyboard-response,33,187614,0.0-6.0-3.4,5016,NA,NA,NA,NA,clear_screen,null,null,NA,NA,critical,c,d,t,164,240,240,164,240,164,spektor,0,w,240,164,164,240,240,164,39360,39360,39360,tc,null,null,null,null,null,null,"[3,1]"
NA,canvas-keyboard-response,34,189000,0.0-6.0-4.4,5016,NA,NA,NA,NA,make choice,1375,1,NA,NA,critical,c,d,t,164,240,240,164,240,164,spektor,0,w,240,164,164,240,240,164,39360,39360,39360,tc,null,null,null,null,null,null,"[3,1]"
NA,canvas-keyboard-response,35,189161,0.0-6.0-5.4,5016,NA,NA,NA,NA,clear_screen,null,null,NA,NA,critical,c,d,t,164,240,240,164,240,164,spektor,0,w,240,164,164,240,240,164,39360,39360,39360,tc,null,null,null,null,null,null,"[3,1]"
NA,canvas-keyboard-response,36,189367,0.0-6.0-0.5,5016,NA,NA,NA,NA,pre trial waiting period,null,null,NA,NA,catch,l,sw,sh,184,265,179,236,189,157,spektor,null,null,null,null,null,null,null,null,null,null,null,NA,180,200,260,200,36000,52000,"[1,2]"
NA,canvas-keyboard-response,37,189532,0.0-6.0-1.5,5016,NA,NA,NA,NA,clear_screen,null,null,NA,NA,catch,l,sw,sh,184,265,179,236,189,157,spektor,null,null,null,null,null,null,null,null,null,null,null,NA,180,200,260,200,36000,52000,"[1,2]"
NA,canvas-keyboard-response,38,190873,0.0-6.0-2.5,5016,NA,NA,NA,NA,rectangles,null,null,NA,NA,catch,l,sw,sh,184,265,179,236,189,157,spektor,null,null,null,null,null,null,null,null,null,null,null,NA,180,200,260,200,36000,52000,"[1,2]"
NA,canvas-keyboard-response,39,191033,0.0-6.0-3.5,5016,NA,NA,NA,NA,clear_screen,null,null,NA,NA,catch,l,sw,sh,184,265,179,236,189,157,spektor,null,null,null,null,null,null,null,null,null,null,null,NA,180,200,260,200,36000,52000,"[1,2]"
NA,canvas-keyboard-response,40,192081,0.0-6.0-4.5,5016,NA,NA,NA,NA,make choice,1034,1,NA,NA,catch,l,sw,sh,184,265,179,236,189,157,spektor,null,null,null,null,null,null,null,null,null,null,null,NA,180,200,260,200,36000,52000,"[1,2]"
NA,canvas-keyboard-response,41,192244,0.0-6.0-5.5,5016,NA,NA,NA,NA,clear_screen,null,null,NA,NA,catch,l,sw,sh,184,265,179,236,189,157,spektor,null,null,null,null,null,null,null,null,null,null,null,NA,180,200,260,200,36000,52000,"[1,2]"
NA,canvas-keyboard-response,42,192449,0.0-6.0-0.6,5016,NA,NA,NA,NA,pre trial waiting period,null,null,NA,NA,critical,c,d,t,240,164,154.6796,220.0396,164,240,spektor,0.14,h,164,240,240,164,154.6796,220.0396,39360,39360,34035.6388,dc,null,null,null,null,null,null,"[2,1]"
NA,canvas-keyboard-response,43,192612,0.0-6.0-1.6,5016,NA,NA,NA,NA,clear_screen,null,null,NA,NA,critical,c,d,t,240,164,154.6796,220.0396,164,240,spektor,0.14,h,164,240,240,164,154.6796,220.0396,39360,39360,34035.6388,dc,null,null,null,null,null,null,"[2,1]"
NA,canvas-keyboard-response,44,193953,0.0-6.0-2.6,5016,NA,NA,NA,NA,rectangles,null,null,NA,NA,critical,c,d,t,240,164,154.6796,220.0396,164,240,spektor,0.14,h,164,240,240,164,154.6796,220.0396,39360,39360,34035.6388,dc,null,null,null,null,null,null,"[2,1]"
NA,canvas-keyboard-response,45,194114,0.0-6.0-3.6,5016,NA,NA,NA,NA,clear_screen,null,null,NA,NA,critical,c,d,t,240,164,154.6796,220.0396,164,240,spektor,0.14,h,164,240,240,164,154.6796,220.0396,39360,39360,34035.6388,dc,null,null,null,null,null,null,"[2,1]"
NA,canvas-keyboard-response,46,195968,0.0-6.0-4.6,5016,NA,NA,NA,NA,make choice,1841,1,NA,NA,critical,c,d,t,240,164,154.6796,220.0396,164,240,spektor,0.14,h,164,240,240,164,154.6796,220.0396,39360,39360,34035.6388,dc,null,null,null,null,null,null,"[2,1]"
NA,canvas-keyboard-response,47,196130,0.0-6.0-5.6,5016,NA,NA,NA,NA,clear_screen,null,null,NA,NA,critical,c,d,t,240,164,154.6796,220.0396,164,240,spektor,0.14,h,164,240,240,164,154.6796,220.0396,39360,39360,34035.6388,dc,null,null,null,null,null,null,"[2,1]"
NA,canvas-keyboard-response,48,196337,0.0-6.0-0.7,5016,NA,NA,NA,NA,pre trial waiting period,null,null,NA,NA,catch,sh,l,sw,170,178,283,226,206,196,trueblood,null,null,null,null,null,null,null,null,null,null,null,NA,180,200,260,200,36000,52000,"[2,3]"
NA,canvas-keyboard-response,49,196501,0.0-6.0-1.7,5016,NA,NA,NA,NA,clear_screen,null,null,NA,NA,catch,sh,l,sw,170,178,283,226,206,196,trueblood,null,null,null,null,null,null,null,null,null,null,null,NA,180,200,260,200,36000,52000,"[2,3]"
NA,canvas-keyboard-response,50,197841,0.0-6.0-2.7,5016,NA,NA,NA,NA,rectangles,null,null,NA,NA,catch,sh,l,sw,170,178,283,226,206,196,trueblood,null,null,null,null,null,null,null,null,null,null,null,NA,180,200,260,200,36000,52000,"[2,3]"
NA,canvas-keyboard-response,51,198008,0.0-6.0-3.7,5016,NA,NA,NA,NA,clear_screen,null,null,NA,NA,catch,sh,l,sw,170,178,283,226,206,196,trueblood,null,null,null,null,null,null,null,null,null,null,null,NA,180,200,260,200,36000,52000,"[2,3]"
NA,canvas-keyboard-response,52,198937,0.0-6.0-4.7,5016,NA,NA,NA,NA,make choice,914,2,NA,NA,catch,sh,l,sw,170,178,283,226,206,196,trueblood,null,null,null,null,null,null,null,null,null,null,null,NA,180,200,260,200,36000,52000,"[2,3]"
NA,canvas-keyboard-response,53,199098,0.0-6.0-5.7,5016,NA,NA,NA,NA,clear_screen,null,null,NA,NA,catch,sh,l,sw,170,178,283,226,206,196,trueblood,null,null,null,null,null,null,null,null,null,null,null,NA,180,200,260,200,36000,52000,"[2,3]"
NA,canvas-keyboard-response,54,199304,0.0-6.0-0.8,5016,NA,NA,NA,NA,pre trial waiting period,null,null,NA,NA,critical,d,t,c,158.0083,227.1683,164,240,240,164,spektor,0.09,h,164,240,240,164,158.0083,227.1683,39360,39360,35894.4834,dc,null,null,null,null,null,null,"[1,3]"
NA,canvas-keyboard-response,55,199466,0.0-6.0-1.8,5016,NA,NA,NA,NA,clear_screen,null,null,NA,NA,critical,d,t,c,158.0083,227.1683,164,240,240,164,spektor,0.09,h,164,240,240,164,158.0083,227.1683,39360,39360,35894.4834,dc,null,null,null,null,null,null,"[1,3]"
NA,canvas-keyboard-response,56,200805,0.0-6.0-2.8,5016,NA,NA,NA,NA,rectangles,null,null,NA,NA,critical,d,t,c,158.0083,227.1683,164,240,240,164,spektor,0.09,h,164,240,240,164,158.0083,227.1683,39360,39360,35894.4834,dc,null,null,null,null,null,null,"[1,3]"
NA,canvas-keyboard-response,57,200967,0.0-6.0-3.8,5016,NA,NA,NA,NA,clear_screen,null,null,NA,NA,critical,d,t,c,158.0083,227.1683,164,240,240,164,spektor,0.09,h,164,240,240,164,158.0083,227.1683,39360,39360,35894.4834,dc,null,null,null,null,null,null,"[1,3]"
NA,canvas-keyboard-response,58,201688,0.0-6.0-4.8,5016,NA,NA,NA,NA,make choice,704,3,NA,NA,critical,d,t,c,158.0083,227.1683,164,240,240,164,spektor,0.09,h,164,240,240,164,158.0083,227.1683,39360,39360,35894.4834,dc,null,null,null,null,null,null,"[1,3]"
NA,canvas-keyboard-response,59,201851,0.0-6.0-5.8,5016,NA,NA,NA,NA,clear_screen,null,null,NA,NA,critical,d,t,c,158.0083,227.1683,164,240,240,164,spektor,0.09,h,164,240,240,164,158.0083,227.1683,39360,39360,35894.4834,dc,null,null,null,null,null,null,"[1,3]"
NA,canvas-keyboard-response,60,202057,0.0-6.0-0.9,5016,NA,NA,NA,NA,pre trial waiting period,null,null,NA,NA,catch,l,sh,sw,227,260,231,210,190,233,trueblood,null,null,null,null,null,null,null,null,null,null,null,NA,180,200,260,200,36000,52000,"[1,3]"
NA,canvas-keyboard-response,61,202216,0.0-6.0-1.9,5016,NA,NA,NA,NA,clear_screen,null,null,NA,NA,catch,l,sh,sw,227,260,231,210,190,233,trueblood,null,null,null,null,null,null,null,null,null,null,null,NA,180,200,260,200,36000,52000,"[1,3]"
NA,canvas-keyboard-response,62,203555,0.0-6.0-2.9,5016,NA,NA,NA,NA,rectangles,null,null,NA,NA,catch,l,sh,sw,227,260,231,210,190,233,trueblood,null,null,null,null,null,null,null,null,null,null,null,NA,180,200,260,200,36000,52000,"[1,3]"
NA,canvas-keyboard-response,63,203718,0.0-6.0-3.9,5016,NA,NA,NA,NA,clear_screen,null,null,NA,NA,catch,l,sh,sw,227,260,231,210,190,233,trueblood,null,null,null,null,null,null,null,null,null,null,null,NA,180,200,260,200,36000,52000,"[1,3]"
NA,canvas-keyboard-response,64,204520,0.0-6.0-4.9,5016,NA,NA,NA,NA,make choice,785,1,NA,NA,catch,l,sh,sw,227,260,231,210,190,233,trueblood,null,null,null,null,null,null,null,null,null,null,null,NA,180,200,260,200,36000,52000,"[1,3]"
NA,canvas-keyboard-response,65,204682,0.0-6.0-5.9,5016,NA,NA,NA,NA,clear_screen,null,null,NA,NA,catch,l,sh,sw,227,260,231,210,190,233,trueblood,null,null,null,null,null,null,null,null,null,null,null,NA,180,200,260,200,36000,52000,"[1,3]"
NA,canvas-keyboard-response,66,204891,0.0-6.0-0.10,5016,NA,NA,NA,NA,pre trial waiting period,null,null,NA,NA,critical,c,t,d,240,164,164,240,158.0083,227.1683,trueblood,0.09,h,164,240,240,164,158.0083,227.1683,39360,39360,35894.4834,td,null,null,null,null,null,null,"[2,3]"
NA,canvas-keyboard-response,67,205051,0.0-6.0-1.10,5016,NA,NA,NA,NA,clear_screen,null,null,NA,NA,critical,c,t,d,240,164,164,240,158.0083,227.1683,trueblood,0.09,h,164,240,240,164,158.0083,227.1683,39360,39360,35894.4834,td,null,null,null,null,null,null,"[2,3]"
NA,canvas-keyboard-response,68,206390,0.0-6.0-2.10,5016,NA,NA,NA,NA,rectangles,null,null,NA,NA,critical,c,t,d,240,164,164,240,158.0083,227.1683,trueblood,0.09,h,164,240,240,164,158.0083,227.1683,39360,39360,35894.4834,td,null,null,null,null,null,null,"[2,3]"
NA,canvas-keyboard-response,69,206551,0.0-6.0-3.10,5016,NA,NA,NA,NA,clear_screen,null,null,NA,NA,critical,c,t,d,240,164,164,240,158.0083,227.1683,trueblood,0.09,h,164,240,240,164,158.0083,227.1683,39360,39360,35894.4834,td,null,null,null,null,null,null,"[2,3]"
NA,canvas-keyboard-response,70,208065,0.0-6.0-4.10,5016,NA,NA,NA,NA,make choice,1498,3,NA,NA,critical,c,t,d,240,164,164,240,158.0083,227.1683,trueblood,0.09,h,164,240,240,164,158.0083,227.1683,39360,39360,35894.4834,td,null,null,null,null,null,null,"[2,3]"
NA,canvas-keyboard-response,71,208227,0.0-6.0-5.10,5016,NA,NA,NA,NA,clear_screen,null,null,NA,NA,critical,c,t,d,240,164,164,240,158.0083,227.1683,trueblood,0.09,h,164,240,240,164,158.0083,227.1683,39360,39360,35894.4834,td,null,null,null,null,null,null,"[2,3]"
NA,canvas-keyboard-response,72,208437,0.0-6.0-0.11,5016,NA,NA,NA,NA,pre trial waiting period,null,null,NA,NA,critical,t,d,c,240,164,220.0396,154.6796,164,240,trueblood,0.14,w,240,164,164,240,220.0396,154.6796,39360,39360,34035.6388,tc,null,null,null,null,null,null,"[1,3]"
NA,canvas-keyboard-response,73,208595,0.0-6.0-1.11,5016,NA,NA,NA,NA,clear_screen,null,null,NA,NA,critical,t,d,c,240,164,220.0396,154.6796,164,240,trueblood,0.14,w,240,164,164,240,220.0396,154.6796,39360,39360,34035.6388,tc,null,null,null,null,null,null,"[1,3]"
NA,canvas-keyboard-response,74,209935,0.0-6.0-2.11,5016,NA,NA,NA,NA,rectangles,null,null,NA,NA,critical,t,d,c,240,164,220.0396,154.6796,164,240,trueblood,0.14,w,240,164,164,240,220.0396,154.6796,39360,39360,34035.6388,tc,null,null,null,null,null,null,"[1,3]"
NA,canvas-keyboard-response,75,210100,0.0-6.0-3.11,5016,NA,NA,NA,NA,clear_screen,null,null,NA,NA,critical,t,d,c,240,164,220.0396,154.6796,164,240,trueblood,0.14,w,240,164,164,240,220.0396,154.6796,39360,39360,34035.6388,tc,null,null,null,null,null,null,"[1,3]"
NA,canvas-keyboard-response,76,211039,0.0-6.0-4.11,5016,NA,NA,NA,NA,make choice,928,1,NA,NA,critical,t,d,c,240,164,220.0396,154.6796,164,240,trueblood,0.14,w,240,164,164,240,220.0396,154.6796,39360,39360,34035.6388,tc,null,null,null,null,null,null,"[1,3]"
NA,canvas-keyboard-response,77,211203,0.0-6.0-5.11,5016,NA,NA,NA,NA,clear_screen,null,null,NA,NA,critical,t,d,c,240,164,220.0396,154.6796,164,240,trueblood,0.14,w,240,164,164,240,220.0396,154.6796,39360,39360,34035.6388,tc,null,null,null,null,null,null,"[1,3]"
NA,canvas-keyboard-response,78,211413,0.0-6.0-0.12,5016,NA,NA,NA,NA,pre trial waiting period,null,null,NA,NA,catch,sh,sw,l,192,162,190,237,273,173,trueblood,null,null,null,null,null,null,null,null,null,null,null,NA,180,200,260,200,36000,52000,"[2,3]"
NA,canvas-keyboard-response,79,211574,0.0-6.0-1.12,5016,NA,NA,NA,NA,clear_screen,null,null,NA,NA,catch,sh,sw,l,192,162,190,237,273,173,trueblood,null,null,null,null,null,null,null,null,null,null,null,NA,180,200,260,200,36000,52000,"[2,3]"
NA,canvas-keyboard-response,80,212913,0.0-6.0-2.12,5016,NA,NA,NA,NA,rectangles,null,null,NA,NA,catch,sh,sw,l,192,162,190,237,273,173,trueblood,null,null,null,null,null,null,null,null,null,null,null,NA,180,200,260,200,36000,52000,"[2,3]"
NA,canvas-keyboard-response,81,213077,0.0-6.0-3.12,5016,NA,NA,NA,NA,clear_screen,null,null,NA,NA,catch,sh,sw,l,192,162,190,237,273,173,trueblood,null,null,null,null,null,null,null,null,null,null,null,NA,180,200,260,200,36000,52000,"[2,3]"
NA,canvas-keyboard-response,82,214512,0.0-6.0-4.12,5016,NA,NA,NA,NA,make choice,1422,3,NA,NA,catch,sh,sw,l,192,162,190,237,273,173,trueblood,null,null,null,null,null,null,null,null,null,null,null,NA,180,200,260,200,36000,52000,"[2,3]"
NA,canvas-keyboard-response,83,214677,0.0-6.0-5.12,5016,NA,NA,NA,NA,clear_screen,null,null,NA,NA,catch,sh,sw,l,192,162,190,237,273,173,trueblood,null,null,null,null,null,null,null,null,null,null,null,NA,180,200,260,200,36000,52000,"[2,3]"
NA,canvas-keyboard-response,84,214885,0.0-6.0-0.13,5016,NA,NA,NA,NA,pre trial waiting period,null,null,NA,NA,catch,sw,l,sh,180,200,265,182,231,150,spektor,null,null,null,null,null,null,null,null,null,null,null,NA,180,200,260,200,36000,52000,"[2,3]"
NA,canvas-keyboard-response,85,215047,0.0-6.0-1.13,5016,NA,NA,NA,NA,clear_screen,null,null,NA,NA,catch,sw,l,sh,180,200,265,182,231,150,spektor,null,null,null,null,null,null,null,null,null,null,null,NA,180,200,260,200,36000,52000,"[2,3]"
NA,canvas-keyboard-response,86,216387,0.0-6.0-2.13,5016,NA,NA,NA,NA,rectangles,null,null,NA,NA,catch,sw,l,sh,180,200,265,182,231,150,spektor,null,null,null,null,null,null,null,null,null,null,null,NA,180,200,260,200,36000,52000,"[2,3]"
NA,canvas-keyboard-response,87,216551,0.0-6.0-3.13,5016,NA,NA,NA,NA,clear_screen,null,null,NA,NA,catch,sw,l,sh,180,200,265,182,231,150,spektor,null,null,null,null,null,null,null,null,null,null,null,NA,180,200,260,200,36000,52000,"[2,3]"
NA,canvas-keyboard-response,88,217576,0.0-6.0-4.13,5016,NA,NA,NA,NA,make choice,1010,2,NA,NA,catch,sw,l,sh,180,200,265,182,231,150,spektor,null,null,null,null,null,null,null,null,null,null,null,NA,180,200,260,200,36000,52000,"[2,3]"
NA,canvas-keyboard-response,89,217738,0.0-6.0-5.13,5016,NA,NA,NA,NA,clear_screen,null,null,NA,NA,catch,sw,l,sh,180,200,265,182,231,150,spektor,null,null,null,null,null,null,null,null,null,null,null,NA,180,200,260,200,36000,52000,"[2,3]"
NA,canvas-keyboard-response,90,217947,0.0-6.0-0.14,5016,NA,NA,NA,NA,pre trial waiting period,null,null,NA,NA,critical,c,t,d,240,164,164,240,162.6685,237.1485,spektor,0.02,h,164,240,240,164,162.6685,237.1485,39360,39360,38576.5967,tc,null,null,null,null,null,null,"[2,1]"
NA,canvas-keyboard-response,91,218108,0.0-6.0-1.14,5016,NA,NA,NA,NA,clear_screen,null,null,NA,NA,critical,c,t,d,240,164,164,240,162.6685,237.1485,spektor,0.02,h,164,240,240,164,162.6685,237.1485,39360,39360,38576.5967,tc,null,null,null,null,null,null,"[2,1]"
NA,canvas-keyboard-response,92,219450,0.0-6.0-2.14,5016,NA,NA,NA,NA,rectangles,null,null,NA,NA,critical,c,t,d,240,164,164,240,162.6685,237.1485,spektor,0.02,h,164,240,240,164,162.6685,237.1485,39360,39360,38576.5967,tc,null,null,null,null,null,null,"[2,1]"
NA,canvas-keyboard-response,93,219617,0.0-6.0-3.14,5016,NA,NA,NA,NA,clear_screen,null,null,NA,NA,critical,c,t,d,240,164,164,240,162.6685,237.1485,spektor,0.02,h,164,240,240,164,162.6685,237.1485,39360,39360,38576.5967,tc,null,null,null,null,null,null,"[2,1]"
NA,canvas-keyboard-response,94,221144,0.0-6.0-4.14,5016,NA,NA,NA,NA,make choice,1515,1,NA,NA,critical,c,t,d,240,164,164,240,162.6685,237.1485,spektor,0.02,h,164,240,240,164,162.6685,237.1485,39360,39360,38576.5967,tc,null,null,null,null,null,null,"[2,1]"
NA,canvas-keyboard-response,95,221306,0.0-6.0-5.14,5016,NA,NA,NA,NA,clear_screen,null,null,NA,NA,critical,c,t,d,240,164,164,240,162.6685,237.1485,spektor,0.02,h,164,240,240,164,162.6685,237.1485,39360,39360,38576.5967,tc,null,null,null,null,null,null,"[2,1]"
NA,canvas-keyboard-response,96,221513,0.0-6.0-0.15,5016,NA,NA,NA,NA,pre trial waiting period,null,null,NA,NA,critical,t,c,d,240,164,164,240,227.1683,158.0083,trueblood,0.09,w,240,164,164,240,227.1683,158.0083,39360,39360,35894.4834,dc,null,null,null,null,null,null,"[3,2]"
NA,canvas-keyboard-response,97,221673,0.0-6.0-1.15,5016,NA,NA,NA,NA,clear_screen,null,null,NA,NA,critical,t,c,d,240,164,164,240,227.1683,158.0083,trueblood,0.09,w,240,164,164,240,227.1683,158.0083,39360,39360,35894.4834,dc,null,null,null,null,null,null,"[3,2]"
NA,canvas-keyboard-response,98,223015,0.0-6.0-2.15,5016,NA,NA,NA,NA,rectangles,null,null,NA,NA,critical,t,c,d,240,164,164,240,227.1683,158.0083,trueblood,0.09,w,240,164,164,240,227.1683,158.0083,39360,39360,35894.4834,dc,null,null,null,null,null,null,"[3,2]"
NA,canvas-keyboard-response,99,223182,0.0-6.0-3.15,5016,NA,NA,NA,NA,clear_screen,null,null,NA,NA,critical,t,c,d,240,164,164,240,227.1683,158.0083,trueblood,0.09,w,240,164,164,240,227.1683,158.0083,39360,39360,35894.4834,dc,null,null,null,null,null,null,"[3,2]"
NA,canvas-keyboard-response,100,224696,0.0-6.0-4.15,5016,NA,NA,NA,NA,make choice,1502,2,NA,NA,critical,t,c,d,240,164,164,240,227.1683,158.0083,trueblood,0.09,w,240,164,164,240,227.1683,158.0083,39360,39360,35894.4834,dc,null,null,null,null,null,null,"[3,2]"
NA,canvas-keyboard-response,101,224861,0.0-6.0-5.15,5016,NA,NA,NA,NA,clear_screen,null,null,NA,NA,critical,t,c,d,240,164,164,240,227.1683,158.0083,trueblood,0.09,w,240,164,164,240,227.1683,158.0083,39360,39360,35894.4834,dc,null,null,null,null,null,null,"[3,2]"
NA,canvas-keyboard-response,102,225072,0.0-6.0-0.16,5016,NA,NA,NA,NA,pre trial waiting period,null,null,NA,NA,critical,t,d,c,164,240,154.6796,220.0396,240,164,trueblood,0.14,h,164,240,240,164,154.6796,220.0396,39360,39360,34035.6388,tc,null,null,null,null,null,null,"[1,3]"
NA,canvas-keyboard-response,103,225229,0.0-6.0-1.16,5016,NA,NA,NA,NA,clear_screen,null,null,NA,NA,critical,t,d,c,164,240,154.6796,220.0396,240,164,trueblood,0.14,h,164,240,240,164,154.6796,220.0396,39360,39360,34035.6388,tc,null,null,null,null,null,null,"[1,3]"
NA,canvas-keyboard-response,104,226568,0.0-6.0-2.16,5016,NA,NA,NA,NA,rectangles,null,null,NA,NA,critical,t,d,c,164,240,154.6796,220.0396,240,164,trueblood,0.14,h,164,240,240,164,154.6796,220.0396,39360,39360,34035.6388,tc,null,null,null,null,null,null,"[1,3]"
NA,canvas-keyboard-response,105,226732,0.0-6.0-3.16,5016,NA,NA,NA,NA,clear_screen,null,null,NA,NA,critical,t,d,c,164,240,154.6796,220.0396,240,164,trueblood,0.14,h,164,240,240,164,154.6796,220.0396,39360,39360,34035.6388,tc,null,null,null,null,null,null,"[1,3]"
NA,canvas-keyboard-response,106,228008,0.0-6.0-4.16,5016,NA,NA,NA,NA,make choice,1261,3,NA,NA,critical,t,d,c,164,240,154.6796,220.0396,240,164,trueblood,0.14,h,164,240,240,164,154.6796,220.0396,39360,39360,34035.6388,tc,null,null,null,null,null,null,"[1,3]"
NA,canvas-keyboard-response,107,228173,0.0-6.0-5.16,5016,NA,NA,NA,NA,clear_screen,null,null,NA,NA,critical,t,d,c,164,240,154.6796,220.0396,240,164,trueblood,0.14,h,164,240,240,164,154.6796,220.0396,39360,39360,34035.6388,tc,null,null,null,null,null,null,"[1,3]"
NA,canvas-keyboard-response,108,228384,0.0-6.0-0.17,5016,NA,NA,NA,NA,pre trial waiting period,null,null,NA,NA,critical,t,d,c,164,240,162.6685,237.1485,240,164,trueblood,0.02,h,164,240,240,164,162.6685,237.1485,39360,39360,38576.5967,tc,null,null,null,null,null,null,"[1,3]"
NA,canvas-keyboard-response,109,228548,0.0-6.0-1.17,5016,NA,NA,NA,NA,clear_screen,null,null,NA,NA,critical,t,d,c,164,240,162.6685,237.1485,240,164,trueblood,0.02,h,164,240,240,164,162.6685,237.1485,39360,39360,38576.5967,tc,null,null,null,null,null,null,"[1,3]"
NA,canvas-keyboard-response,110,229891,0.0-6.0-2.17,5016,NA,NA,NA,NA,rectangles,null,null,NA,NA,critical,t,d,c,164,240,162.6685,237.1485,240,164,trueblood,0.02,h,164,240,240,164,162.6685,237.1485,39360,39360,38576.5967,tc,null,null,null,null,null,null,"[1,3]"
NA,canvas-keyboard-response,111,230056,0.0-6.0-3.17,5016,NA,NA,NA,NA,clear_screen,null,null,NA,NA,critical,t,d,c,164,240,162.6685,237.1485,240,164,trueblood,0.02,h,164,240,240,164,162.6685,237.1485,39360,39360,38576.5967,tc,null,null,null,null,null,null,"[1,3]"
NA,canvas-keyboard-response,112,232360,0.0-6.0-4.17,5016,NA,NA,NA,NA,make choice,2290,3,NA,NA,critical,t,d,c,164,240,162.6685,237.1485,240,164,trueblood,0.02,h,164,240,240,164,162.6685,237.1485,39360,39360,38576.5967,tc,null,null,null,null,null,null,"[1,3]"
NA,canvas-keyboard-response,113,232523,0.0-6.0-5.17,5016,NA,NA,NA,NA,clear_screen,null,null,NA,NA,critical,t,d,c,164,240,162.6685,237.1485,240,164,trueblood,0.02,h,164,240,240,164,162.6685,237.1485,39360,39360,38576.5967,tc,null,null,null,null,null,null,"[1,3]"
NA,canvas-keyboard-response,114,232737,0.0-6.0-0.18,5016,NA,NA,NA,NA,pre trial waiting period,null,null,NA,NA,catch,sh,sw,l,183,164,202,239,261,222,trueblood,null,null,null,null,null,null,null,null,null,null,null,NA,180,200,260,200,36000,52000,"[2,3]"
NA,canvas-keyboard-response,115,232896,0.0-6.0-1.18,5016,NA,NA,NA,NA,clear_screen,null,null,NA,NA,catch,sh,sw,l,183,164,202,239,261,222,trueblood,null,null,null,null,null,null,null,null,null,null,null,NA,180,200,260,200,36000,52000,"[2,3]"
NA,canvas-keyboard-response,116,234238,0.0-6.0-2.18,5016,NA,NA,NA,NA,rectangles,null,null,NA,NA,catch,sh,sw,l,183,164,202,239,261,222,trueblood,null,null,null,null,null,null,null,null,null,null,null,NA,180,200,260,200,36000,52000,"[2,3]"
NA,canvas-keyboard-response,117,234403,0.0-6.0-3.18,5016,NA,NA,NA,NA,clear_screen,null,null,NA,NA,catch,sh,sw,l,183,164,202,239,261,222,trueblood,null,null,null,null,null,null,null,null,null,null,null,NA,180,200,260,200,36000,52000,"[2,3]"
NA,canvas-keyboard-response,118,235400,0.0-6.0-4.18,5016,NA,NA,NA,NA,make choice,979,3,NA,NA,catch,sh,sw,l,183,164,202,239,261,222,trueblood,null,null,null,null,null,null,null,null,null,null,null,NA,180,200,260,200,36000,52000,"[2,3]"
NA,canvas-keyboard-response,119,235565,0.0-6.0-5.18,5016,NA,NA,NA,NA,clear_screen,null,null,NA,NA,catch,sh,sw,l,183,164,202,239,261,222,trueblood,null,null,null,null,null,null,null,null,null,null,null,NA,180,200,260,200,36000,52000,"[2,3]"
NA,canvas-keyboard-response,120,235775,0.0-6.0-0.19,5016,NA,NA,NA,NA,pre trial waiting period,null,null,NA,NA,critical,c,d,t,164,240,237.1485,162.6685,240,164,trueblood,0.02,w,240,164,164,240,237.1485,162.6685,39360,39360,38576.5967,dc,null,null,null,null,null,null,"[2,1]"
NA,canvas-keyboard-response,121,235936,0.0-6.0-1.19,5016,NA,NA,NA,NA,clear_screen,null,null,NA,NA,critical,c,d,t,164,240,237.1485,162.6685,240,164,trueblood,0.02,w,240,164,164,240,237.1485,162.6685,39360,39360,38576.5967,dc,null,null,null,null,null,null,"[2,1]"
NA,canvas-keyboard-response,122,237278,0.0-6.0-2.19,5016,NA,NA,NA,NA,rectangles,null,null,NA,NA,critical,c,d,t,164,240,237.1485,162.6685,240,164,trueblood,0.02,w,240,164,164,240,237.1485,162.6685,39360,39360,38576.5967,dc,null,null,null,null,null,null,"[2,1]"
NA,canvas-keyboard-response,123,237444,0.0-6.0-3.19,5016,NA,NA,NA,NA,clear_screen,null,null,NA,NA,critical,c,d,t,164,240,237.1485,162.6685,240,164,trueblood,0.02,w,240,164,164,240,237.1485,162.6685,39360,39360,38576.5967,dc,null,null,null,null,null,null,"[2,1]"
NA,canvas-keyboard-response,124,239282,0.0-6.0-4.19,5016,NA,NA,NA,NA,make choice,1822,1,NA,NA,critical,c,d,t,164,240,237.1485,162.6685,240,164,trueblood,0.02,w,240,164,164,240,237.1485,162.6685,39360,39360,38576.5967,dc,null,null,null,null,null,null,"[2,1]"
NA,canvas-keyboard-response,125,239451,0.0-6.0-5.19,5016,NA,NA,NA,NA,clear_screen,null,null,NA,NA,critical,c,d,t,164,240,237.1485,162.6685,240,164,trueblood,0.02,w,240,164,164,240,237.1485,162.6685,39360,39360,38576.5967,dc,null,null,null,null,null,null,"[2,1]"
NA,canvas-keyboard-response,126,239667,0.0-6.0-0.20,5016,NA,NA,NA,NA,pre trial waiting period,null,null,NA,NA,critical,t,d,c,240,164,237.1485,162.6685,164,240,spektor,0.02,w,240,164,164,240,237.1485,162.6685,39360,39360,38576.5967,dc,null,null,null,null,null,null,"[2,3]"
NA,canvas-keyboard-response,127,239829,0.0-6.0-1.20,5016,NA,NA,NA,NA,clear_screen,null,null,NA,NA,critical,t,d,c,240,164,237.1485,162.6685,164,240,spektor,0.02,w,240,164,164,240,237.1485,162.6685,39360,39360,38576.5967,dc,null,null,null,null,null,null,"[2,3]"
NA,canvas-keyboard-response,128,241173,0.0-6.0-2.20,5016,NA,NA,NA,NA,rectangles,null,null,NA,NA,critical,t,d,c,240,164,237.1485,162.6685,164,240,spektor,0.02,w,240,164,164,240,237.1485,162.6685,39360,39360,38576.5967,dc,null,null,null,null,null,null,"[2,3]"
NA,canvas-keyboard-response,129,241345,0.0-6.0-3.20,5016,NA,NA,NA,NA,clear_screen,null,null,NA,NA,critical,t,d,c,240,164,237.1485,162.6685,164,240,spektor,0.02,w,240,164,164,240,237.1485,162.6685,39360,39360,38576.5967,dc,null,null,null,null,null,null,"[2,3]"
NA,canvas-keyboard-response,130,243193,0.0-6.0-4.20,5016,NA,NA,NA,NA,make choice,1830,3,NA,NA,critical,t,d,c,240,164,237.1485,162.6685,164,240,spektor,0.02,w,240,164,164,240,237.1485,162.6685,39360,39360,38576.5967,dc,null,null,null,null,null,null,"[2,3]"
NA,canvas-keyboard-response,131,243360,0.0-6.0-5.20,5016,NA,NA,NA,NA,clear_screen,null,null,NA,NA,critical,t,d,c,240,164,237.1485,162.6685,164,240,spektor,0.02,w,240,164,164,240,237.1485,162.6685,39360,39360,38576.5967,dc,null,null,null,null,null,null,"[2,3]"
NA,canvas-keyboard-response,132,243576,0.0-6.0-0.21,5016,NA,NA,NA,NA,pre trial waiting period,null,null,NA,NA,critical,t,d,c,164,240,162.6685,237.1485,240,164,trueblood,0.02,h,164,240,240,164,162.6685,237.1485,39360,39360,38576.5967,dc,null,null,null,null,null,null,"[2,3]"
NA,canvas-keyboard-response,133,243736,0.0-6.0-1.21,5016,NA,NA,NA,NA,clear_screen,null,null,NA,NA,critical,t,d,c,164,240,162.6685,237.1485,240,164,trueblood,0.02,h,164,240,240,164,162.6685,237.1485,39360,39360,38576.5967,dc,null,null,null,null,null,null,"[2,3]"
NA,canvas-keyboard-response,134,245081,0.0-6.0-2.21,5016,NA,NA,NA,NA,rectangles,null,null,NA,NA,critical,t,d,c,164,240,162.6685,237.1485,240,164,trueblood,0.02,h,164,240,240,164,162.6685,237.1485,39360,39360,38576.5967,dc,null,null,null,null,null,null,"[2,3]"
NA,canvas-keyboard-response,135,245249,0.0-6.0-3.21,5016,NA,NA,NA,NA,clear_screen,null,null,NA,NA,critical,t,d,c,164,240,162.6685,237.1485,240,164,trueblood,0.02,h,164,240,240,164,162.6685,237.1485,39360,39360,38576.5967,dc,null,null,null,null,null,null,"[2,3]"
NA,canvas-keyboard-response,136,246519,0.0-6.0-4.21,5016,NA,NA,NA,NA,make choice,1253,3,NA,NA,critical,t,d,c,164,240,162.6685,237.1485,240,164,trueblood,0.02,h,164,240,240,164,162.6685,237.1485,39360,39360,38576.5967,dc,null,null,null,null,null,null,"[2,3]"
NA,canvas-keyboard-response,137,246689,0.0-6.0-5.21,5016,NA,NA,NA,NA,clear_screen,null,null,NA,NA,critical,t,d,c,164,240,162.6685,237.1485,240,164,trueblood,0.02,h,164,240,240,164,162.6685,237.1485,39360,39360,38576.5967,dc,null,null,null,null,null,null,"[2,3]"
NA,canvas-keyboard-response,138,246902,0.0-6.0-0.22,5016,NA,NA,NA,NA,pre trial waiting period,null,null,NA,NA,critical,t,d,c,164,240,158.0083,227.1683,240,164,trueblood,0.09,h,164,240,240,164,158.0083,227.1683,39360,39360,35894.4834,dc,null,null,null,null,null,null,"[2,3]"
NA,canvas-keyboard-response,139,247061,0.0-6.0-1.22,5016,NA,NA,NA,NA,clear_screen,null,null,NA,NA,critical,t,d,c,164,240,158.0083,227.1683,240,164,trueblood,0.09,h,164,240,240,164,158.0083,227.1683,39360,39360,35894.4834,dc,null,null,null,null,null,null,"[2,3]"
NA,canvas-keyboard-response,140,248409,0.0-6.0-2.22,5016,NA,NA,NA,NA,rectangles,null,null,NA,NA,critical,t,d,c,164,240,158.0083,227.1683,240,164,trueblood,0.09,h,164,240,240,164,158.0083,227.1683,39360,39360,35894.4834,dc,null,null,null,null,null,null,"[2,3]"
NA,canvas-keyboard-response,141,248575,0.0-6.0-3.22,5016,NA,NA,NA,NA,clear_screen,null,null,NA,NA,critical,t,d,c,164,240,158.0083,227.1683,240,164,trueblood,0.09,h,164,240,240,164,158.0083,227.1683,39360,39360,35894.4834,dc,null,null,null,null,null,null,"[2,3]"
NA,canvas-keyboard-response,142,251888,0.0-6.0-4.22,5016,NA,NA,NA,NA,make choice,3298,3,NA,NA,critical,t,d,c,164,240,158.0083,227.1683,240,164,trueblood,0.09,h,164,240,240,164,158.0083,227.1683,39360,39360,35894.4834,dc,null,null,null,null,null,null,"[2,3]"
NA,canvas-keyboard-response,143,252053,0.0-6.0-5.22,5016,NA,NA,NA,NA,clear_screen,null,null,NA,NA,critical,t,d,c,164,240,158.0083,227.1683,240,164,trueblood,0.09,h,164,240,240,164,158.0083,227.1683,39360,39360,35894.4834,dc,null,null,null,null,null,null,"[2,3]"
NA,canvas-keyboard-response,144,252263,0.0-6.0-0.23,5016,NA,NA,NA,NA,pre trial waiting period,null,null,NA,NA,critical,t,c,d,164,240,240,164,164,240,spektor,0,h,164,240,240,164,164,240,39360,39360,39360,tc,null,null,null,null,null,null,"[1,2]"
NA,canvas-keyboard-response,145,252423,0.0-6.0-1.23,5016,NA,NA,NA,NA,clear_screen,null,null,NA,NA,critical,t,c,d,164,240,240,164,164,240,spektor,0,h,164,240,240,164,164,240,39360,39360,39360,tc,null,null,null,null,null,null,"[1,2]"
NA,canvas-keyboard-response,146,253766,0.0-6.0-2.23,5016,NA,NA,NA,NA,rectangles,null,null,NA,NA,critical,t,c,d,164,240,240,164,164,240,spektor,0,h,164,240,240,164,164,240,39360,39360,39360,tc,null,null,null,null,null,null,"[1,2]"
NA,canvas-keyboard-response,147,253934,0.0-6.0-3.23,5016,NA,NA,NA,NA,clear_screen,null,null,NA,NA,critical,t,c,d,164,240,240,164,164,240,spektor,0,h,164,240,240,164,164,240,39360,39360,39360,tc,null,null,null,null,null,null,"[1,2]"
NA,canvas-keyboard-response,148,256160,0.0-6.0-4.23,5016,NA,NA,NA,NA,make choice,2208,1,NA,NA,critical,t,c,d,164,240,240,164,164,240,spektor,0,h,164,240,240,164,164,240,39360,39360,39360,tc,null,null,null,null,null,null,"[1,2]"
NA,canvas-keyboard-response,149,256324,0.0-6.0-5.23,5016,NA,NA,NA,NA,clear_screen,null,null,NA,NA,critical,t,c,d,164,240,240,164,164,240,spektor,0,h,164,240,240,164,164,240,39360,39360,39360,tc,null,null,null,null,null,null,"[1,2]"
NA,canvas-keyboard-response,150,256535,0.0-6.0-0.24,5016,NA,NA,NA,NA,pre trial waiting period,null,null,NA,NA,critical,c,d,t,240,164,160.6713,232.8713,164,240,trueblood,0.05,h,164,240,240,164,160.6713,232.8713,39360,39360,37415.7294,td,null,null,null,null,null,null,"[3,2]"
NA,canvas-keyboard-response,151,256700,0.0-6.0-1.24,5016,NA,NA,NA,NA,clear_screen,null,null,NA,NA,critical,c,d,t,240,164,160.6713,232.8713,164,240,trueblood,0.05,h,164,240,240,164,160.6713,232.8713,39360,39360,37415.7294,td,null,null,null,null,null,null,"[3,2]"
NA,canvas-keyboard-response,152,258040,0.0-6.0-2.24,5016,NA,NA,NA,NA,rectangles,null,null,NA,NA,critical,c,d,t,240,164,160.6713,232.8713,164,240,trueblood,0.05,h,164,240,240,164,160.6713,232.8713,39360,39360,37415.7294,td,null,null,null,null,null,null,"[3,2]"
NA,canvas-keyboard-response,153,258207,0.0-6.0-3.24,5016,NA,NA,NA,NA,clear_screen,null,null,NA,NA,critical,c,d,t,240,164,160.6713,232.8713,164,240,trueblood,0.05,h,164,240,240,164,160.6713,232.8713,39360,39360,37415.7294,td,null,null,null,null,null,null,"[3,2]"
NA,canvas-keyboard-response,154,260584,0.0-6.0-4.24,5016,NA,NA,NA,NA,make choice,2360,3,NA,NA,critical,c,d,t,240,164,160.6713,232.8713,164,240,trueblood,0.05,h,164,240,240,164,160.6713,232.8713,39360,39360,37415.7294,td,null,null,null,null,null,null,"[3,2]"
NA,canvas-keyboard-response,155,260748,0.0-6.0-5.24,5016,NA,NA,NA,NA,clear_screen,null,null,NA,NA,critical,c,d,t,240,164,160.6713,232.8713,164,240,trueblood,0.05,h,164,240,240,164,160.6713,232.8713,39360,39360,37415.7294,td,null,null,null,null,null,null,"[3,2]"
NA,canvas-keyboard-response,156,260962,0.0-6.0-0.25,5016,NA,NA,NA,NA,pre trial waiting period,null,null,NA,NA,catch,sh,l,sw,195,187,205,260,184,226,trueblood,null,null,null,null,null,null,null,null,null,null,null,NA,180,200,260,200,36000,52000,"[1,2]"
NA,canvas-keyboard-response,157,261126,0.0-6.0-1.25,5016,NA,NA,NA,NA,clear_screen,null,null,NA,NA,catch,sh,l,sw,195,187,205,260,184,226,trueblood,null,null,null,null,null,null,null,null,null,null,null,NA,180,200,260,200,36000,52000,"[1,2]"
NA,canvas-keyboard-response,158,262471,0.0-6.0-2.25,5016,NA,NA,NA,NA,rectangles,null,null,NA,NA,catch,sh,l,sw,195,187,205,260,184,226,trueblood,null,null,null,null,null,null,null,null,null,null,null,NA,180,200,260,200,36000,52000,"[1,2]"
NA,canvas-keyboard-response,159,262638,0.0-6.0-3.25,5016,NA,NA,NA,NA,clear_screen,null,null,NA,NA,catch,sh,l,sw,195,187,205,260,184,226,trueblood,null,null,null,null,null,null,null,null,null,null,null,NA,180,200,260,200,36000,52000,"[1,2]"
NA,canvas-keyboard-response,160,263704,0.0-6.0-4.25,5016,NA,NA,NA,NA,make choice,1050,2,NA,NA,catch,sh,l,sw,195,187,205,260,184,226,trueblood,null,null,null,null,null,null,null,null,null,null,null,NA,180,200,260,200,36000,52000,"[1,2]"
NA,canvas-keyboard-response,161,263871,0.0-6.0-5.25,5016,NA,NA,NA,NA,clear_screen,null,null,NA,NA,catch,sh,l,sw,195,187,205,260,184,226,trueblood,null,null,null,null,null,null,null,null,null,null,null,NA,180,200,260,200,36000,52000,"[1,2]"
NA,canvas-keyboard-response,162,264083,0.0-6.0-0.26,5016,NA,NA,NA,NA,pre trial waiting period,null,null,NA,NA,critical,c,d,t,164,240,220.0396,154.6796,240,164,trueblood,0.14,w,240,164,164,240,220.0396,154.6796,39360,39360,34035.6388,td,null,null,null,null,null,null,"[3,2]"
NA,canvas-keyboard-response,163,264243,0.0-6.0-1.26,5016,NA,NA,NA,NA,clear_screen,null,null,NA,NA,critical,c,d,t,164,240,220.0396,154.6796,240,164,trueblood,0.14,w,240,164,164,240,220.0396,154.6796,39360,39360,34035.6388,td,null,null,null,null,null,null,"[3,2]"
NA,canvas-keyboard-response,164,265588,0.0-6.0-2.26,5016,NA,NA,NA,NA,rectangles,null,null,NA,NA,critical,c,d,t,164,240,220.0396,154.6796,240,164,trueblood,0.14,w,240,164,164,240,220.0396,154.6796,39360,39360,34035.6388,td,null,null,null,null,null,null,"[3,2]"
NA,canvas-keyboard-response,165,265756,0.0-6.0-3.26,5016,NA,NA,NA,NA,clear_screen,null,null,NA,NA,critical,c,d,t,164,240,220.0396,154.6796,240,164,trueblood,0.14,w,240,164,164,240,220.0396,154.6796,39360,39360,34035.6388,td,null,null,null,null,null,null,"[3,2]"
NA,canvas-keyboard-response,166,266671,0.0-6.0-4.26,5016,NA,NA,NA,NA,make choice,897,3,NA,NA,critical,c,d,t,164,240,220.0396,154.6796,240,164,trueblood,0.14,w,240,164,164,240,220.0396,154.6796,39360,39360,34035.6388,td,null,null,null,null,null,null,"[3,2]"
NA,canvas-keyboard-response,167,266836,0.0-6.0-5.26,5016,NA,NA,NA,NA,clear_screen,null,null,NA,NA,critical,c,d,t,164,240,220.0396,154.6796,240,164,trueblood,0.14,w,240,164,164,240,220.0396,154.6796,39360,39360,34035.6388,td,null,null,null,null,null,null,"[3,2]"
NA,canvas-keyboard-response,168,267051,0.0-6.0-0.27,5016,NA,NA,NA,NA,pre trial waiting period,null,null,NA,NA,critical,d,t,c,160.6713,232.8713,164,240,240,164,trueblood,0.05,h,164,240,240,164,160.6713,232.8713,39360,39360,37415.7294,tc,null,null,null,null,null,null,"[2,3]"
NA,canvas-keyboard-response,169,267209,0.0-6.0-1.27,5016,NA,NA,NA,NA,clear_screen,null,null,NA,NA,critical,d,t,c,160.6713,232.8713,164,240,240,164,trueblood,0.05,h,164,240,240,164,160.6713,232.8713,39360,39360,37415.7294,tc,null,null,null,null,null,null,"[2,3]"
NA,canvas-keyboard-response,170,268552,0.0-6.0-2.27,5016,NA,NA,NA,NA,rectangles,null,null,NA,NA,critical,d,t,c,160.6713,232.8713,164,240,240,164,trueblood,0.05,h,164,240,240,164,160.6713,232.8713,39360,39360,37415.7294,tc,null,null,null,null,null,null,"[2,3]"
NA,canvas-keyboard-response,171,268717,0.0-6.0-3.27,5016,NA,NA,NA,NA,clear_screen,null,null,NA,NA,critical,d,t,c,160.6713,232.8713,164,240,240,164,trueblood,0.05,h,164,240,240,164,160.6713,232.8713,39360,39360,37415.7294,tc,null,null,null,null,null,null,"[2,3]"
NA,canvas-keyboard-response,172,270872,0.0-6.0-4.27,5016,NA,NA,NA,NA,make choice,2139,2,NA,NA,critical,d,t,c,160.6713,232.8713,164,240,240,164,trueblood,0.05,h,164,240,240,164,160.6713,232.8713,39360,39360,37415.7294,tc,null,null,null,null,null,null,"[2,3]"
NA,canvas-keyboard-response,173,271039,0.0-6.0-5.27,5016,NA,NA,NA,NA,clear_screen,null,null,NA,NA,critical,d,t,c,160.6713,232.8713,164,240,240,164,trueblood,0.05,h,164,240,240,164,160.6713,232.8713,39360,39360,37415.7294,tc,null,null,null,null,null,null,"[2,3]"
NA,canvas-keyboard-response,174,271250,0.0-6.0-0.28,5016,NA,NA,NA,NA,pre trial waiting period,null,null,NA,NA,critical,t,d,c,164,240,164,240,240,164,trueblood,0,h,164,240,240,164,164,240,39360,39360,39360,tc,null,null,null,null,null,null,"[1,3]"
NA,canvas-keyboard-response,175,271411,0.0-6.0-1.28,5016,NA,NA,NA,NA,clear_screen,null,null,NA,NA,critical,t,d,c,164,240,164,240,240,164,trueblood,0,h,164,240,240,164,164,240,39360,39360,39360,tc,null,null,null,null,null,null,"[1,3]"
NA,canvas-keyboard-response,176,272752,0.0-6.0-2.28,5016,NA,NA,NA,NA,rectangles,null,null,NA,NA,critical,t,d,c,164,240,164,240,240,164,trueblood,0,h,164,240,240,164,164,240,39360,39360,39360,tc,null,null,null,null,null,null,"[1,3]"
NA,canvas-keyboard-response,177,272923,0.0-6.0-3.28,5016,NA,NA,NA,NA,clear_screen,null,null,NA,NA,critical,t,d,c,164,240,164,240,240,164,trueblood,0,h,164,240,240,164,164,240,39360,39360,39360,tc,null,null,null,null,null,null,"[1,3]"
NA,canvas-keyboard-response,178,275016,0.0-6.0-4.28,5016,NA,NA,NA,NA,make choice,2076,1,NA,NA,critical,t,d,c,164,240,164,240,240,164,trueblood,0,h,164,240,240,164,164,240,39360,39360,39360,tc,null,null,null,null,null,null,"[1,3]"
NA,canvas-keyboard-response,179,275181,0.0-6.0-5.28,5016,NA,NA,NA,NA,clear_screen,null,null,NA,NA,critical,t,d,c,164,240,164,240,240,164,trueblood,0,h,164,240,240,164,164,240,39360,39360,39360,tc,null,null,null,null,null,null,"[1,3]"
NA,canvas-keyboard-response,180,275393,0.0-6.0-0.29,5016,NA,NA,NA,NA,pre trial waiting period,null,null,NA,NA,catch,sw,l,sh,180,200,295,219,178,165,trueblood,null,null,null,null,null,null,null,null,null,null,null,NA,180,200,260,200,36000,52000,"[1,2]"
NA,canvas-keyboard-response,181,275547,0.0-6.0-1.29,5016,NA,NA,NA,NA,clear_screen,null,null,NA,NA,catch,sw,l,sh,180,200,295,219,178,165,trueblood,null,null,null,null,null,null,null,null,null,null,null,NA,180,200,260,200,36000,52000,"[1,2]"
NA,canvas-keyboard-response,182,276891,0.0-6.0-2.29,5016,NA,NA,NA,NA,rectangles,null,null,NA,NA,catch,sw,l,sh,180,200,295,219,178,165,trueblood,null,null,null,null,null,null,null,null,null,null,null,NA,180,200,260,200,36000,52000,"[1,2]"
NA,canvas-keyboard-response,183,277059,0.0-6.0-3.29,5016,NA,NA,NA,NA,clear_screen,null,null,NA,NA,catch,sw,l,sh,180,200,295,219,178,165,trueblood,null,null,null,null,null,null,null,null,null,null,null,NA,180,200,260,200,36000,52000,"[1,2]"
NA,canvas-keyboard-response,184,277816,0.0-6.0-4.29,5016,NA,NA,NA,NA,make choice,742,2,NA,NA,catch,sw,l,sh,180,200,295,219,178,165,trueblood,null,null,null,null,null,null,null,null,null,null,null,NA,180,200,260,200,36000,52000,"[1,2]"
NA,canvas-keyboard-response,185,277981,0.0-6.0-5.29,5016,NA,NA,NA,NA,clear_screen,null,null,NA,NA,catch,sw,l,sh,180,200,295,219,178,165,trueblood,null,null,null,null,null,null,null,null,null,null,null,NA,180,200,260,200,36000,52000,"[1,2]"
NA,canvas-keyboard-response,186,278195,0.0-6.0-0.30,5016,NA,NA,NA,NA,pre trial waiting period,null,null,NA,NA,critical,c,d,t,164,240,240,164,240,164,trueblood,0,w,240,164,164,240,240,164,39360,39360,39360,tc,null,null,null,null,null,null,"[3,1]"
NA,canvas-keyboard-response,187,278356,0.0-6.0-1.30,5016,NA,NA,NA,NA,clear_screen,null,null,NA,NA,critical,c,d,t,164,240,240,164,240,164,trueblood,0,w,240,164,164,240,240,164,39360,39360,39360,tc,null,null,null,null,null,null,"[3,1]"
NA,canvas-keyboard-response,188,279700,0.0-6.0-2.30,5016,NA,NA,NA,NA,rectangles,null,null,NA,NA,critical,c,d,t,164,240,240,164,240,164,trueblood,0,w,240,164,164,240,240,164,39360,39360,39360,tc,null,null,null,null,null,null,"[3,1]"
NA,canvas-keyboard-response,189,279868,0.0-6.0-3.30,5016,NA,NA,NA,NA,clear_screen,null,null,NA,NA,critical,c,d,t,164,240,240,164,240,164,trueblood,0,w,240,164,164,240,240,164,39360,39360,39360,tc,null,null,null,null,null,null,"[3,1]"
NA,canvas-keyboard-response,190,281017,0.0-6.0-4.30,5016,NA,NA,NA,NA,make choice,1128,3,NA,NA,critical,c,d,t,164,240,240,164,240,164,trueblood,0,w,240,164,164,240,240,164,39360,39360,39360,tc,null,null,null,null,null,null,"[3,1]"
NA,canvas-keyboard-response,191,281184,0.0-6.0-5.30,5016,NA,NA,NA,NA,clear_screen,null,null,NA,NA,critical,c,d,t,164,240,240,164,240,164,trueblood,0,w,240,164,164,240,240,164,39360,39360,39360,tc,null,null,null,null,null,null,"[3,1]"
NA,canvas-keyboard-response,192,281397,0.0-6.0-0.31,5016,NA,NA,NA,NA,pre trial waiting period,null,null,NA,NA,critical,t,c,d,164,240,240,164,164,240,spektor,0,h,164,240,240,164,164,240,39360,39360,39360,dc,null,null,null,null,null,null,"[3,2]"
NA,canvas-keyboard-response,193,281556,0.0-6.0-1.31,5016,NA,NA,NA,NA,clear_screen,null,null,NA,NA,critical,t,c,d,164,240,240,164,164,240,spektor,0,h,164,240,240,164,164,240,39360,39360,39360,dc,null,null,null,null,null,null,"[3,2]"
NA,canvas-keyboard-response,194,282900,0.0-6.0-2.31,5016,NA,NA,NA,NA,rectangles,null,null,NA,NA,critical,t,c,d,164,240,240,164,164,240,spektor,0,h,164,240,240,164,164,240,39360,39360,39360,dc,null,null,null,null,null,null,"[3,2]"
NA,canvas-keyboard-response,195,283069,0.0-6.0-3.31,5016,NA,NA,NA,NA,clear_screen,null,null,NA,NA,critical,t,c,d,164,240,240,164,164,240,spektor,0,h,164,240,240,164,164,240,39360,39360,39360,dc,null,null,null,null,null,null,"[3,2]"
NA,canvas-keyboard-response,196,285088,0.0-6.0-4.31,5016,NA,NA,NA,NA,make choice,2001,3,NA,NA,critical,t,c,d,164,240,240,164,164,240,spektor,0,h,164,240,240,164,164,240,39360,39360,39360,dc,null,null,null,null,null,null,"[3,2]"
NA,canvas-keyboard-response,197,285254,0.0-6.0-5.31,5016,NA,NA,NA,NA,clear_screen,null,null,NA,NA,critical,t,c,d,164,240,240,164,164,240,spektor,0,h,164,240,240,164,164,240,39360,39360,39360,dc,null,null,null,null,null,null,"[3,2]"
NA,canvas-keyboard-response,198,285467,0.0-6.0-0.32,5016,NA,NA,NA,NA,pre trial waiting period,null,null,NA,NA,catch,l,sh,sw,287,208,198,215,169,177,spektor,null,null,null,null,null,null,null,null,null,null,null,NA,180,200,260,200,36000,52000,"[1,3]"
NA,canvas-keyboard-response,199,285631,0.0-6.0-1.32,5016,NA,NA,NA,NA,clear_screen,null,null,NA,NA,catch,l,sh,sw,287,208,198,215,169,177,spektor,null,null,null,null,null,null,null,null,null,null,null,NA,180,200,260,200,36000,52000,"[1,3]"
NA,canvas-keyboard-response,200,286976,0.0-6.0-2.32,5016,NA,NA,NA,NA,rectangles,null,null,NA,NA,catch,l,sh,sw,287,208,198,215,169,177,spektor,null,null,null,null,null,null,null,null,null,null,null,NA,180,200,260,200,36000,52000,"[1,3]"
NA,canvas-keyboard-response,201,287136,0.0-6.0-3.32,5016,NA,NA,NA,NA,clear_screen,null,null,NA,NA,catch,l,sh,sw,287,208,198,215,169,177,spektor,null,null,null,null,null,null,null,null,null,null,null,NA,180,200,260,200,36000,52000,"[1,3]"
NA,canvas-keyboard-response,202,288801,0.0-6.0-4.32,5016,NA,NA,NA,NA,make choice,1647,1,NA,NA,catch,l,sh,sw,287,208,198,215,169,177,spektor,null,null,null,null,null,null,null,null,null,null,null,NA,180,200,260,200,36000,52000,"[1,3]"
NA,canvas-keyboard-response,203,288964,0.0-6.0-5.32,5016,NA,NA,NA,NA,clear_screen,null,null,NA,NA,catch,l,sh,sw,287,208,198,215,169,177,spektor,null,null,null,null,null,null,null,null,null,null,null,NA,180,200,260,200,36000,52000,"[1,3]"
NA,canvas-keyboard-response,204,289172,0.0-6.0-0.33,5016,NA,NA,NA,NA,pre trial waiting period,null,null,NA,NA,critical,d,c,t,158.0083,227.1683,240,164,164,240,spektor,0.09,h,164,240,240,164,158.0083,227.1683,39360,39360,35894.4834,td,null,null,null,null,null,null,"[3,1]"
NA,canvas-keyboard-response,205,289333,0.0-6.0-1.33,5016,NA,NA,NA,NA,clear_screen,null,null,NA,NA,critical,d,c,t,158.0083,227.1683,240,164,164,240,spektor,0.09,h,164,240,240,164,158.0083,227.1683,39360,39360,35894.4834,td,null,null,null,null,null,null,"[3,1]"
NA,canvas-keyboard-response,206,290677,0.0-6.0-2.33,5016,NA,NA,NA,NA,rectangles,null,null,NA,NA,critical,d,c,t,158.0083,227.1683,240,164,164,240,spektor,0.09,h,164,240,240,164,158.0083,227.1683,39360,39360,35894.4834,td,null,null,null,null,null,null,"[3,1]"
NA,canvas-keyboard-response,207,290845,0.0-6.0-3.33,5016,NA,NA,NA,NA,clear_screen,null,null,NA,NA,critical,d,c,t,158.0083,227.1683,240,164,164,240,spektor,0.09,h,164,240,240,164,158.0083,227.1683,39360,39360,35894.4834,td,null,null,null,null,null,null,"[3,1]"
NA,canvas-keyboard-response,208,291792,0.0-6.0-4.33,5016,NA,NA,NA,NA,make choice,929,3,NA,NA,critical,d,c,t,158.0083,227.1683,240,164,164,240,spektor,0.09,h,164,240,240,164,158.0083,227.1683,39360,39360,35894.4834,td,null,null,null,null,null,null,"[3,1]"
NA,canvas-keyboard-response,209,291960,0.0-6.0-5.33,5016,NA,NA,NA,NA,clear_screen,null,null,NA,NA,critical,d,c,t,158.0083,227.1683,240,164,164,240,spektor,0.09,h,164,240,240,164,158.0083,227.1683,39360,39360,35894.4834,td,null,null,null,null,null,null,"[3,1]"
NA,canvas-keyboard-response,210,292172,0.0-6.0-0.34,5016,NA,NA,NA,NA,pre trial waiting period,null,null,NA,NA,critical,d,t,c,220.0396,154.6796,240,164,164,240,spektor,0.14,w,240,164,164,240,220.0396,154.6796,39360,39360,34035.6388,tc,null,null,null,null,null,null,"[2,3]"
NA,canvas-keyboard-response,211,292330,0.0-6.0-1.34,5016,NA,NA,NA,NA,clear_screen,null,null,NA,NA,critical,d,t,c,220.0396,154.6796,240,164,164,240,spektor,0.14,w,240,164,164,240,220.0396,154.6796,39360,39360,34035.6388,tc,null,null,null,null,null,null,"[2,3]"
NA,canvas-keyboard-response,212,293676,0.0-6.0-2.34,5016,NA,NA,NA,NA,rectangles,null,null,NA,NA,critical,d,t,c,220.0396,154.6796,240,164,164,240,spektor,0.14,w,240,164,164,240,220.0396,154.6796,39360,39360,34035.6388,tc,null,null,null,null,null,null,"[2,3]"
NA,canvas-keyboard-response,213,293845,0.0-6.0-3.34,5016,NA,NA,NA,NA,clear_screen,null,null,NA,NA,critical,d,t,c,220.0396,154.6796,240,164,164,240,spektor,0.14,w,240,164,164,240,220.0396,154.6796,39360,39360,34035.6388,tc,null,null,null,null,null,null,"[2,3]"
NA,canvas-keyboard-response,214,295680,0.0-6.0-4.34,5016,NA,NA,NA,NA,make choice,1818,3,NA,NA,critical,d,t,c,220.0396,154.6796,240,164,164,240,spektor,0.14,w,240,164,164,240,220.0396,154.6796,39360,39360,34035.6388,tc,null,null,null,null,null,null,"[2,3]"
NA,canvas-keyboard-response,215,295846,0.0-6.0-5.34,5016,NA,NA,NA,NA,clear_screen,null,null,NA,NA,critical,d,t,c,220.0396,154.6796,240,164,164,240,spektor,0.14,w,240,164,164,240,220.0396,154.6796,39360,39360,34035.6388,tc,null,null,null,null,null,null,"[2,3]"
NA,canvas-keyboard-response,216,296062,0.0-6.0-0.35,5016,NA,NA,NA,NA,pre trial waiting period,null,null,NA,NA,critical,d,t,c,164,240,164,240,240,164,trueblood,0,h,164,240,240,164,164,240,39360,39360,39360,td,null,null,null,null,null,null,"[2,1]"
NA,canvas-keyboard-response,217,296224,0.0-6.0-1.35,5016,NA,NA,NA,NA,clear_screen,null,null,NA,NA,critical,d,t,c,164,240,164,240,240,164,trueblood,0,h,164,240,240,164,164,240,39360,39360,39360,td,null,null,null,null,null,null,"[2,1]"
NA,canvas-keyboard-response,218,297568,0.0-6.0-2.35,5016,NA,NA,NA,NA,rectangles,null,null,NA,NA,critical,d,t,c,164,240,164,240,240,164,trueblood,0,h,164,240,240,164,164,240,39360,39360,39360,td,null,null,null,null,null,null,"[2,1]"
NA,canvas-keyboard-response,219,297734,0.0-6.0-3.35,5016,NA,NA,NA,NA,clear_screen,null,null,NA,NA,critical,d,t,c,164,240,164,240,240,164,trueblood,0,h,164,240,240,164,164,240,39360,39360,39360,td,null,null,null,null,null,null,"[2,1]"
NA,canvas-keyboard-response,220,299808,0.0-6.0-4.35,5016,NA,NA,NA,NA,make choice,2058,2,NA,NA,critical,d,t,c,164,240,164,240,240,164,trueblood,0,h,164,240,240,164,164,240,39360,39360,39360,td,null,null,null,null,null,null,"[2,1]"
NA,canvas-keyboard-response,221,299976,0.0-6.0-5.35,5016,NA,NA,NA,NA,clear_screen,null,null,NA,NA,critical,d,t,c,164,240,164,240,240,164,trueblood,0,h,164,240,240,164,164,240,39360,39360,39360,td,null,null,null,null,null,null,"[2,1]"
NA,canvas-keyboard-response,222,300187,0.0-6.0-0.36,5016,NA,NA,NA,NA,pre trial waiting period,null,null,NA,NA,critical,t,d,c,240,164,220.0396,154.6796,164,240,trueblood,0.14,w,240,164,164,240,220.0396,154.6796,39360,39360,34035.6388,dc,null,null,null,null,null,null,"[2,3]"
NA,canvas-keyboard-response,223,300350,0.0-6.0-1.36,5016,NA,NA,NA,NA,clear_screen,null,null,NA,NA,critical,t,d,c,240,164,220.0396,154.6796,164,240,trueblood,0.14,w,240,164,164,240,220.0396,154.6796,39360,39360,34035.6388,dc,null,null,null,null,null,null,"[2,3]"
NA,canvas-keyboard-response,224,301694,0.0-6.0-2.36,5016,NA,NA,NA,NA,rectangles,null,null,NA,NA,critical,t,d,c,240,164,220.0396,154.6796,164,240,trueblood,0.14,w,240,164,164,240,220.0396,154.6796,39360,39360,34035.6388,dc,null,null,null,null,null,null,"[2,3]"
NA,canvas-keyboard-response,225,301864,0.0-6.0-3.36,5016,NA,NA,NA,NA,clear_screen,null,null,NA,NA,critical,t,d,c,240,164,220.0396,154.6796,164,240,trueblood,0.14,w,240,164,164,240,220.0396,154.6796,39360,39360,34035.6388,dc,null,null,null,null,null,null,"[2,3]"
NA,canvas-keyboard-response,226,304216,0.0-6.0-4.36,5016,NA,NA,NA,NA,make choice,2333,2,NA,NA,critical,t,d,c,240,164,220.0396,154.6796,164,240,trueblood,0.14,w,240,164,164,240,220.0396,154.6796,39360,39360,34035.6388,dc,null,null,null,null,null,null,"[2,3]"
NA,canvas-keyboard-response,227,304384,0.0-6.0-5.36,5016,NA,NA,NA,NA,clear_screen,null,null,NA,NA,critical,t,d,c,240,164,220.0396,154.6796,164,240,trueblood,0.14,w,240,164,164,240,220.0396,154.6796,39360,39360,34035.6388,dc,null,null,null,null,null,null,"[2,3]"
NA,canvas-keyboard-response,228,304600,0.0-6.0-0.37,5016,NA,NA,NA,NA,pre trial waiting period,null,null,NA,NA,critical,t,c,d,240,164,164,240,232.8713,160.6713,trueblood,0.05,w,240,164,164,240,232.8713,160.6713,39360,39360,37415.7294,td,null,null,null,null,null,null,"[1,3]"
NA,canvas-keyboard-response,229,304763,0.0-6.0-1.37,5016,NA,NA,NA,NA,clear_screen,null,null,NA,NA,critical,t,c,d,240,164,164,240,232.8713,160.6713,trueblood,0.05,w,240,164,164,240,232.8713,160.6713,39360,39360,37415.7294,td,null,null,null,null,null,null,"[1,3]"
NA,canvas-keyboard-response,230,306106,0.0-6.0-2.37,5016,NA,NA,NA,NA,rectangles,null,null,NA,NA,critical,t,c,d,240,164,164,240,232.8713,160.6713,trueblood,0.05,w,240,164,164,240,232.8713,160.6713,39360,39360,37415.7294,td,null,null,null,null,null,null,"[1,3]"
NA,canvas-keyboard-response,231,306277,0.0-6.0-3.37,5016,NA,NA,NA,NA,clear_screen,null,null,NA,NA,critical,t,c,d,240,164,164,240,232.8713,160.6713,trueblood,0.05,w,240,164,164,240,232.8713,160.6713,39360,39360,37415.7294,td,null,null,null,null,null,null,"[1,3]"
NA,canvas-keyboard-response,232,307824,0.0-6.0-4.37,5016,NA,NA,NA,NA,make choice,1526,1,NA,NA,critical,t,c,d,240,164,164,240,232.8713,160.6713,trueblood,0.05,w,240,164,164,240,232.8713,160.6713,39360,39360,37415.7294,td,null,null,null,null,null,null,"[1,3]"
NA,canvas-keyboard-response,233,307991,0.0-6.0-5.37,5016,NA,NA,NA,NA,clear_screen,null,null,NA,NA,critical,t,c,d,240,164,164,240,232.8713,160.6713,trueblood,0.05,w,240,164,164,240,232.8713,160.6713,39360,39360,37415.7294,td,null,null,null,null,null,null,"[1,3]"
NA,canvas-keyboard-response,234,308204,0.0-6.0-0.38,5016,NA,NA,NA,NA,pre trial waiting period,null,null,NA,NA,catch,sw,l,sh,180,200,189,293,215,195,spektor,null,null,null,null,null,null,null,null,null,null,null,NA,180,200,260,200,36000,52000,"[2,3]"
NA,canvas-keyboard-response,235,308364,0.0-6.0-1.38,5016,NA,NA,NA,NA,clear_screen,null,null,NA,NA,catch,sw,l,sh,180,200,189,293,215,195,spektor,null,null,null,null,null,null,null,null,null,null,null,NA,180,200,260,200,36000,52000,"[2,3]"
NA,canvas-keyboard-response,236,309709,0.0-6.0-2.38,5016,NA,NA,NA,NA,rectangles,null,null,NA,NA,catch,sw,l,sh,180,200,189,293,215,195,spektor,null,null,null,null,null,null,null,null,null,null,null,NA,180,200,260,200,36000,52000,"[2,3]"
NA,canvas-keyboard-response,237,309877,0.0-6.0-3.38,5016,NA,NA,NA,NA,clear_screen,null,null,NA,NA,catch,sw,l,sh,180,200,189,293,215,195,spektor,null,null,null,null,null,null,null,null,null,null,null,NA,180,200,260,200,36000,52000,"[2,3]"
NA,canvas-keyboard-response,238,311097,0.0-6.0-4.38,5016,NA,NA,NA,NA,make choice,1198,2,NA,NA,catch,sw,l,sh,180,200,189,293,215,195,spektor,null,null,null,null,null,null,null,null,null,null,null,NA,180,200,260,200,36000,52000,"[2,3]"
NA,canvas-keyboard-response,239,311264,0.0-6.0-5.38,5016,NA,NA,NA,NA,clear_screen,null,null,NA,NA,catch,sw,l,sh,180,200,189,293,215,195,spektor,null,null,null,null,null,null,null,null,null,null,null,NA,180,200,260,200,36000,52000,"[2,3]"
NA,canvas-keyboard-response,240,311480,0.0-6.0-0.39,5016,NA,NA,NA,NA,pre trial waiting period,null,null,NA,NA,catch,l,sw,sh,204,283,178,161,193,172,trueblood,null,null,null,null,null,null,null,null,null,null,null,NA,180,200,260,200,36000,52000,"[1,2]"
NA,canvas-keyboard-response,241,311640,0.0-6.0-1.39,5016,NA,NA,NA,NA,clear_screen,null,null,NA,NA,catch,l,sw,sh,204,283,178,161,193,172,trueblood,null,null,null,null,null,null,null,null,null,null,null,NA,180,200,260,200,36000,52000,"[1,2]"
NA,canvas-keyboard-response,242,312985,0.0-6.0-2.39,5016,NA,NA,NA,NA,rectangles,null,null,NA,NA,catch,l,sw,sh,204,283,178,161,193,172,trueblood,null,null,null,null,null,null,null,null,null,null,null,NA,180,200,260,200,36000,52000,"[1,2]"
NA,canvas-keyboard-response,243,313157,0.0-6.0-3.39,5016,NA,NA,NA,NA,clear_screen,null,null,NA,NA,catch,l,sw,sh,204,283,178,161,193,172,trueblood,null,null,null,null,null,null,null,null,null,null,null,NA,180,200,260,200,36000,52000,"[1,2]"
NA,canvas-keyboard-response,244,314576,0.0-6.0-4.39,5016,NA,NA,NA,NA,make choice,1399,1,NA,NA,catch,l,sw,sh,204,283,178,161,193,172,trueblood,null,null,null,null,null,null,null,null,null,null,null,NA,180,200,260,200,36000,52000,"[1,2]"
NA,canvas-keyboard-response,245,314745,0.0-6.0-5.39,5016,NA,NA,NA,NA,clear_screen,null,null,NA,NA,catch,l,sw,sh,204,283,178,161,193,172,trueblood,null,null,null,null,null,null,null,null,null,null,null,NA,180,200,260,200,36000,52000,"[1,2]"
NA,canvas-keyboard-response,246,314962,0.0-6.0-0.40,5016,NA,NA,NA,NA,pre trial waiting period,null,null,NA,NA,catch,l,sw,sh,174,236,154,217,208,149,spektor,null,null,null,null,null,null,null,null,null,null,null,NA,180,200,260,200,36000,52000,"[1,2]"
NA,canvas-keyboard-response,247,315122,0.0-6.0-1.40,5016,NA,NA,NA,NA,clear_screen,null,null,NA,NA,catch,l,sw,sh,174,236,154,217,208,149,spektor,null,null,null,null,null,null,null,null,null,null,null,NA,180,200,260,200,36000,52000,"[1,2]"
NA,canvas-keyboard-response,248,316467,0.0-6.0-2.40,5016,NA,NA,NA,NA,rectangles,null,null,NA,NA,catch,l,sw,sh,174,236,154,217,208,149,spektor,null,null,null,null,null,null,null,null,null,null,null,NA,180,200,260,200,36000,52000,"[1,2]"
NA,canvas-keyboard-response,249,316635,0.0-6.0-3.40,5016,NA,NA,NA,NA,clear_screen,null,null,NA,NA,catch,l,sw,sh,174,236,154,217,208,149,spektor,null,null,null,null,null,null,null,null,null,null,null,NA,180,200,260,200,36000,52000,"[1,2]"
NA,canvas-keyboard-response,250,317992,0.0-6.0-4.40,5016,NA,NA,NA,NA,make choice,1338,1,NA,NA,catch,l,sw,sh,174,236,154,217,208,149,spektor,null,null,null,null,null,null,null,null,null,null,null,NA,180,200,260,200,36000,52000,"[1,2]"
NA,canvas-keyboard-response,251,318159,0.0-6.0-5.40,5016,NA,NA,NA,NA,clear_screen,null,null,NA,NA,catch,l,sw,sh,174,236,154,217,208,149,spektor,null,null,null,null,null,null,null,null,null,null,null,NA,180,200,260,200,36000,52000,"[1,2]"
NA,canvas-keyboard-response,252,318376,0.0-6.0-0.41,5016,NA,NA,NA,NA,pre trial waiting period,null,null,NA,NA,critical,t,c,d,240,164,164,240,232.8713,160.6713,spektor,0.05,w,240,164,164,240,232.8713,160.6713,39360,39360,37415.7294,tc,null,null,null,null,null,null,"[1,2]"
NA,canvas-keyboard-response,253,318535,0.0-6.0-1.41,5016,NA,NA,NA,NA,clear_screen,null,null,NA,NA,critical,t,c,d,240,164,164,240,232.8713,160.6713,spektor,0.05,w,240,164,164,240,232.8713,160.6713,39360,39360,37415.7294,tc,null,null,null,null,null,null,"[1,2]"
NA,canvas-keyboard-response,254,319880,0.0-6.0-2.41,5016,NA,NA,NA,NA,rectangles,null,null,NA,NA,critical,t,c,d,240,164,164,240,232.8713,160.6713,spektor,0.05,w,240,164,164,240,232.8713,160.6713,39360,39360,37415.7294,tc,null,null,null,null,null,null,"[1,2]"
NA,canvas-keyboard-response,255,320049,0.0-6.0-3.41,5016,NA,NA,NA,NA,clear_screen,null,null,NA,NA,critical,t,c,d,240,164,164,240,232.8713,160.6713,spektor,0.05,w,240,164,164,240,232.8713,160.6713,39360,39360,37415.7294,tc,null,null,null,null,null,null,"[1,2]"
NA,canvas-keyboard-response,256,321888,0.0-6.0-4.41,5016,NA,NA,NA,NA,make choice,1822,1,NA,NA,critical,t,c,d,240,164,164,240,232.8713,160.6713,spektor,0.05,w,240,164,164,240,232.8713,160.6713,39360,39360,37415.7294,tc,null,null,null,null,null,null,"[1,2]"
NA,canvas-keyboard-response,257,322056,0.0-6.0-5.41,5016,NA,NA,NA,NA,clear_screen,null,null,NA,NA,critical,t,c,d,240,164,164,240,232.8713,160.6713,spektor,0.05,w,240,164,164,240,232.8713,160.6713,39360,39360,37415.7294,tc,null,null,null,null,null,null,"[1,2]"
NA,canvas-keyboard-response,258,322273,0.0-6.0-0.42,5016,NA,NA,NA,NA,pre trial waiting period,null,null,NA,NA,critical,d,c,t,162.6685,237.1485,240,164,164,240,trueblood,0.02,h,164,240,240,164,162.6685,237.1485,39360,39360,38576.5967,td,null,null,null,null,null,null,"[3,1]"
NA,canvas-keyboard-response,259,322433,0.0-6.0-1.42,5016,NA,NA,NA,NA,clear_screen,null,null,NA,NA,critical,d,c,t,162.6685,237.1485,240,164,164,240,trueblood,0.02,h,164,240,240,164,162.6685,237.1485,39360,39360,38576.5967,td,null,null,null,null,null,null,"[3,1]"
NA,canvas-keyboard-response,260,323779,0.0-6.0-2.42,5016,NA,NA,NA,NA,rectangles,null,null,NA,NA,critical,d,c,t,162.6685,237.1485,240,164,164,240,trueblood,0.02,h,164,240,240,164,162.6685,237.1485,39360,39360,38576.5967,td,null,null,null,null,null,null,"[3,1]"
NA,canvas-keyboard-response,261,323949,0.0-6.0-3.42,5016,NA,NA,NA,NA,clear_screen,null,null,NA,NA,critical,d,c,t,162.6685,237.1485,240,164,164,240,trueblood,0.02,h,164,240,240,164,162.6685,237.1485,39360,39360,38576.5967,td,null,null,null,null,null,null,"[3,1]"
NA,canvas-keyboard-response,262,325856,0.0-6.0-4.42,5016,NA,NA,NA,NA,make choice,1887,1,NA,NA,critical,d,c,t,162.6685,237.1485,240,164,164,240,trueblood,0.02,h,164,240,240,164,162.6685,237.1485,39360,39360,38576.5967,td,null,null,null,null,null,null,"[3,1]"
NA,canvas-keyboard-response,263,326024,0.0-6.0-5.42,5016,NA,NA,NA,NA,clear_screen,null,null,NA,NA,critical,d,c,t,162.6685,237.1485,240,164,164,240,trueblood,0.02,h,164,240,240,164,162.6685,237.1485,39360,39360,38576.5967,td,null,null,null,null,null,null,"[3,1]"
NA,canvas-keyboard-response,264,326237,0.0-6.0-0.43,5016,NA,NA,NA,NA,pre trial waiting period,null,null,NA,NA,catch,sh,sw,l,193,189,167,210,250,176,spektor,null,null,null,null,null,null,null,null,null,null,null,NA,180,200,260,200,36000,52000,"[1,3]"
NA,canvas-keyboard-response,265,326400,0.0-6.0-1.43,5016,NA,NA,NA,NA,clear_screen,null,null,NA,NA,catch,sh,sw,l,193,189,167,210,250,176,spektor,null,null,null,null,null,null,null,null,null,null,null,NA,180,200,260,200,36000,52000,"[1,3]"
NA,canvas-keyboard-response,266,327745,0.0-6.0-2.43,5016,NA,NA,NA,NA,rectangles,null,null,NA,NA,catch,sh,sw,l,193,189,167,210,250,176,spektor,null,null,null,null,null,null,null,null,null,null,null,NA,180,200,260,200,36000,52000,"[1,3]"
NA,canvas-keyboard-response,267,327915,0.0-6.0-3.43,5016,NA,NA,NA,NA,clear_screen,null,null,NA,NA,catch,sh,sw,l,193,189,167,210,250,176,spektor,null,null,null,null,null,null,null,null,null,null,null,NA,180,200,260,200,36000,52000,"[1,3]"
NA,canvas-keyboard-response,268,329016,0.0-6.0-4.43,5016,NA,NA,NA,NA,make choice,1083,3,NA,NA,catch,sh,sw,l,193,189,167,210,250,176,spektor,null,null,null,null,null,null,null,null,null,null,null,NA,180,200,260,200,36000,52000,"[1,3]"
NA,canvas-keyboard-response,269,329182,0.0-6.0-5.43,5016,NA,NA,NA,NA,clear_screen,null,null,NA,NA,catch,sh,sw,l,193,189,167,210,250,176,spektor,null,null,null,null,null,null,null,null,null,null,null,NA,180,200,260,200,36000,52000,"[1,3]"
NA,canvas-keyboard-response,270,329401,0.0-6.0-0.44,5016,NA,NA,NA,NA,pre trial waiting period,null,null,NA,NA,catch,l,sw,sh,197,246,210,199,169,179,trueblood,null,null,null,null,null,null,null,null,null,null,null,NA,180,200,260,200,36000,52000,"[1,2]"
NA,canvas-keyboard-response,271,329559,0.0-6.0-1.44,5016,NA,NA,NA,NA,clear_screen,null,null,NA,NA,catch,l,sw,sh,197,246,210,199,169,179,trueblood,null,null,null,null,null,null,null,null,null,null,null,NA,180,200,260,200,36000,52000,"[1,2]"
NA,canvas-keyboard-response,272,330906,0.0-6.0-2.44,5016,NA,NA,NA,NA,rectangles,null,null,NA,NA,catch,l,sw,sh,197,246,210,199,169,179,trueblood,null,null,null,null,null,null,null,null,null,null,null,NA,180,200,260,200,36000,52000,"[1,2]"
NA,canvas-keyboard-response,273,331078,0.0-6.0-3.44,5016,NA,NA,NA,NA,clear_screen,null,null,NA,NA,catch,l,sw,sh,197,246,210,199,169,179,trueblood,null,null,null,null,null,null,null,null,null,null,null,NA,180,200,260,200,36000,52000,"[1,2]"
NA,canvas-keyboard-response,274,331800,0.0-6.0-4.44,5016,NA,NA,NA,NA,make choice,702,1,NA,NA,catch,l,sw,sh,197,246,210,199,169,179,trueblood,null,null,null,null,null,null,null,null,null,null,null,NA,180,200,260,200,36000,52000,"[1,2]"
NA,canvas-keyboard-response,275,331968,0.0-6.0-5.44,5016,NA,NA,NA,NA,clear_screen,null,null,NA,NA,catch,l,sw,sh,197,246,210,199,169,179,trueblood,null,null,null,null,null,null,null,null,null,null,null,NA,180,200,260,200,36000,52000,"[1,2]"
NA,canvas-keyboard-response,276,332185,0.0-6.0-0.45,5016,NA,NA,NA,NA,pre trial waiting period,null,null,NA,NA,catch,sw,l,sh,180,200,230,160,174,166,spektor,null,null,null,null,null,null,null,null,null,null,null,NA,180,200,260,200,36000,52000,"[1,2]"
NA,canvas-keyboard-response,277,332347,0.0-6.0-1.45,5016,NA,NA,NA,NA,clear_screen,null,null,NA,NA,catch,sw,l,sh,180,200,230,160,174,166,spektor,null,null,null,null,null,null,null,null,null,null,null,NA,180,200,260,200,36000,52000,"[1,2]"
NA,canvas-keyboard-response,278,333692,0.0-6.0-2.45,5016,NA,NA,NA,NA,rectangles,null,null,NA,NA,catch,sw,l,sh,180,200,230,160,174,166,spektor,null,null,null,null,null,null,null,null,null,null,null,NA,180,200,260,200,36000,52000,"[1,2]"
NA,canvas-keyboard-response,279,333865,0.0-6.0-3.45,5016,NA,NA,NA,NA,clear_screen,null,null,NA,NA,catch,sw,l,sh,180,200,230,160,174,166,spektor,null,null,null,null,null,null,null,null,null,null,null,NA,180,200,260,200,36000,52000,"[1,2]"
NA,canvas-keyboard-response,280,334920,0.0-6.0-4.45,5016,NA,NA,NA,NA,make choice,1036,2,NA,NA,catch,sw,l,sh,180,200,230,160,174,166,spektor,null,null,null,null,null,null,null,null,null,null,null,NA,180,200,260,200,36000,52000,"[1,2]"
NA,canvas-keyboard-response,281,335090,0.0-6.0-5.45,5016,NA,NA,NA,NA,clear_screen,null,null,NA,NA,catch,sw,l,sh,180,200,230,160,174,166,spektor,null,null,null,null,null,null,null,null,null,null,null,NA,180,200,260,200,36000,52000,"[1,2]"
NA,canvas-keyboard-response,282,335306,0.0-6.0-0.46,5016,NA,NA,NA,NA,pre trial waiting period,null,null,NA,NA,catch,l,sh,sw,239,243,172,180,212,236,spektor,null,null,null,null,null,null,null,null,null,null,null,NA,180,200,260,200,36000,52000,"[1,3]"
NA,canvas-keyboard-response,283,335465,0.0-6.0-1.46,5016,NA,NA,NA,NA,clear_screen,null,null,NA,NA,catch,l,sh,sw,239,243,172,180,212,236,spektor,null,null,null,null,null,null,null,null,null,null,null,NA,180,200,260,200,36000,52000,"[1,3]"
NA,canvas-keyboard-response,284,336813,0.0-6.0-2.46,5016,NA,NA,NA,NA,rectangles,null,null,NA,NA,catch,l,sh,sw,239,243,172,180,212,236,spektor,null,null,null,null,null,null,null,null,null,null,null,NA,180,200,260,200,36000,52000,"[1,3]"
NA,canvas-keyboard-response,285,336983,0.0-6.0-3.46,5016,NA,NA,NA,NA,clear_screen,null,null,NA,NA,catch,l,sh,sw,239,243,172,180,212,236,spektor,null,null,null,null,null,null,null,null,null,null,null,NA,180,200,260,200,36000,52000,"[1,3]"
NA,canvas-keyboard-response,286,337672,0.0-6.0-4.46,5016,NA,NA,NA,NA,make choice,669,1,NA,NA,catch,l,sh,sw,239,243,172,180,212,236,spektor,null,null,null,null,null,null,null,null,null,null,null,NA,180,200,260,200,36000,52000,"[1,3]"
NA,canvas-keyboard-response,287,337842,0.0-6.0-5.46,5016,NA,NA,NA,NA,clear_screen,null,null,NA,NA,catch,l,sh,sw,239,243,172,180,212,236,spektor,null,null,null,null,null,null,null,null,null,null,null,NA,180,200,260,200,36000,52000,"[1,3]"
NA,canvas-keyboard-response,288,338061,0.0-6.0-0.47,5016,NA,NA,NA,NA,pre trial waiting period,null,null,NA,NA,catch,l,sh,sw,239,233,239,214,153,204,spektor,null,null,null,null,null,null,null,null,null,null,null,NA,180,200,260,200,36000,52000,"[1,2]"
NA,canvas-keyboard-response,289,338223,0.0-6.0-1.47,5016,NA,NA,NA,NA,clear_screen,null,null,NA,NA,catch,l,sh,sw,239,233,239,214,153,204,spektor,null,null,null,null,null,null,null,null,null,null,null,NA,180,200,260,200,36000,52000,"[1,2]"
NA,canvas-keyboard-response,290,339569,0.0-6.0-2.47,5016,NA,NA,NA,NA,rectangles,null,null,NA,NA,catch,l,sh,sw,239,233,239,214,153,204,spektor,null,null,null,null,null,null,null,null,null,null,null,NA,180,200,260,200,36000,52000,"[1,2]"
NA,canvas-keyboard-response,291,339739,0.0-6.0-3.47,5016,NA,NA,NA,NA,clear_screen,null,null,NA,NA,catch,l,sh,sw,239,233,239,214,153,204,spektor,null,null,null,null,null,null,null,null,null,null,null,NA,180,200,260,200,36000,52000,"[1,2]"
NA,canvas-keyboard-response,292,340504,0.0-6.0-4.47,5016,NA,NA,NA,NA,make choice,743,1,NA,NA,catch,l,sh,sw,239,233,239,214,153,204,spektor,null,null,null,null,null,null,null,null,null,null,null,NA,180,200,260,200,36000,52000,"[1,2]"
NA,canvas-keyboard-response,293,340671,0.0-6.0-5.47,5016,NA,NA,NA,NA,clear_screen,null,null,NA,NA,catch,l,sh,sw,239,233,239,214,153,204,spektor,null,null,null,null,null,null,null,null,null,null,null,NA,180,200,260,200,36000,52000,"[1,2]"
NA,canvas-keyboard-response,294,340887,0.0-6.0-0.48,5016,NA,NA,NA,NA,pre trial waiting period,null,null,NA,NA,critical,d,c,t,162.6685,237.1485,240,164,164,240,spektor,0.02,h,164,240,240,164,162.6685,237.1485,39360,39360,38576.5967,td,null,null,null,null,null,null,"[3,1]"
NA,canvas-keyboard-response,295,341050,0.0-6.0-1.48,5016,NA,NA,NA,NA,clear_screen,null,null,NA,NA,critical,d,c,t,162.6685,237.1485,240,164,164,240,spektor,0.02,h,164,240,240,164,162.6685,237.1485,39360,39360,38576.5967,td,null,null,null,null,null,null,"[3,1]"
NA,canvas-keyboard-response,296,342397,0.0-6.0-2.48,5016,NA,NA,NA,NA,rectangles,null,null,NA,NA,critical,d,c,t,162.6685,237.1485,240,164,164,240,spektor,0.02,h,164,240,240,164,162.6685,237.1485,39360,39360,38576.5967,td,null,null,null,null,null,null,"[3,1]"
NA,canvas-keyboard-response,297,342569,0.0-6.0-3.48,5016,NA,NA,NA,NA,clear_screen,null,null,NA,NA,critical,d,c,t,162.6685,237.1485,240,164,164,240,spektor,0.02,h,164,240,240,164,162.6685,237.1485,39360,39360,38576.5967,td,null,null,null,null,null,null,"[3,1]"
NA,canvas-keyboard-response,298,343288,0.0-6.0-4.48,5016,NA,NA,NA,NA,make choice,699,3,NA,NA,critical,d,c,t,162.6685,237.1485,240,164,164,240,spektor,0.02,h,164,240,240,164,162.6685,237.1485,39360,39360,38576.5967,td,null,null,null,null,null,null,"[3,1]"
NA,canvas-keyboard-response,299,343457,0.0-6.0-5.48,5016,NA,NA,NA,NA,clear_screen,null,null,NA,NA,critical,d,c,t,162.6685,237.1485,240,164,164,240,spektor,0.02,h,164,240,240,164,162.6685,237.1485,39360,39360,38576.5967,td,null,null,null,null,null,null,"[3,1]"
NA,canvas-keyboard-response,300,343671,0.0-6.0-0.49,5016,NA,NA,NA,NA,pre trial waiting period,null,null,NA,NA,catch,sh,sw,l,166,206,217,235,270,189,spektor,null,null,null,null,null,null,null,null,null,null,null,NA,180,200,260,200,36000,52000,"[1,3]"
NA,canvas-keyboard-response,301,343835,0.0-6.0-1.49,5016,NA,NA,NA,NA,clear_screen,null,null,NA,NA,catch,sh,sw,l,166,206,217,235,270,189,spektor,null,null,null,null,null,null,null,null,null,null,null,NA,180,200,260,200,36000,52000,"[1,3]"
NA,canvas-keyboard-response,302,345176,0.0-6.0-2.49,5016,NA,NA,NA,NA,rectangles,null,null,NA,NA,catch,sh,sw,l,166,206,217,235,270,189,spektor,null,null,null,null,null,null,null,null,null,null,null,NA,180,200,260,200,36000,52000,"[1,3]"
NA,canvas-keyboard-response,303,345347,0.0-6.0-3.49,5016,NA,NA,NA,NA,clear_screen,null,null,NA,NA,catch,sh,sw,l,166,206,217,235,270,189,spektor,null,null,null,null,null,null,null,null,null,null,null,NA,180,200,260,200,36000,52000,"[1,3]"
NA,canvas-keyboard-response,304,345975,0.0-6.0-4.49,5016,NA,NA,NA,NA,make choice,609,3,NA,NA,catch,sh,sw,l,166,206,217,235,270,189,spektor,null,null,null,null,null,null,null,null,null,null,null,NA,180,200,260,200,36000,52000,"[1,3]"
NA,canvas-keyboard-response,305,346144,0.0-6.0-5.49,5016,NA,NA,NA,NA,clear_screen,null,null,NA,NA,catch,sh,sw,l,166,206,217,235,270,189,spektor,null,null,null,null,null,null,null,null,null,null,null,NA,180,200,260,200,36000,52000,"[1,3]"
NA,canvas-keyboard-response,306,346362,0.0-6.0-0.50,5016,NA,NA,NA,NA,pre trial waiting period,null,null,NA,NA,catch,sw,sh,l,180,200,221,162,187,295,trueblood,null,null,null,null,null,null,null,null,null,null,null,NA,180,200,260,200,36000,52000,"[2,3]"
NA,canvas-keyboard-response,307,346524,0.0-6.0-1.50,5016,NA,NA,NA,NA,clear_screen,null,null,NA,NA,catch,sw,sh,l,180,200,221,162,187,295,trueblood,null,null,null,null,null,null,null,null,null,null,null,NA,180,200,260,200,36000,52000,"[2,3]"
NA,canvas-keyboard-response,308,347870,0.0-6.0-2.50,5016,NA,NA,NA,NA,rectangles,null,null,NA,NA,catch,sw,sh,l,180,200,221,162,187,295,trueblood,null,null,null,null,null,null,null,null,null,null,null,NA,180,200,260,200,36000,52000,"[2,3]"
NA,canvas-keyboard-response,309,348040,0.0-6.0-3.50,5016,NA,NA,NA,NA,clear_screen,null,null,NA,NA,catch,sw,sh,l,180,200,221,162,187,295,trueblood,null,null,null,null,null,null,null,null,null,null,null,NA,180,200,260,200,36000,52000,"[2,3]"
NA,canvas-keyboard-response,310,348912,0.0-6.0-4.50,5016,NA,NA,NA,NA,make choice,859,3,NA,NA,catch,sw,sh,l,180,200,221,162,187,295,trueblood,null,null,null,null,null,null,null,null,null,null,null,NA,180,200,260,200,36000,52000,"[2,3]"
NA,canvas-keyboard-response,311,349083,0.0-6.0-5.50,5016,NA,NA,NA,NA,clear_screen,null,null,NA,NA,catch,sw,sh,l,180,200,221,162,187,295,trueblood,null,null,null,null,null,null,null,null,null,null,null,NA,180,200,260,200,36000,52000,"[2,3]"
NA,canvas-keyboard-response,312,349299,0.0-6.0-0.51,5016,NA,NA,NA,NA,pre trial waiting period,null,null,NA,NA,critical,t,c,d,164,240,240,164,164,240,trueblood,0,h,164,240,240,164,164,240,39360,39360,39360,dc,null,null,null,null,null,null,"[3,2]"
NA,canvas-keyboard-response,313,349463,0.0-6.0-1.51,5016,NA,NA,NA,NA,clear_screen,null,null,NA,NA,critical,t,c,d,164,240,240,164,164,240,trueblood,0,h,164,240,240,164,164,240,39360,39360,39360,dc,null,null,null,null,null,null,"[3,2]"
NA,canvas-keyboard-response,314,350810,0.0-6.0-2.51,5016,NA,NA,NA,NA,rectangles,null,null,NA,NA,critical,t,c,d,164,240,240,164,164,240,trueblood,0,h,164,240,240,164,164,240,39360,39360,39360,dc,null,null,null,null,null,null,"[3,2]"
NA,canvas-keyboard-response,315,350981,0.0-6.0-3.51,5016,NA,NA,NA,NA,clear_screen,null,null,NA,NA,critical,t,c,d,164,240,240,164,164,240,trueblood,0,h,164,240,240,164,164,240,39360,39360,39360,dc,null,null,null,null,null,null,"[3,2]"
NA,canvas-keyboard-response,316,351735,0.0-6.0-4.51,5016,NA,NA,NA,NA,make choice,734,2,NA,NA,critical,t,c,d,164,240,240,164,164,240,trueblood,0,h,164,240,240,164,164,240,39360,39360,39360,dc,null,null,null,null,null,null,"[3,2]"
NA,canvas-keyboard-response,317,351906,0.0-6.0-5.51,5016,NA,NA,NA,NA,clear_screen,null,null,NA,NA,critical,t,c,d,164,240,240,164,164,240,trueblood,0,h,164,240,240,164,164,240,39360,39360,39360,dc,null,null,null,null,null,null,"[3,2]"
NA,canvas-keyboard-response,318,352126,0.0-6.0-0.52,5016,NA,NA,NA,NA,pre trial waiting period,null,null,NA,NA,critical,d,c,t,220.0396,154.6796,164,240,240,164,spektor,0.14,w,240,164,164,240,220.0396,154.6796,39360,39360,34035.6388,td,null,null,null,null,null,null,"[3,1]"
NA,canvas-keyboard-response,319,352291,0.0-6.0-1.52,5016,NA,NA,NA,NA,clear_screen,null,null,NA,NA,critical,d,c,t,220.0396,154.6796,164,240,240,164,spektor,0.14,w,240,164,164,240,220.0396,154.6796,39360,39360,34035.6388,td,null,null,null,null,null,null,"[3,1]"
NA,canvas-keyboard-response,320,353637,0.0-6.0-2.52,5016,NA,NA,NA,NA,rectangles,null,null,NA,NA,critical,d,c,t,220.0396,154.6796,164,240,240,164,spektor,0.14,w,240,164,164,240,220.0396,154.6796,39360,39360,34035.6388,td,null,null,null,null,null,null,"[3,1]"
NA,canvas-keyboard-response,321,353808,0.0-6.0-3.52,5016,NA,NA,NA,NA,clear_screen,null,null,NA,NA,critical,d,c,t,220.0396,154.6796,164,240,240,164,spektor,0.14,w,240,164,164,240,220.0396,154.6796,39360,39360,34035.6388,td,null,null,null,null,null,null,"[3,1]"
NA,canvas-keyboard-response,322,354784,0.0-6.0-4.52,5016,NA,NA,NA,NA,make choice,956,3,NA,NA,critical,d,c,t,220.0396,154.6796,164,240,240,164,spektor,0.14,w,240,164,164,240,220.0396,154.6796,39360,39360,34035.6388,td,null,null,null,null,null,null,"[3,1]"
NA,canvas-keyboard-response,323,354956,0.0-6.0-5.52,5016,NA,NA,NA,NA,clear_screen,null,null,NA,NA,critical,d,c,t,220.0396,154.6796,164,240,240,164,spektor,0.14,w,240,164,164,240,220.0396,154.6796,39360,39360,34035.6388,td,null,null,null,null,null,null,"[3,1]"
NA,canvas-keyboard-response,324,355174,0.0-6.0-0.53,5016,NA,NA,NA,NA,pre trial waiting period,null,null,NA,NA,critical,c,d,t,240,164,160.6713,232.8713,164,240,trueblood,0.05,h,164,240,240,164,160.6713,232.8713,39360,39360,37415.7294,dc,null,null,null,null,null,null,"[2,1]"
NA,canvas-keyboard-response,325,355337,0.0-6.0-1.53,5016,NA,NA,NA,NA,clear_screen,null,null,NA,NA,critical,c,d,t,240,164,160.6713,232.8713,164,240,trueblood,0.05,h,164,240,240,164,160.6713,232.8713,39360,39360,37415.7294,dc,null,null,null,null,null,null,"[2,1]"
NA,canvas-keyboard-response,326,356683,0.0-6.0-2.53,5016,NA,NA,NA,NA,rectangles,null,null,NA,NA,critical,c,d,t,240,164,160.6713,232.8713,164,240,trueblood,0.05,h,164,240,240,164,160.6713,232.8713,39360,39360,37415.7294,dc,null,null,null,null,null,null,"[2,1]"
NA,canvas-keyboard-response,327,356855,0.0-6.0-3.53,5016,NA,NA,NA,NA,clear_screen,null,null,NA,NA,critical,c,d,t,240,164,160.6713,232.8713,164,240,trueblood,0.05,h,164,240,240,164,160.6713,232.8713,39360,39360,37415.7294,dc,null,null,null,null,null,null,"[2,1]"
NA,canvas-keyboard-response,328,357422,0.0-6.0-4.53,5016,NA,NA,NA,NA,make choice,549,1,NA,NA,critical,c,d,t,240,164,160.6713,232.8713,164,240,trueblood,0.05,h,164,240,240,164,160.6713,232.8713,39360,39360,37415.7294,dc,null,null,null,null,null,null,"[2,1]"
NA,canvas-keyboard-response,329,357591,0.0-6.0-5.53,5016,NA,NA,NA,NA,clear_screen,null,null,NA,NA,critical,c,d,t,240,164,160.6713,232.8713,164,240,trueblood,0.05,h,164,240,240,164,160.6713,232.8713,39360,39360,37415.7294,dc,null,null,null,null,null,null,"[2,1]"
NA,canvas-keyboard-response,330,357807,0.0-6.0-0.54,5016,NA,NA,NA,NA,pre trial waiting period,null,null,NA,NA,catch,l,sw,sh,250,219,197,234,231,175,trueblood,null,null,null,null,null,null,null,null,null,null,null,NA,180,200,260,200,36000,52000,"[1,3]"
NA,canvas-keyboard-response,331,357972,0.0-6.0-1.54,5016,NA,NA,NA,NA,clear_screen,null,null,NA,NA,catch,l,sw,sh,250,219,197,234,231,175,trueblood,null,null,null,null,null,null,null,null,null,null,null,NA,180,200,260,200,36000,52000,"[1,3]"
NA,canvas-keyboard-response,332,359318,0.0-6.0-2.54,5016,NA,NA,NA,NA,rectangles,null,null,NA,NA,catch,l,sw,sh,250,219,197,234,231,175,trueblood,null,null,null,null,null,null,null,null,null,null,null,NA,180,200,260,200,36000,52000,"[1,3]"
NA,canvas-keyboard-response,333,359491,0.0-6.0-3.54,5016,NA,NA,NA,NA,clear_screen,null,null,NA,NA,catch,l,sw,sh,250,219,197,234,231,175,trueblood,null,null,null,null,null,null,null,null,null,null,null,NA,180,200,260,200,36000,52000,"[1,3]"
NA,canvas-keyboard-response,334,360216,0.0-6.0-4.54,5016,NA,NA,NA,NA,make choice,704,1,NA,NA,catch,l,sw,sh,250,219,197,234,231,175,trueblood,null,null,null,null,null,null,null,null,null,null,null,NA,180,200,260,200,36000,52000,"[1,3]"
NA,canvas-keyboard-response,335,360387,0.0-6.0-5.54,5016,NA,NA,NA,NA,clear_screen,null,null,NA,NA,catch,l,sw,sh,250,219,197,234,231,175,trueblood,null,null,null,null,null,null,null,null,null,null,null,NA,180,200,260,200,36000,52000,"[1,3]"
NA,canvas-keyboard-response,336,360603,0.0-6.0-0.55,5016,NA,NA,NA,NA,pre trial waiting period,null,null,NA,NA,critical,c,d,t,164,240,240,164,240,164,spektor,0,w,240,164,164,240,240,164,39360,39360,39360,dc,null,null,null,null,null,null,"[2,1]"
NA,canvas-keyboard-response,337,360763,0.0-6.0-1.55,5016,NA,NA,NA,NA,clear_screen,null,null,NA,NA,critical,c,d,t,164,240,240,164,240,164,spektor,0,w,240,164,164,240,240,164,39360,39360,39360,dc,null,null,null,null,null,null,"[2,1]"
NA,canvas-keyboard-response,338,362108,0.0-6.0-2.55,5016,NA,NA,NA,NA,rectangles,null,null,NA,NA,critical,c,d,t,164,240,240,164,240,164,spektor,0,w,240,164,164,240,240,164,39360,39360,39360,dc,null,null,null,null,null,null,"[2,1]"
NA,canvas-keyboard-response,339,362281,0.0-6.0-3.55,5016,NA,NA,NA,NA,clear_screen,null,null,NA,NA,critical,c,d,t,164,240,240,164,240,164,spektor,0,w,240,164,164,240,240,164,39360,39360,39360,dc,null,null,null,null,null,null,"[2,1]"
NA,canvas-keyboard-response,340,363112,0.0-6.0-4.55,5016,NA,NA,NA,NA,make choice,812,1,NA,NA,critical,c,d,t,164,240,240,164,240,164,spektor,0,w,240,164,164,240,240,164,39360,39360,39360,dc,null,null,null,null,null,null,"[2,1]"
NA,canvas-keyboard-response,341,363284,0.0-6.0-5.55,5016,NA,NA,NA,NA,clear_screen,null,null,NA,NA,critical,c,d,t,164,240,240,164,240,164,spektor,0,w,240,164,164,240,240,164,39360,39360,39360,dc,null,null,null,null,null,null,"[2,1]"
NA,canvas-keyboard-response,342,363502,0.0-6.0-0.56,5016,NA,NA,NA,NA,pre trial waiting period,null,null,NA,NA,critical,c,d,t,240,164,164,240,164,240,spektor,0,h,164,240,240,164,164,240,39360,39360,39360,td,null,null,null,null,null,null,"[3,2]"
NA,canvas-keyboard-response,343,363657,0.0-6.0-1.56,5016,NA,NA,NA,NA,clear_screen,null,null,NA,NA,critical,c,d,t,240,164,164,240,164,240,spektor,0,h,164,240,240,164,164,240,39360,39360,39360,td,null,null,null,null,null,null,"[3,2]"
NA,canvas-keyboard-response,344,365003,0.0-6.0-2.56,5016,NA,NA,NA,NA,rectangles,null,null,NA,NA,critical,c,d,t,240,164,164,240,164,240,spektor,0,h,164,240,240,164,164,240,39360,39360,39360,td,null,null,null,null,null,null,"[3,2]"
NA,canvas-keyboard-response,345,365176,0.0-6.0-3.56,5016,NA,NA,NA,NA,clear_screen,null,null,NA,NA,critical,c,d,t,240,164,164,240,164,240,spektor,0,h,164,240,240,164,164,240,39360,39360,39360,td,null,null,null,null,null,null,"[3,2]"
NA,canvas-keyboard-response,346,366136,0.0-6.0-4.56,5016,NA,NA,NA,NA,make choice,938,3,NA,NA,critical,c,d,t,240,164,164,240,164,240,spektor,0,h,164,240,240,164,164,240,39360,39360,39360,td,null,null,null,null,null,null,"[3,2]"
NA,canvas-keyboard-response,347,366305,0.0-6.0-5.56,5016,NA,NA,NA,NA,clear_screen,null,null,NA,NA,critical,c,d,t,240,164,164,240,164,240,spektor,0,h,164,240,240,164,164,240,39360,39360,39360,td,null,null,null,null,null,null,"[3,2]"
NA,canvas-keyboard-response,348,366523,0.0-6.0-0.57,5016,NA,NA,NA,NA,pre trial waiting period,null,null,NA,NA,critical,t,c,d,164,240,240,164,162.6685,237.1485,spektor,0.02,h,164,240,240,164,162.6685,237.1485,39360,39360,38576.5967,dc,null,null,null,null,null,null,"[3,2]"
NA,canvas-keyboard-response,349,366682,0.0-6.0-1.57,5016,NA,NA,NA,NA,clear_screen,null,null,NA,NA,critical,t,c,d,164,240,240,164,162.6685,237.1485,spektor,0.02,h,164,240,240,164,162.6685,237.1485,39360,39360,38576.5967,dc,null,null,null,null,null,null,"[3,2]"
NA,canvas-keyboard-response,350,368031,0.0-6.0-2.57,5016,NA,NA,NA,NA,rectangles,null,null,NA,NA,critical,t,c,d,164,240,240,164,162.6685,237.1485,spektor,0.02,h,164,240,240,164,162.6685,237.1485,39360,39360,38576.5967,dc,null,null,null,null,null,null,"[3,2]"
NA,canvas-keyboard-response,351,368204,0.0-6.0-3.57,5016,NA,NA,NA,NA,clear_screen,null,null,NA,NA,critical,t,c,d,164,240,240,164,162.6685,237.1485,spektor,0.02,h,164,240,240,164,162.6685,237.1485,39360,39360,38576.5967,dc,null,null,null,null,null,null,"[3,2]"
NA,canvas-keyboard-response,352,369008,0.0-6.0-4.57,5016,NA,NA,NA,NA,make choice,783,3,NA,NA,critical,t,c,d,164,240,240,164,162.6685,237.1485,spektor,0.02,h,164,240,240,164,162.6685,237.1485,39360,39360,38576.5967,dc,null,null,null,null,null,null,"[3,2]"
NA,canvas-keyboard-response,353,369180,0.0-6.0-5.57,5016,NA,NA,NA,NA,clear_screen,null,null,NA,NA,critical,t,c,d,164,240,240,164,162.6685,237.1485,spektor,0.02,h,164,240,240,164,162.6685,237.1485,39360,39360,38576.5967,dc,null,null,null,null,null,null,"[3,2]"
NA,canvas-keyboard-response,354,369397,0.0-6.0-0.58,5016,NA,NA,NA,NA,pre trial waiting period,null,null,NA,NA,critical,t,c,d,240,164,164,240,227.1683,158.0083,trueblood,0.09,w,240,164,164,240,227.1683,158.0083,39360,39360,35894.4834,tc,null,null,null,null,null,null,"[1,2]"
NA,canvas-keyboard-response,355,369556,0.0-6.0-1.58,5016,NA,NA,NA,NA,clear_screen,null,null,NA,NA,critical,t,c,d,240,164,164,240,227.1683,158.0083,trueblood,0.09,w,240,164,164,240,227.1683,158.0083,39360,39360,35894.4834,tc,null,null,null,null,null,null,"[1,2]"
NA,canvas-keyboard-response,356,370902,0.0-6.0-2.58,5016,NA,NA,NA,NA,rectangles,null,null,NA,NA,critical,t,c,d,240,164,164,240,227.1683,158.0083,trueblood,0.09,w,240,164,164,240,227.1683,158.0083,39360,39360,35894.4834,tc,null,null,null,null,null,null,"[1,2]"
NA,canvas-keyboard-response,357,371073,0.0-6.0-3.58,5016,NA,NA,NA,NA,clear_screen,null,null,NA,NA,critical,t,c,d,240,164,164,240,227.1683,158.0083,trueblood,0.09,w,240,164,164,240,227.1683,158.0083,39360,39360,35894.4834,tc,null,null,null,null,null,null,"[1,2]"
NA,canvas-keyboard-response,358,372480,0.0-6.0-4.58,5016,NA,NA,NA,NA,make choice,1386,1,NA,NA,critical,t,c,d,240,164,164,240,227.1683,158.0083,trueblood,0.09,w,240,164,164,240,227.1683,158.0083,39360,39360,35894.4834,tc,null,null,null,null,null,null,"[1,2]"
NA,canvas-keyboard-response,359,372649,0.0-6.0-5.58,5016,NA,NA,NA,NA,clear_screen,null,null,NA,NA,critical,t,c,d,240,164,164,240,227.1683,158.0083,trueblood,0.09,w,240,164,164,240,227.1683,158.0083,39360,39360,35894.4834,tc,null,null,null,null,null,null,"[1,2]"
NA,canvas-keyboard-response,360,372866,0.0-6.0-0.59,5016,NA,NA,NA,NA,pre trial waiting period,null,null,NA,NA,critical,t,d,c,240,164,240,164,164,240,trueblood,0,w,240,164,164,240,240,164,39360,39360,39360,dc,null,null,null,null,null,null,"[2,3]"
NA,canvas-keyboard-response,361,373030,0.0-6.0-1.59,5016,NA,NA,NA,NA,clear_screen,null,null,NA,NA,critical,t,d,c,240,164,240,164,164,240,trueblood,0,w,240,164,164,240,240,164,39360,39360,39360,dc,null,null,null,null,null,null,"[2,3]"
NA,canvas-keyboard-response,362,374376,0.0-6.0-2.59,5016,NA,NA,NA,NA,rectangles,null,null,NA,NA,critical,t,d,c,240,164,240,164,164,240,trueblood,0,w,240,164,164,240,240,164,39360,39360,39360,dc,null,null,null,null,null,null,"[2,3]"
NA,canvas-keyboard-response,363,374549,0.0-6.0-3.59,5016,NA,NA,NA,NA,clear_screen,null,null,NA,NA,critical,t,d,c,240,164,240,164,164,240,trueblood,0,w,240,164,164,240,240,164,39360,39360,39360,dc,null,null,null,null,null,null,"[2,3]"
NA,canvas-keyboard-response,364,375078,0.0-6.0-4.59,5016,NA,NA,NA,NA,make choice,508,2,NA,NA,critical,t,d,c,240,164,240,164,164,240,trueblood,0,w,240,164,164,240,240,164,39360,39360,39360,dc,null,null,null,null,null,null,"[2,3]"
NA,canvas-keyboard-response,365,375249,0.0-6.0-5.59,5016,NA,NA,NA,NA,clear_screen,null,null,NA,NA,critical,t,d,c,240,164,240,164,164,240,trueblood,0,w,240,164,164,240,240,164,39360,39360,39360,dc,null,null,null,null,null,null,"[2,3]"
NA,canvas-keyboard-response,366,375470,0.0-6.0-0.60,5016,NA,NA,NA,NA,pre trial waiting period,null,null,NA,NA,catch,sw,l,sh,180,200,174,265,161,159,trueblood,null,null,null,null,null,null,null,null,null,null,null,NA,180,200,260,200,36000,52000,"[1,2]"
NA,canvas-keyboard-response,367,375629,0.0-6.0-1.60,5016,NA,NA,NA,NA,clear_screen,null,null,NA,NA,catch,sw,l,sh,180,200,174,265,161,159,trueblood,null,null,null,null,null,null,null,null,null,null,null,NA,180,200,260,200,36000,52000,"[1,2]"
NA,canvas-keyboard-response,368,376976,0.0-6.0-2.60,5016,NA,NA,NA,NA,rectangles,null,null,NA,NA,catch,sw,l,sh,180,200,174,265,161,159,trueblood,null,null,null,null,null,null,null,null,null,null,null,NA,180,200,260,200,36000,52000,"[1,2]"
NA,canvas-keyboard-response,369,377147,0.0-6.0-3.60,5016,NA,NA,NA,NA,clear_screen,null,null,NA,NA,catch,sw,l,sh,180,200,174,265,161,159,trueblood,null,null,null,null,null,null,null,null,null,null,null,NA,180,200,260,200,36000,52000,"[1,2]"
NA,canvas-keyboard-response,370,377791,0.0-6.0-4.60,5016,NA,NA,NA,NA,make choice,622,2,NA,NA,catch,sw,l,sh,180,200,174,265,161,159,trueblood,null,null,null,null,null,null,null,null,null,null,null,NA,180,200,260,200,36000,52000,"[1,2]"
NA,canvas-keyboard-response,371,377962,0.0-6.0-5.60,5016,NA,NA,NA,NA,clear_screen,null,null,NA,NA,catch,sw,l,sh,180,200,174,265,161,159,trueblood,null,null,null,null,null,null,null,null,null,null,null,NA,180,200,260,200,36000,52000,"[1,2]"
NA,canvas-keyboard-response,372,378182,0.0-6.0-0.61,5016,NA,NA,NA,NA,pre trial waiting period,null,null,NA,NA,catch,sw,l,sh,180,200,233,239,185,186,spektor,null,null,null,null,null,null,null,null,null,null,null,NA,180,200,260,200,36000,52000,"[1,2]"
NA,canvas-keyboard-response,373,378343,0.0-6.0-1.61,5016,NA,NA,NA,NA,clear_screen,null,null,NA,NA,catch,sw,l,sh,180,200,233,239,185,186,spektor,null,null,null,null,null,null,null,null,null,null,null,NA,180,200,260,200,36000,52000,"[1,2]"
NA,canvas-keyboard-response,374,379693,0.0-6.0-2.61,5016,NA,NA,NA,NA,rectangles,null,null,NA,NA,catch,sw,l,sh,180,200,233,239,185,186,spektor,null,null,null,null,null,null,null,null,null,null,null,NA,180,200,260,200,36000,52000,"[1,2]"
NA,canvas-keyboard-response,375,379865,0.0-6.0-3.61,5016,NA,NA,NA,NA,clear_screen,null,null,NA,NA,catch,sw,l,sh,180,200,233,239,185,186,spektor,null,null,null,null,null,null,null,null,null,null,null,NA,180,200,260,200,36000,52000,"[1,2]"
NA,canvas-keyboard-response,376,380625,0.0-6.0-4.61,5016,NA,NA,NA,NA,make choice,738,2,NA,NA,catch,sw,l,sh,180,200,233,239,185,186,spektor,null,null,null,null,null,null,null,null,null,null,null,NA,180,200,260,200,36000,52000,"[1,2]"
NA,canvas-keyboard-response,377,380794,0.0-6.0-5.61,5016,NA,NA,NA,NA,clear_screen,null,null,NA,NA,catch,sw,l,sh,180,200,233,239,185,186,spektor,null,null,null,null,null,null,null,null,null,null,null,NA,180,200,260,200,36000,52000,"[1,2]"
NA,canvas-keyboard-response,378,381011,0.0-6.0-0.62,5016,NA,NA,NA,NA,pre trial waiting period,null,null,NA,NA,critical,d,t,c,240,164,240,164,164,240,spektor,0,w,240,164,164,240,240,164,39360,39360,39360,td,null,null,null,null,null,null,"[2,1]"
NA,canvas-keyboard-response,379,381172,0.0-6.0-1.62,5016,NA,NA,NA,NA,clear_screen,null,null,NA,NA,critical,d,t,c,240,164,240,164,164,240,spektor,0,w,240,164,164,240,240,164,39360,39360,39360,td,null,null,null,null,null,null,"[2,1]"
NA,canvas-keyboard-response,380,382520,0.0-6.0-2.62,5016,NA,NA,NA,NA,rectangles,null,null,NA,NA,critical,d,t,c,240,164,240,164,164,240,spektor,0,w,240,164,164,240,240,164,39360,39360,39360,td,null,null,null,null,null,null,"[2,1]"
NA,canvas-keyboard-response,381,382692,0.0-6.0-3.62,5016,NA,NA,NA,NA,clear_screen,null,null,NA,NA,critical,d,t,c,240,164,240,164,164,240,spektor,0,w,240,164,164,240,240,164,39360,39360,39360,td,null,null,null,null,null,null,"[2,1]"
NA,canvas-keyboard-response,382,383880,0.0-6.0-4.62,5016,NA,NA,NA,NA,make choice,1167,2,NA,NA,critical,d,t,c,240,164,240,164,164,240,spektor,0,w,240,164,164,240,240,164,39360,39360,39360,td,null,null,null,null,null,null,"[2,1]"
NA,canvas-keyboard-response,383,384053,0.0-6.0-5.62,5016,NA,NA,NA,NA,clear_screen,null,null,NA,NA,critical,d,t,c,240,164,240,164,164,240,spektor,0,w,240,164,164,240,240,164,39360,39360,39360,td,null,null,null,null,null,null,"[2,1]"
NA,canvas-keyboard-response,384,384278,0.0-6.0-0.63,5016,NA,NA,NA,NA,pre trial waiting period,null,null,NA,NA,critical,c,d,t,164,240,227.1683,158.0083,240,164,spektor,0.09,w,240,164,164,240,227.1683,158.0083,39360,39360,35894.4834,td,null,null,null,null,null,null,"[3,2]"
NA,canvas-keyboard-response,385,384433,0.0-6.0-1.63,5016,NA,NA,NA,NA,clear_screen,null,null,NA,NA,critical,c,d,t,164,240,227.1683,158.0083,240,164,spektor,0.09,w,240,164,164,240,227.1683,158.0083,39360,39360,35894.4834,td,null,null,null,null,null,null,"[3,2]"
NA,canvas-keyboard-response,386,385782,0.0-6.0-2.63,5016,NA,NA,NA,NA,rectangles,null,null,NA,NA,critical,c,d,t,164,240,227.1683,158.0083,240,164,spektor,0.09,w,240,164,164,240,227.1683,158.0083,39360,39360,35894.4834,td,null,null,null,null,null,null,"[3,2]"
NA,canvas-keyboard-response,387,385953,0.0-6.0-3.63,5016,NA,NA,NA,NA,clear_screen,null,null,NA,NA,critical,c,d,t,164,240,227.1683,158.0083,240,164,spektor,0.09,w,240,164,164,240,227.1683,158.0083,39360,39360,35894.4834,td,null,null,null,null,null,null,"[3,2]"
NA,canvas-keyboard-response,388,386960,0.0-6.0-4.63,5016,NA,NA,NA,NA,make choice,982,2,NA,NA,critical,c,d,t,164,240,227.1683,158.0083,240,164,spektor,0.09,w,240,164,164,240,227.1683,158.0083,39360,39360,35894.4834,td,null,null,null,null,null,null,"[3,2]"
NA,canvas-keyboard-response,389,387130,0.0-6.0-5.63,5016,NA,NA,NA,NA,clear_screen,null,null,NA,NA,critical,c,d,t,164,240,227.1683,158.0083,240,164,spektor,0.09,w,240,164,164,240,227.1683,158.0083,39360,39360,35894.4834,td,null,null,null,null,null,null,"[3,2]"
NA,canvas-keyboard-response,390,387349,0.0-6.0-0.64,5016,NA,NA,NA,NA,pre trial waiting period,null,null,NA,NA,critical,d,t,c,160.6713,232.8713,164,240,240,164,spektor,0.05,h,164,240,240,164,160.6713,232.8713,39360,39360,37415.7294,tc,null,null,null,null,null,null,"[2,3]"
NA,canvas-keyboard-response,391,387510,0.0-6.0-1.64,5016,NA,NA,NA,NA,clear_screen,null,null,NA,NA,critical,d,t,c,160.6713,232.8713,164,240,240,164,spektor,0.05,h,164,240,240,164,160.6713,232.8713,39360,39360,37415.7294,tc,null,null,null,null,null,null,"[2,3]"
NA,canvas-keyboard-response,392,388859,0.0-6.0-2.64,5016,NA,NA,NA,NA,rectangles,null,null,NA,NA,critical,d,t,c,160.6713,232.8713,164,240,240,164,spektor,0.05,h,164,240,240,164,160.6713,232.8713,39360,39360,37415.7294,tc,null,null,null,null,null,null,"[2,3]"
NA,canvas-keyboard-response,393,389033,0.0-6.0-3.64,5016,NA,NA,NA,NA,clear_screen,null,null,NA,NA,critical,d,t,c,160.6713,232.8713,164,240,240,164,spektor,0.05,h,164,240,240,164,160.6713,232.8713,39360,39360,37415.7294,tc,null,null,null,null,null,null,"[2,3]"
NA,canvas-keyboard-response,394,390992,0.0-6.0-4.64,5016,NA,NA,NA,NA,make choice,1937,2,NA,NA,critical,d,t,c,160.6713,232.8713,164,240,240,164,spektor,0.05,h,164,240,240,164,160.6713,232.8713,39360,39360,37415.7294,tc,null,null,null,null,null,null,"[2,3]"
NA,canvas-keyboard-response,395,391163,0.0-6.0-5.64,5016,NA,NA,NA,NA,clear_screen,null,null,NA,NA,critical,d,t,c,160.6713,232.8713,164,240,240,164,spektor,0.05,h,164,240,240,164,160.6713,232.8713,39360,39360,37415.7294,tc,null,null,null,null,null,null,"[2,3]"
NA,canvas-keyboard-response,396,391382,0.0-6.0-0.65,5016,NA,NA,NA,NA,pre trial waiting period,null,null,NA,NA,catch,l,sh,sw,293,199,188,179,184,196,spektor,null,null,null,null,null,null,null,null,null,null,null,NA,180,200,260,200,36000,52000,"[1,2]"
NA,canvas-keyboard-response,397,391542,0.0-6.0-1.65,5016,NA,NA,NA,NA,clear_screen,null,null,NA,NA,catch,l,sh,sw,293,199,188,179,184,196,spektor,null,null,null,null,null,null,null,null,null,null,null,NA,180,200,260,200,36000,52000,"[1,2]"
NA,canvas-keyboard-response,398,392889,0.0-6.0-2.65,5016,NA,NA,NA,NA,rectangles,null,null,NA,NA,catch,l,sh,sw,293,199,188,179,184,196,spektor,null,null,null,null,null,null,null,null,null,null,null,NA,180,200,260,200,36000,52000,"[1,2]"
NA,canvas-keyboard-response,399,393062,0.0-6.0-3.65,5016,NA,NA,NA,NA,clear_screen,null,null,NA,NA,catch,l,sh,sw,293,199,188,179,184,196,spektor,null,null,null,null,null,null,null,null,null,null,null,NA,180,200,260,200,36000,52000,"[1,2]"
