success,trial_type,trial_index,time_elapsed,internal_node_id,sub_n,timeout,failed_images,failed_audio,failed_video,screen_id,rt,response,stimulus,view_history,trial,r1,r2,r3,w1,h1,w2,h2,w3,h3,display,tdd,tdo,tw,th,cw,ch,dw,dh,ta,ca,da,probe,csls,csss,clls,clss,sa,la,probe_rects
TRUE,fullscreen,0,2344,0.0-0.0,63,,,,,,,,,,,,,,,,,,,,,,,,,,,,,,,,,,,,,,,
TRUE,preload,1,2369,0.0-1.0,63,FALSE,[],[],[],img preload,,,,,,,,,,,,,,,,,,,,,,,,,,,,,,,,,,
,survey-html-form,2,24787,0.0-2.0,63,,,,,enter-sub-number,22407,"{""response"":""46""}",,,,,,,,,,,,,,,,,,,,,,,,,,,,,,,,
,image-button-response,3,31195,0.0-3.0,63,,,,,,6305,0,consent.png,,,,,,,,,,,,,,,,,,,,,,,,,,,,,,,
,html-button-response,4,35370,0.0-4.0,63,,,,,intro mssg,4171,0,"<div style= ""font-size:25px;"" <p> <strong> Welcome! </strong><br> <p style=""color:#8B0000; font-size:25px;""><strong> Please do NOT exit full screen until you are done with the experiment. </strong> </p><p style=""font-size:25px;color:#8B0000;""> <strong> Your data will be lost <br> if you try to go back or refresh the page after the experiment starts. Feel free to click ""previous"" during the instructions, however.</strong> </p><br><p> <strong> Thanks in advance for your contribution to our research! </strong></p>",,,,,,,,,,,,,,,,,,,,,,,,,,,,,,,
,instructions,5,75115,0.0-5.0,63,,,,,instructions,39741,,,"[{""page_index"":0,""viewing_time"":6302},{""page_index"":1,""viewing_time"":6374},{""page_index"":2,""viewing_time"":3489},{""page_index"":3,""viewing_time"":11912},{""page_index"":4,""viewing_time"":5415},{""page_index"":5,""viewing_time"":2485},{""page_index"":6,""viewing_time"":2444},{""page_index"":7,""viewing_time"":1320}]",,,,,,,,,,,,,,,,,,,,,,,,,,,,,,
,canvas-keyboard-response,6,75321,0.0-6.0-0.0,63,,,,,pre trial waiting period,null,null,,,critical,d,t,c,160.6713,232.8713,164,240,240,164,trueblood,0.05,h,164,240,240,164,160.6713,232.8713,39360,39360,37415.7294,td,null,null,null,null,null,null,"[2,1]"
,canvas-keyboard-response,7,75485,0.0-6.0-1.0,63,,,,,clear_screen,null,null,,,critical,d,t,c,160.6713,232.8713,164,240,240,164,trueblood,0.05,h,164,240,240,164,160.6713,232.8713,39360,39360,37415.7294,td,null,null,null,null,null,null,"[2,1]"
,canvas-keyboard-response,8,76822,0.0-6.0-2.0,63,,,,,rectangles,null,null,,,critical,d,t,c,160.6713,232.8713,164,240,240,164,trueblood,0.05,h,164,240,240,164,160.6713,232.8713,39360,39360,37415.7294,td,null,null,null,null,null,null,"[2,1]"
,canvas-keyboard-response,9,76982,0.0-6.0-3.0,63,,,,,clear_screen,null,null,,,critical,d,t,c,160.6713,232.8713,164,240,240,164,trueblood,0.05,h,164,240,240,164,160.6713,232.8713,39360,39360,37415.7294,td,null,null,null,null,null,null,"[2,1]"
,canvas-keyboard-response,10,80064,0.0-6.0-4.0,63,,,,,make choice,3070,2,,,critical,d,t,c,160.6713,232.8713,164,240,240,164,trueblood,0.05,h,164,240,240,164,160.6713,232.8713,39360,39360,37415.7294,td,null,null,null,null,null,null,"[2,1]"
,canvas-keyboard-response,11,80223,0.0-6.0-5.0,63,,,,,clear_screen,null,null,,,critical,d,t,c,160.6713,232.8713,164,240,240,164,trueblood,0.05,h,164,240,240,164,160.6713,232.8713,39360,39360,37415.7294,td,null,null,null,null,null,null,"[2,1]"
,canvas-keyboard-response,12,80424,0.0-6.0-0.1,63,,,,,pre trial waiting period,null,null,,,catch,sw,l,sh,180,200,237,237,239,205,trueblood,null,null,null,null,null,null,null,null,null,null,null,,180,200,260,200,36000,52000,"[1,2]"
,canvas-keyboard-response,13,80585,0.0-6.0-1.1,63,,,,,clear_screen,null,null,,,catch,sw,l,sh,180,200,237,237,239,205,trueblood,null,null,null,null,null,null,null,null,null,null,null,,180,200,260,200,36000,52000,"[1,2]"
,canvas-keyboard-response,14,81921,0.0-6.0-2.1,63,,,,,rectangles,null,null,,,catch,sw,l,sh,180,200,237,237,239,205,trueblood,null,null,null,null,null,null,null,null,null,null,null,,180,200,260,200,36000,52000,"[1,2]"
,canvas-keyboard-response,15,82080,0.0-6.0-3.1,63,,,,,clear_screen,null,null,,,catch,sw,l,sh,180,200,237,237,239,205,trueblood,null,null,null,null,null,null,null,null,null,null,null,,180,200,260,200,36000,52000,"[1,2]"
,canvas-keyboard-response,16,83696,0.0-6.0-4.1,63,,,,,make choice,1607,2,,,catch,sw,l,sh,180,200,237,237,239,205,trueblood,null,null,null,null,null,null,null,null,null,null,null,,180,200,260,200,36000,52000,"[1,2]"
,canvas-keyboard-response,17,83855,0.0-6.0-5.1,63,,,,,clear_screen,null,null,,,catch,sw,l,sh,180,200,237,237,239,205,trueblood,null,null,null,null,null,null,null,null,null,null,null,,180,200,260,200,36000,52000,"[1,2]"
,canvas-keyboard-response,18,84057,0.0-6.0-0.2,63,,,,,pre trial waiting period,null,null,,,critical,t,d,c,164,240,162.6685,237.1485,240,164,spektor,0.02,h,164,240,240,164,162.6685,237.1485,39360,39360,38576.5967,dc,null,null,null,null,null,null,"[2,3]"
,canvas-keyboard-response,19,84217,0.0-6.0-1.2,63,,,,,clear_screen,null,null,,,critical,t,d,c,164,240,162.6685,237.1485,240,164,spektor,0.02,h,164,240,240,164,162.6685,237.1485,39360,39360,38576.5967,dc,null,null,null,null,null,null,"[2,3]"
,canvas-keyboard-response,20,85556,0.0-6.0-2.2,63,,,,,rectangles,null,null,,,critical,t,d,c,164,240,162.6685,237.1485,240,164,spektor,0.02,h,164,240,240,164,162.6685,237.1485,39360,39360,38576.5967,dc,null,null,null,null,null,null,"[2,3]"
,canvas-keyboard-response,21,85715,0.0-6.0-3.2,63,,,,,clear_screen,null,null,,,critical,t,d,c,164,240,162.6685,237.1485,240,164,spektor,0.02,h,164,240,240,164,162.6685,237.1485,39360,39360,38576.5967,dc,null,null,null,null,null,null,"[2,3]"
,canvas-keyboard-response,22,87312,0.0-6.0-4.2,63,,,,,make choice,1587,2,,,critical,t,d,c,164,240,162.6685,237.1485,240,164,spektor,0.02,h,164,240,240,164,162.6685,237.1485,39360,39360,38576.5967,dc,null,null,null,null,null,null,"[2,3]"
,canvas-keyboard-response,23,87470,0.0-6.0-5.2,63,,,,,clear_screen,null,null,,,critical,t,d,c,164,240,162.6685,237.1485,240,164,spektor,0.02,h,164,240,240,164,162.6685,237.1485,39360,39360,38576.5967,dc,null,null,null,null,null,null,"[2,3]"
,canvas-keyboard-response,24,87671,0.0-6.0-0.3,63,,,,,pre trial waiting period,null,null,,,critical,c,t,d,164,240,240,164,227.1683,158.0083,trueblood,0.09,w,240,164,164,240,227.1683,158.0083,39360,39360,35894.4834,td,null,null,null,null,null,null,"[2,3]"
,canvas-keyboard-response,25,87831,0.0-6.0-1.3,63,,,,,clear_screen,null,null,,,critical,c,t,d,164,240,240,164,227.1683,158.0083,trueblood,0.09,w,240,164,164,240,227.1683,158.0083,39360,39360,35894.4834,td,null,null,null,null,null,null,"[2,3]"
,canvas-keyboard-response,26,89167,0.0-6.0-2.3,63,,,,,rectangles,null,null,,,critical,c,t,d,164,240,240,164,227.1683,158.0083,trueblood,0.09,w,240,164,164,240,227.1683,158.0083,39360,39360,35894.4834,td,null,null,null,null,null,null,"[2,3]"
,canvas-keyboard-response,27,89327,0.0-6.0-3.3,63,,,,,clear_screen,null,null,,,critical,c,t,d,164,240,240,164,227.1683,158.0083,trueblood,0.09,w,240,164,164,240,227.1683,158.0083,39360,39360,35894.4834,td,null,null,null,null,null,null,"[2,3]"
,canvas-keyboard-response,28,90416,0.0-6.0-4.3,63,,,,,make choice,1080,2,,,critical,c,t,d,164,240,240,164,227.1683,158.0083,trueblood,0.09,w,240,164,164,240,227.1683,158.0083,39360,39360,35894.4834,td,null,null,null,null,null,null,"[2,3]"
,canvas-keyboard-response,29,90573,0.0-6.0-5.3,63,,,,,clear_screen,null,null,,,critical,c,t,d,164,240,240,164,227.1683,158.0083,trueblood,0.09,w,240,164,164,240,227.1683,158.0083,39360,39360,35894.4834,td,null,null,null,null,null,null,"[2,3]"
,canvas-keyboard-response,30,90775,0.0-6.0-0.4,63,,,,,pre trial waiting period,null,null,,,critical,t,c,d,164,240,240,164,164,240,spektor,0,h,164,240,240,164,164,240,39360,39360,39360,dc,null,null,null,null,null,null,"[3,2]"
,canvas-keyboard-response,31,90939,0.0-6.0-1.4,63,,,,,clear_screen,null,null,,,critical,t,c,d,164,240,240,164,164,240,spektor,0,h,164,240,240,164,164,240,39360,39360,39360,dc,null,null,null,null,null,null,"[3,2]"
,canvas-keyboard-response,32,92275,0.0-6.0-2.4,63,,,,,rectangles,null,null,,,critical,t,c,d,164,240,240,164,164,240,spektor,0,h,164,240,240,164,164,240,39360,39360,39360,dc,null,null,null,null,null,null,"[3,2]"
,canvas-keyboard-response,33,92433,0.0-6.0-3.4,63,,,,,clear_screen,null,null,,,critical,t,c,d,164,240,240,164,164,240,spektor,0,h,164,240,240,164,164,240,39360,39360,39360,dc,null,null,null,null,null,null,"[3,2]"
,canvas-keyboard-response,34,94335,0.0-6.0-4.4,63,,,,,make choice,1894,2,,,critical,t,c,d,164,240,240,164,164,240,spektor,0,h,164,240,240,164,164,240,39360,39360,39360,dc,null,null,null,null,null,null,"[3,2]"
,canvas-keyboard-response,35,94494,0.0-6.0-5.4,63,,,,,clear_screen,null,null,,,critical,t,c,d,164,240,240,164,164,240,spektor,0,h,164,240,240,164,164,240,39360,39360,39360,dc,null,null,null,null,null,null,"[3,2]"
,canvas-keyboard-response,36,94695,0.0-6.0-0.5,63,,,,,pre trial waiting period,null,null,,,critical,d,t,c,232.8713,160.6713,240,164,164,240,spektor,0.05,w,240,164,164,240,232.8713,160.6713,39360,39360,37415.7294,tc,null,null,null,null,null,null,"[2,3]"
,canvas-keyboard-response,37,94854,0.0-6.0-1.5,63,,,,,clear_screen,null,null,,,critical,d,t,c,232.8713,160.6713,240,164,164,240,spektor,0.05,w,240,164,164,240,232.8713,160.6713,39360,39360,37415.7294,tc,null,null,null,null,null,null,"[2,3]"
,canvas-keyboard-response,38,96189,0.0-6.0-2.5,63,,,,,rectangles,null,null,,,critical,d,t,c,232.8713,160.6713,240,164,164,240,spektor,0.05,w,240,164,164,240,232.8713,160.6713,39360,39360,37415.7294,tc,null,null,null,null,null,null,"[2,3]"
,canvas-keyboard-response,39,96348,0.0-6.0-3.5,63,,,,,clear_screen,null,null,,,critical,d,t,c,232.8713,160.6713,240,164,164,240,spektor,0.05,w,240,164,164,240,232.8713,160.6713,39360,39360,37415.7294,tc,null,null,null,null,null,null,"[2,3]"
,canvas-keyboard-response,40,97016,0.0-6.0-4.5,63,,,,,make choice,659,3,,,critical,d,t,c,232.8713,160.6713,240,164,164,240,spektor,0.05,w,240,164,164,240,232.8713,160.6713,39360,39360,37415.7294,tc,null,null,null,null,null,null,"[2,3]"
,canvas-keyboard-response,41,97174,0.0-6.0-5.5,63,,,,,clear_screen,null,null,,,critical,d,t,c,232.8713,160.6713,240,164,164,240,spektor,0.05,w,240,164,164,240,232.8713,160.6713,39360,39360,37415.7294,tc,null,null,null,null,null,null,"[2,3]"
,canvas-keyboard-response,42,97376,0.0-6.0-0.6,63,,,,,pre trial waiting period,null,null,,,catch,sw,sh,l,180,200,178,171,241,237,trueblood,null,null,null,null,null,null,null,null,null,null,null,,180,200,260,200,36000,52000,"[1,3]"
,canvas-keyboard-response,43,97534,0.0-6.0-1.6,63,,,,,clear_screen,null,null,,,catch,sw,sh,l,180,200,178,171,241,237,trueblood,null,null,null,null,null,null,null,null,null,null,null,,180,200,260,200,36000,52000,"[1,3]"
,canvas-keyboard-response,44,98871,0.0-6.0-2.6,63,,,,,rectangles,null,null,,,catch,sw,sh,l,180,200,178,171,241,237,trueblood,null,null,null,null,null,null,null,null,null,null,null,,180,200,260,200,36000,52000,"[1,3]"
,canvas-keyboard-response,45,99029,0.0-6.0-3.6,63,,,,,clear_screen,null,null,,,catch,sw,sh,l,180,200,178,171,241,237,trueblood,null,null,null,null,null,null,null,null,null,null,null,,180,200,260,200,36000,52000,"[1,3]"
,canvas-keyboard-response,46,100120,0.0-6.0-4.6,63,,,,,make choice,1082,3,,,catch,sw,sh,l,180,200,178,171,241,237,trueblood,null,null,null,null,null,null,null,null,null,null,null,,180,200,260,200,36000,52000,"[1,3]"
,canvas-keyboard-response,47,100279,0.0-6.0-5.6,63,,,,,clear_screen,null,null,,,catch,sw,sh,l,180,200,178,171,241,237,trueblood,null,null,null,null,null,null,null,null,null,null,null,,180,200,260,200,36000,52000,"[1,3]"
,canvas-keyboard-response,48,100479,0.0-6.0-0.7,63,,,,,pre trial waiting period,null,null,,,critical,t,d,c,240,164,227.1683,158.0083,164,240,spektor,0.09,w,240,164,164,240,227.1683,158.0083,39360,39360,35894.4834,tc,null,null,null,null,null,null,"[1,3]"
,canvas-keyboard-response,49,100638,0.0-6.0-1.7,63,,,,,clear_screen,null,null,,,critical,t,d,c,240,164,227.1683,158.0083,164,240,spektor,0.09,w,240,164,164,240,227.1683,158.0083,39360,39360,35894.4834,tc,null,null,null,null,null,null,"[1,3]"
,canvas-keyboard-response,50,101973,0.0-6.0-2.7,63,,,,,rectangles,null,null,,,critical,t,d,c,240,164,227.1683,158.0083,164,240,spektor,0.09,w,240,164,164,240,227.1683,158.0083,39360,39360,35894.4834,tc,null,null,null,null,null,null,"[1,3]"
,canvas-keyboard-response,51,102132,0.0-6.0-3.7,63,,,,,clear_screen,null,null,,,critical,t,d,c,240,164,227.1683,158.0083,164,240,spektor,0.09,w,240,164,164,240,227.1683,158.0083,39360,39360,35894.4834,tc,null,null,null,null,null,null,"[1,3]"
,canvas-keyboard-response,52,102911,0.0-6.0-4.7,63,,,,,make choice,771,3,,,critical,t,d,c,240,164,227.1683,158.0083,164,240,spektor,0.09,w,240,164,164,240,227.1683,158.0083,39360,39360,35894.4834,tc,null,null,null,null,null,null,"[1,3]"
,canvas-keyboard-response,53,103070,0.0-6.0-5.7,63,,,,,clear_screen,null,null,,,critical,t,d,c,240,164,227.1683,158.0083,164,240,spektor,0.09,w,240,164,164,240,227.1683,158.0083,39360,39360,35894.4834,tc,null,null,null,null,null,null,"[1,3]"
,canvas-keyboard-response,54,103272,0.0-6.0-0.8,63,,,,,pre trial waiting period,null,null,,,catch,sw,sh,l,180,200,239,153,200,277,spektor,null,null,null,null,null,null,null,null,null,null,null,,180,200,260,200,36000,52000,"[2,3]"
,canvas-keyboard-response,55,103430,0.0-6.0-1.8,63,,,,,clear_screen,null,null,,,catch,sw,sh,l,180,200,239,153,200,277,spektor,null,null,null,null,null,null,null,null,null,null,null,,180,200,260,200,36000,52000,"[2,3]"
,canvas-keyboard-response,56,104765,0.0-6.0-2.8,63,,,,,rectangles,null,null,,,catch,sw,sh,l,180,200,239,153,200,277,spektor,null,null,null,null,null,null,null,null,null,null,null,,180,200,260,200,36000,52000,"[2,3]"
,canvas-keyboard-response,57,104926,0.0-6.0-3.8,63,,,,,clear_screen,null,null,,,catch,sw,sh,l,180,200,239,153,200,277,spektor,null,null,null,null,null,null,null,null,null,null,null,,180,200,260,200,36000,52000,"[2,3]"
,canvas-keyboard-response,58,106040,0.0-6.0-4.8,63,,,,,make choice,1104,3,,,catch,sw,sh,l,180,200,239,153,200,277,spektor,null,null,null,null,null,null,null,null,null,null,null,,180,200,260,200,36000,52000,"[2,3]"
,canvas-keyboard-response,59,106199,0.0-6.0-5.8,63,,,,,clear_screen,null,null,,,catch,sw,sh,l,180,200,239,153,200,277,spektor,null,null,null,null,null,null,null,null,null,null,null,,180,200,260,200,36000,52000,"[2,3]"
,canvas-keyboard-response,60,106400,0.0-6.0-0.9,63,,,,,pre trial waiting period,null,null,,,critical,d,t,c,162.6685,237.1485,164,240,240,164,trueblood,0.02,h,164,240,240,164,162.6685,237.1485,39360,39360,38576.5967,dc,null,null,null,null,null,null,"[1,3]"
,canvas-keyboard-response,61,106558,0.0-6.0-1.9,63,,,,,clear_screen,null,null,,,critical,d,t,c,162.6685,237.1485,164,240,240,164,trueblood,0.02,h,164,240,240,164,162.6685,237.1485,39360,39360,38576.5967,dc,null,null,null,null,null,null,"[1,3]"
,canvas-keyboard-response,62,107893,0.0-6.0-2.9,63,,,,,rectangles,null,null,,,critical,d,t,c,162.6685,237.1485,164,240,240,164,trueblood,0.02,h,164,240,240,164,162.6685,237.1485,39360,39360,38576.5967,dc,null,null,null,null,null,null,"[1,3]"
,canvas-keyboard-response,63,108052,0.0-6.0-3.9,63,,,,,clear_screen,null,null,,,critical,d,t,c,162.6685,237.1485,164,240,240,164,trueblood,0.02,h,164,240,240,164,162.6685,237.1485,39360,39360,38576.5967,dc,null,null,null,null,null,null,"[1,3]"
,canvas-keyboard-response,64,109672,0.0-6.0-4.9,63,,,,,make choice,1611,3,,,critical,d,t,c,162.6685,237.1485,164,240,240,164,trueblood,0.02,h,164,240,240,164,162.6685,237.1485,39360,39360,38576.5967,dc,null,null,null,null,null,null,"[1,3]"
,canvas-keyboard-response,65,109830,0.0-6.0-5.9,63,,,,,clear_screen,null,null,,,critical,d,t,c,162.6685,237.1485,164,240,240,164,trueblood,0.02,h,164,240,240,164,162.6685,237.1485,39360,39360,38576.5967,dc,null,null,null,null,null,null,"[1,3]"
,canvas-keyboard-response,66,110031,0.0-6.0-0.10,63,,,,,pre trial waiting period,null,null,,,critical,t,d,c,240,164,220.0396,154.6796,164,240,trueblood,0.14,w,240,164,164,240,220.0396,154.6796,39360,39360,34035.6388,dc,null,null,null,null,null,null,"[2,3]"
,canvas-keyboard-response,67,110191,0.0-6.0-1.10,63,,,,,clear_screen,null,null,,,critical,t,d,c,240,164,220.0396,154.6796,164,240,trueblood,0.14,w,240,164,164,240,220.0396,154.6796,39360,39360,34035.6388,dc,null,null,null,null,null,null,"[2,3]"
,canvas-keyboard-response,68,111526,0.0-6.0-2.10,63,,,,,rectangles,null,null,,,critical,t,d,c,240,164,220.0396,154.6796,164,240,trueblood,0.14,w,240,164,164,240,220.0396,154.6796,39360,39360,34035.6388,dc,null,null,null,null,null,null,"[2,3]"
,canvas-keyboard-response,69,111685,0.0-6.0-3.10,63,,,,,clear_screen,null,null,,,critical,t,d,c,240,164,220.0396,154.6796,164,240,trueblood,0.14,w,240,164,164,240,220.0396,154.6796,39360,39360,34035.6388,dc,null,null,null,null,null,null,"[2,3]"
,canvas-keyboard-response,70,113233,0.0-6.0-4.10,63,,,,,make choice,1539,2,,,critical,t,d,c,240,164,220.0396,154.6796,164,240,trueblood,0.14,w,240,164,164,240,220.0396,154.6796,39360,39360,34035.6388,dc,null,null,null,null,null,null,"[2,3]"
,canvas-keyboard-response,71,113393,0.0-6.0-5.10,63,,,,,clear_screen,null,null,,,critical,t,d,c,240,164,220.0396,154.6796,164,240,trueblood,0.14,w,240,164,164,240,220.0396,154.6796,39360,39360,34035.6388,dc,null,null,null,null,null,null,"[2,3]"
,canvas-keyboard-response,72,113596,0.0-6.0-0.11,63,,,,,pre trial waiting period,null,null,,,critical,c,t,d,240,164,164,240,160.6713,232.8713,trueblood,0.05,h,164,240,240,164,160.6713,232.8713,39360,39360,37415.7294,dc,null,null,null,null,null,null,"[3,1]"
,canvas-keyboard-response,73,113756,0.0-6.0-1.11,63,,,,,clear_screen,null,null,,,critical,c,t,d,240,164,164,240,160.6713,232.8713,trueblood,0.05,h,164,240,240,164,160.6713,232.8713,39360,39360,37415.7294,dc,null,null,null,null,null,null,"[3,1]"
,canvas-keyboard-response,74,115093,0.0-6.0-2.11,63,,,,,rectangles,null,null,,,critical,c,t,d,240,164,164,240,160.6713,232.8713,trueblood,0.05,h,164,240,240,164,160.6713,232.8713,39360,39360,37415.7294,dc,null,null,null,null,null,null,"[3,1]"
,canvas-keyboard-response,75,115252,0.0-6.0-3.11,63,,,,,clear_screen,null,null,,,critical,c,t,d,240,164,164,240,160.6713,232.8713,trueblood,0.05,h,164,240,240,164,160.6713,232.8713,39360,39360,37415.7294,dc,null,null,null,null,null,null,"[3,1]"
,canvas-keyboard-response,76,116992,0.0-6.0-4.11,63,,,,,make choice,1731,1,,,critical,c,t,d,240,164,164,240,160.6713,232.8713,trueblood,0.05,h,164,240,240,164,160.6713,232.8713,39360,39360,37415.7294,dc,null,null,null,null,null,null,"[3,1]"
,canvas-keyboard-response,77,117153,0.0-6.0-5.11,63,,,,,clear_screen,null,null,,,critical,c,t,d,240,164,164,240,160.6713,232.8713,trueblood,0.05,h,164,240,240,164,160.6713,232.8713,39360,39360,37415.7294,dc,null,null,null,null,null,null,"[3,1]"
,canvas-keyboard-response,78,117353,0.0-6.0-0.12,63,,,,,pre trial waiting period,null,null,,,catch,sw,sh,l,180,200,194,199,252,182,trueblood,null,null,null,null,null,null,null,null,null,null,null,,180,200,260,200,36000,52000,"[2,3]"
,canvas-keyboard-response,79,117513,0.0-6.0-1.12,63,,,,,clear_screen,null,null,,,catch,sw,sh,l,180,200,194,199,252,182,trueblood,null,null,null,null,null,null,null,null,null,null,null,,180,200,260,200,36000,52000,"[2,3]"
,canvas-keyboard-response,80,118849,0.0-6.0-2.12,63,,,,,rectangles,null,null,,,catch,sw,sh,l,180,200,194,199,252,182,trueblood,null,null,null,null,null,null,null,null,null,null,null,,180,200,260,200,36000,52000,"[2,3]"
,canvas-keyboard-response,81,119008,0.0-6.0-3.12,63,,,,,clear_screen,null,null,,,catch,sw,sh,l,180,200,194,199,252,182,trueblood,null,null,null,null,null,null,null,null,null,null,null,,180,200,260,200,36000,52000,"[2,3]"
,canvas-keyboard-response,82,119959,0.0-6.0-4.12,63,,,,,make choice,943,3,,,catch,sw,sh,l,180,200,194,199,252,182,trueblood,null,null,null,null,null,null,null,null,null,null,null,,180,200,260,200,36000,52000,"[2,3]"
,canvas-keyboard-response,83,120119,0.0-6.0-5.12,63,,,,,clear_screen,null,null,,,catch,sw,sh,l,180,200,194,199,252,182,trueblood,null,null,null,null,null,null,null,null,null,null,null,,180,200,260,200,36000,52000,"[2,3]"
,canvas-keyboard-response,84,120320,0.0-6.0-0.13,63,,,,,pre trial waiting period,null,null,,,critical,d,c,t,237.1485,162.6685,164,240,240,164,trueblood,0.02,w,240,164,164,240,237.1485,162.6685,39360,39360,38576.5967,dc,null,null,null,null,null,null,"[1,2]"
,canvas-keyboard-response,85,120479,0.0-6.0-1.13,63,,,,,clear_screen,null,null,,,critical,d,c,t,237.1485,162.6685,164,240,240,164,trueblood,0.02,w,240,164,164,240,237.1485,162.6685,39360,39360,38576.5967,dc,null,null,null,null,null,null,"[1,2]"
,canvas-keyboard-response,86,121815,0.0-6.0-2.13,63,,,,,rectangles,null,null,,,critical,d,c,t,237.1485,162.6685,164,240,240,164,trueblood,0.02,w,240,164,164,240,237.1485,162.6685,39360,39360,38576.5967,dc,null,null,null,null,null,null,"[1,2]"
,canvas-keyboard-response,87,121974,0.0-6.0-3.13,63,,,,,clear_screen,null,null,,,critical,d,c,t,237.1485,162.6685,164,240,240,164,trueblood,0.02,w,240,164,164,240,237.1485,162.6685,39360,39360,38576.5967,dc,null,null,null,null,null,null,"[1,2]"
,canvas-keyboard-response,88,124303,0.0-6.0-4.13,63,,,,,make choice,2321,1,,,critical,d,c,t,237.1485,162.6685,164,240,240,164,trueblood,0.02,w,240,164,164,240,237.1485,162.6685,39360,39360,38576.5967,dc,null,null,null,null,null,null,"[1,2]"
,canvas-keyboard-response,89,124462,0.0-6.0-5.13,63,,,,,clear_screen,null,null,,,critical,d,c,t,237.1485,162.6685,164,240,240,164,trueblood,0.02,w,240,164,164,240,237.1485,162.6685,39360,39360,38576.5967,dc,null,null,null,null,null,null,"[1,2]"
,canvas-keyboard-response,90,124663,0.0-6.0-0.14,63,,,,,pre trial waiting period,null,null,,,critical,d,t,c,232.8713,160.6713,240,164,164,240,spektor,0.05,w,240,164,164,240,232.8713,160.6713,39360,39360,37415.7294,td,null,null,null,null,null,null,"[2,1]"
,canvas-keyboard-response,91,124823,0.0-6.0-1.14,63,,,,,clear_screen,null,null,,,critical,d,t,c,232.8713,160.6713,240,164,164,240,spektor,0.05,w,240,164,164,240,232.8713,160.6713,39360,39360,37415.7294,td,null,null,null,null,null,null,"[2,1]"
,canvas-keyboard-response,92,126160,0.0-6.0-2.14,63,,,,,rectangles,null,null,,,critical,d,t,c,232.8713,160.6713,240,164,164,240,spektor,0.05,w,240,164,164,240,232.8713,160.6713,39360,39360,37415.7294,td,null,null,null,null,null,null,"[2,1]"
,canvas-keyboard-response,93,126318,0.0-6.0-3.14,63,,,,,clear_screen,null,null,,,critical,d,t,c,232.8713,160.6713,240,164,164,240,spektor,0.05,w,240,164,164,240,232.8713,160.6713,39360,39360,37415.7294,td,null,null,null,null,null,null,"[2,1]"
,canvas-keyboard-response,94,127880,0.0-6.0-4.14,63,,,,,make choice,1554,2,,,critical,d,t,c,232.8713,160.6713,240,164,164,240,spektor,0.05,w,240,164,164,240,232.8713,160.6713,39360,39360,37415.7294,td,null,null,null,null,null,null,"[2,1]"
,canvas-keyboard-response,95,128037,0.0-6.0-5.14,63,,,,,clear_screen,null,null,,,critical,d,t,c,232.8713,160.6713,240,164,164,240,spektor,0.05,w,240,164,164,240,232.8713,160.6713,39360,39360,37415.7294,td,null,null,null,null,null,null,"[2,1]"
,canvas-keyboard-response,96,128238,0.0-6.0-0.15,63,,,,,pre trial waiting period,null,null,,,critical,t,d,c,240,164,227.1683,158.0083,164,240,trueblood,0.09,w,240,164,164,240,227.1683,158.0083,39360,39360,35894.4834,dc,null,null,null,null,null,null,"[2,3]"
,canvas-keyboard-response,97,128398,0.0-6.0-1.15,63,,,,,clear_screen,null,null,,,critical,t,d,c,240,164,227.1683,158.0083,164,240,trueblood,0.09,w,240,164,164,240,227.1683,158.0083,39360,39360,35894.4834,dc,null,null,null,null,null,null,"[2,3]"
,canvas-keyboard-response,98,129734,0.0-6.0-2.15,63,,,,,rectangles,null,null,,,critical,t,d,c,240,164,227.1683,158.0083,164,240,trueblood,0.09,w,240,164,164,240,227.1683,158.0083,39360,39360,35894.4834,dc,null,null,null,null,null,null,"[2,3]"
,canvas-keyboard-response,99,129892,0.0-6.0-3.15,63,,,,,clear_screen,null,null,,,critical,t,d,c,240,164,227.1683,158.0083,164,240,trueblood,0.09,w,240,164,164,240,227.1683,158.0083,39360,39360,35894.4834,dc,null,null,null,null,null,null,"[2,3]"
,canvas-keyboard-response,100,131143,0.0-6.0-4.15,63,,,,,make choice,1243,2,,,critical,t,d,c,240,164,227.1683,158.0083,164,240,trueblood,0.09,w,240,164,164,240,227.1683,158.0083,39360,39360,35894.4834,dc,null,null,null,null,null,null,"[2,3]"
,canvas-keyboard-response,101,131301,0.0-6.0-5.15,63,,,,,clear_screen,null,null,,,critical,t,d,c,240,164,227.1683,158.0083,164,240,trueblood,0.09,w,240,164,164,240,227.1683,158.0083,39360,39360,35894.4834,dc,null,null,null,null,null,null,"[2,3]"
,canvas-keyboard-response,102,131503,0.0-6.0-0.16,63,,,,,pre trial waiting period,null,null,,,critical,t,c,d,164,240,240,164,154.6796,220.0396,trueblood,0.14,h,164,240,240,164,154.6796,220.0396,39360,39360,34035.6388,dc,null,null,null,null,null,null,"[3,2]"
,canvas-keyboard-response,103,131662,0.0-6.0-1.16,63,,,,,clear_screen,null,null,,,critical,t,c,d,164,240,240,164,154.6796,220.0396,trueblood,0.14,h,164,240,240,164,154.6796,220.0396,39360,39360,34035.6388,dc,null,null,null,null,null,null,"[3,2]"
,canvas-keyboard-response,104,132998,0.0-6.0-2.16,63,,,,,rectangles,null,null,,,critical,t,c,d,164,240,240,164,154.6796,220.0396,trueblood,0.14,h,164,240,240,164,154.6796,220.0396,39360,39360,34035.6388,dc,null,null,null,null,null,null,"[3,2]"
,canvas-keyboard-response,105,133156,0.0-6.0-3.16,63,,,,,clear_screen,null,null,,,critical,t,c,d,164,240,240,164,154.6796,220.0396,trueblood,0.14,h,164,240,240,164,154.6796,220.0396,39360,39360,34035.6388,dc,null,null,null,null,null,null,"[3,2]"
,canvas-keyboard-response,106,133871,0.0-6.0-4.16,63,,,,,make choice,707,2,,,critical,t,c,d,164,240,240,164,154.6796,220.0396,trueblood,0.14,h,164,240,240,164,154.6796,220.0396,39360,39360,34035.6388,dc,null,null,null,null,null,null,"[3,2]"
,canvas-keyboard-response,107,134030,0.0-6.0-5.16,63,,,,,clear_screen,null,null,,,critical,t,c,d,164,240,240,164,154.6796,220.0396,trueblood,0.14,h,164,240,240,164,154.6796,220.0396,39360,39360,34035.6388,dc,null,null,null,null,null,null,"[3,2]"
,canvas-keyboard-response,108,134232,0.0-6.0-0.17,63,,,,,pre trial waiting period,null,null,,,catch,sh,l,sw,175,168,191,222,215,194,trueblood,null,null,null,null,null,null,null,null,null,null,null,,180,200,260,200,36000,52000,"[1,2]"
,canvas-keyboard-response,109,134391,0.0-6.0-1.17,63,,,,,clear_screen,null,null,,,catch,sh,l,sw,175,168,191,222,215,194,trueblood,null,null,null,null,null,null,null,null,null,null,null,,180,200,260,200,36000,52000,"[1,2]"
,canvas-keyboard-response,110,135727,0.0-6.0-2.17,63,,,,,rectangles,null,null,,,catch,sh,l,sw,175,168,191,222,215,194,trueblood,null,null,null,null,null,null,null,null,null,null,null,,180,200,260,200,36000,52000,"[1,2]"
,canvas-keyboard-response,111,135885,0.0-6.0-3.17,63,,,,,clear_screen,null,null,,,catch,sh,l,sw,175,168,191,222,215,194,trueblood,null,null,null,null,null,null,null,null,null,null,null,,180,200,260,200,36000,52000,"[1,2]"
,canvas-keyboard-response,112,137143,0.0-6.0-4.17,63,,,,,make choice,1250,2,,,catch,sh,l,sw,175,168,191,222,215,194,trueblood,null,null,null,null,null,null,null,null,null,null,null,,180,200,260,200,36000,52000,"[1,2]"
,canvas-keyboard-response,113,137302,0.0-6.0-5.17,63,,,,,clear_screen,null,null,,,catch,sh,l,sw,175,168,191,222,215,194,trueblood,null,null,null,null,null,null,null,null,null,null,null,,180,200,260,200,36000,52000,"[1,2]"
,canvas-keyboard-response,114,137503,0.0-6.0-0.18,63,,,,,pre trial waiting period,null,null,,,critical,d,t,c,154.6796,220.0396,164,240,240,164,spektor,0.14,h,164,240,240,164,154.6796,220.0396,39360,39360,34035.6388,td,null,null,null,null,null,null,"[2,1]"
,canvas-keyboard-response,115,137662,0.0-6.0-1.18,63,,,,,clear_screen,null,null,,,critical,d,t,c,154.6796,220.0396,164,240,240,164,spektor,0.14,h,164,240,240,164,154.6796,220.0396,39360,39360,34035.6388,td,null,null,null,null,null,null,"[2,1]"
,canvas-keyboard-response,116,138997,0.0-6.0-2.18,63,,,,,rectangles,null,null,,,critical,d,t,c,154.6796,220.0396,164,240,240,164,spektor,0.14,h,164,240,240,164,154.6796,220.0396,39360,39360,34035.6388,td,null,null,null,null,null,null,"[2,1]"
,canvas-keyboard-response,117,139155,0.0-6.0-3.18,63,,,,,clear_screen,null,null,,,critical,d,t,c,154.6796,220.0396,164,240,240,164,spektor,0.14,h,164,240,240,164,154.6796,220.0396,39360,39360,34035.6388,td,null,null,null,null,null,null,"[2,1]"
,canvas-keyboard-response,118,141192,0.0-6.0-4.18,63,,,,,make choice,2028,2,,,critical,d,t,c,154.6796,220.0396,164,240,240,164,spektor,0.14,h,164,240,240,164,154.6796,220.0396,39360,39360,34035.6388,td,null,null,null,null,null,null,"[2,1]"
,canvas-keyboard-response,119,141350,0.0-6.0-5.18,63,,,,,clear_screen,null,null,,,critical,d,t,c,154.6796,220.0396,164,240,240,164,spektor,0.14,h,164,240,240,164,154.6796,220.0396,39360,39360,34035.6388,td,null,null,null,null,null,null,"[2,1]"
,canvas-keyboard-response,120,141552,0.0-6.0-0.19,63,,,,,pre trial waiting period,null,null,,,catch,sh,sw,l,227,188,177,187,183,252,trueblood,null,null,null,null,null,null,null,null,null,null,null,,180,200,260,200,36000,52000,"[2,3]"
,canvas-keyboard-response,121,141710,0.0-6.0-1.19,63,,,,,clear_screen,null,null,,,catch,sh,sw,l,227,188,177,187,183,252,trueblood,null,null,null,null,null,null,null,null,null,null,null,,180,200,260,200,36000,52000,"[2,3]"
,canvas-keyboard-response,122,143046,0.0-6.0-2.19,63,,,,,rectangles,null,null,,,catch,sh,sw,l,227,188,177,187,183,252,trueblood,null,null,null,null,null,null,null,null,null,null,null,,180,200,260,200,36000,52000,"[2,3]"
,canvas-keyboard-response,123,143206,0.0-6.0-3.19,63,,,,,clear_screen,null,null,,,catch,sh,sw,l,227,188,177,187,183,252,trueblood,null,null,null,null,null,null,null,null,null,null,null,,180,200,260,200,36000,52000,"[2,3]"
,canvas-keyboard-response,124,143871,0.0-6.0-4.19,63,,,,,make choice,656,3,,,catch,sh,sw,l,227,188,177,187,183,252,trueblood,null,null,null,null,null,null,null,null,null,null,null,,180,200,260,200,36000,52000,"[2,3]"
,canvas-keyboard-response,125,144032,0.0-6.0-5.19,63,,,,,clear_screen,null,null,,,catch,sh,sw,l,227,188,177,187,183,252,trueblood,null,null,null,null,null,null,null,null,null,null,null,,180,200,260,200,36000,52000,"[2,3]"
,canvas-keyboard-response,126,144234,0.0-6.0-0.20,63,,,,,pre trial waiting period,null,null,,,critical,c,d,t,164,240,240,164,240,164,trueblood,0,w,240,164,164,240,240,164,39360,39360,39360,dc,null,null,null,null,null,null,"[2,1]"
,canvas-keyboard-response,127,144395,0.0-6.0-1.20,63,,,,,clear_screen,null,null,,,critical,c,d,t,164,240,240,164,240,164,trueblood,0,w,240,164,164,240,240,164,39360,39360,39360,dc,null,null,null,null,null,null,"[2,1]"
,canvas-keyboard-response,128,145731,0.0-6.0-2.20,63,,,,,rectangles,null,null,,,critical,c,d,t,164,240,240,164,240,164,trueblood,0,w,240,164,164,240,240,164,39360,39360,39360,dc,null,null,null,null,null,null,"[2,1]"
,canvas-keyboard-response,129,145891,0.0-6.0-3.20,63,,,,,clear_screen,null,null,,,critical,c,d,t,164,240,240,164,240,164,trueblood,0,w,240,164,164,240,240,164,39360,39360,39360,dc,null,null,null,null,null,null,"[2,1]"
,canvas-keyboard-response,130,146824,0.0-6.0-4.20,63,,,,,make choice,924,1,,,critical,c,d,t,164,240,240,164,240,164,trueblood,0,w,240,164,164,240,240,164,39360,39360,39360,dc,null,null,null,null,null,null,"[2,1]"
,canvas-keyboard-response,131,146983,0.0-6.0-5.20,63,,,,,clear_screen,null,null,,,critical,c,d,t,164,240,240,164,240,164,trueblood,0,w,240,164,164,240,240,164,39360,39360,39360,dc,null,null,null,null,null,null,"[2,1]"
,canvas-keyboard-response,132,147185,0.0-6.0-0.21,63,,,,,pre trial waiting period,null,null,,,critical,c,t,d,240,164,164,240,164,240,trueblood,0,h,164,240,240,164,164,240,39360,39360,39360,td,null,null,null,null,null,null,"[2,3]"
,canvas-keyboard-response,133,147345,0.0-6.0-1.21,63,,,,,clear_screen,null,null,,,critical,c,t,d,240,164,164,240,164,240,trueblood,0,h,164,240,240,164,164,240,39360,39360,39360,td,null,null,null,null,null,null,"[2,3]"
,canvas-keyboard-response,134,148682,0.0-6.0-2.21,63,,,,,rectangles,null,null,,,critical,c,t,d,240,164,164,240,164,240,trueblood,0,h,164,240,240,164,164,240,39360,39360,39360,td,null,null,null,null,null,null,"[2,3]"
,canvas-keyboard-response,135,148841,0.0-6.0-3.21,63,,,,,clear_screen,null,null,,,critical,c,t,d,240,164,164,240,164,240,trueblood,0,h,164,240,240,164,164,240,39360,39360,39360,td,null,null,null,null,null,null,"[2,3]"
,canvas-keyboard-response,136,149719,0.0-6.0-4.21,63,,,,,make choice,869,2,,,critical,c,t,d,240,164,164,240,164,240,trueblood,0,h,164,240,240,164,164,240,39360,39360,39360,td,null,null,null,null,null,null,"[2,3]"
,canvas-keyboard-response,137,149882,0.0-6.0-5.21,63,,,,,clear_screen,null,null,,,critical,c,t,d,240,164,164,240,164,240,trueblood,0,h,164,240,240,164,164,240,39360,39360,39360,td,null,null,null,null,null,null,"[2,3]"
,canvas-keyboard-response,138,150083,0.0-6.0-0.22,63,,,,,pre trial waiting period,null,null,,,critical,c,d,t,164,240,232.8713,160.6713,240,164,trueblood,0.05,w,240,164,164,240,232.8713,160.6713,39360,39360,37415.7294,tc,null,null,null,null,null,null,"[3,1]"
,canvas-keyboard-response,139,150242,0.0-6.0-1.22,63,,,,,clear_screen,null,null,,,critical,c,d,t,164,240,232.8713,160.6713,240,164,trueblood,0.05,w,240,164,164,240,232.8713,160.6713,39360,39360,37415.7294,tc,null,null,null,null,null,null,"[3,1]"
,canvas-keyboard-response,140,151577,0.0-6.0-2.22,63,,,,,rectangles,null,null,,,critical,c,d,t,164,240,232.8713,160.6713,240,164,trueblood,0.05,w,240,164,164,240,232.8713,160.6713,39360,39360,37415.7294,tc,null,null,null,null,null,null,"[3,1]"
,canvas-keyboard-response,141,151736,0.0-6.0-3.22,63,,,,,clear_screen,null,null,,,critical,c,d,t,164,240,232.8713,160.6713,240,164,trueblood,0.05,w,240,164,164,240,232.8713,160.6713,39360,39360,37415.7294,tc,null,null,null,null,null,null,"[3,1]"
,canvas-keyboard-response,142,153408,0.0-6.0-4.22,63,,,,,make choice,1662,3,,,critical,c,d,t,164,240,232.8713,160.6713,240,164,trueblood,0.05,w,240,164,164,240,232.8713,160.6713,39360,39360,37415.7294,tc,null,null,null,null,null,null,"[3,1]"
,canvas-keyboard-response,143,153566,0.0-6.0-5.22,63,,,,,clear_screen,null,null,,,critical,c,d,t,164,240,232.8713,160.6713,240,164,trueblood,0.05,w,240,164,164,240,232.8713,160.6713,39360,39360,37415.7294,tc,null,null,null,null,null,null,"[3,1]"
,canvas-keyboard-response,144,153768,0.0-6.0-0.23,63,,,,,pre trial waiting period,null,null,,,critical,t,c,d,164,240,240,164,160.6713,232.8713,trueblood,0.05,h,164,240,240,164,160.6713,232.8713,39360,39360,37415.7294,tc,null,null,null,null,null,null,"[1,2]"
,canvas-keyboard-response,145,153929,0.0-6.0-1.23,63,,,,,clear_screen,null,null,,,critical,t,c,d,164,240,240,164,160.6713,232.8713,trueblood,0.05,h,164,240,240,164,160.6713,232.8713,39360,39360,37415.7294,tc,null,null,null,null,null,null,"[1,2]"
,canvas-keyboard-response,146,155264,0.0-6.0-2.23,63,,,,,rectangles,null,null,,,critical,t,c,d,164,240,240,164,160.6713,232.8713,trueblood,0.05,h,164,240,240,164,160.6713,232.8713,39360,39360,37415.7294,tc,null,null,null,null,null,null,"[1,2]"
,canvas-keyboard-response,147,155423,0.0-6.0-3.23,63,,,,,clear_screen,null,null,,,critical,t,c,d,164,240,240,164,160.6713,232.8713,trueblood,0.05,h,164,240,240,164,160.6713,232.8713,39360,39360,37415.7294,tc,null,null,null,null,null,null,"[1,2]"
,canvas-keyboard-response,148,156111,0.0-6.0-4.23,63,,,,,make choice,679,2,,,critical,t,c,d,164,240,240,164,160.6713,232.8713,trueblood,0.05,h,164,240,240,164,160.6713,232.8713,39360,39360,37415.7294,tc,null,null,null,null,null,null,"[1,2]"
,canvas-keyboard-response,149,156269,0.0-6.0-5.23,63,,,,,clear_screen,null,null,,,critical,t,c,d,164,240,240,164,160.6713,232.8713,trueblood,0.05,h,164,240,240,164,160.6713,232.8713,39360,39360,37415.7294,tc,null,null,null,null,null,null,"[1,2]"
,canvas-keyboard-response,150,156470,0.0-6.0-0.24,63,,,,,pre trial waiting period,null,null,,,critical,t,c,d,164,240,240,164,162.6685,237.1485,trueblood,0.02,h,164,240,240,164,162.6685,237.1485,39360,39360,38576.5967,td,null,null,null,null,null,null,"[1,3]"
,canvas-keyboard-response,151,156629,0.0-6.0-1.24,63,,,,,clear_screen,null,null,,,critical,t,c,d,164,240,240,164,162.6685,237.1485,trueblood,0.02,h,164,240,240,164,162.6685,237.1485,39360,39360,38576.5967,td,null,null,null,null,null,null,"[1,3]"
,canvas-keyboard-response,152,157964,0.0-6.0-2.24,63,,,,,rectangles,null,null,,,critical,t,c,d,164,240,240,164,162.6685,237.1485,trueblood,0.02,h,164,240,240,164,162.6685,237.1485,39360,39360,38576.5967,td,null,null,null,null,null,null,"[1,3]"
,canvas-keyboard-response,153,158123,0.0-6.0-3.24,63,,,,,clear_screen,null,null,,,critical,t,c,d,164,240,240,164,162.6685,237.1485,trueblood,0.02,h,164,240,240,164,162.6685,237.1485,39360,39360,38576.5967,td,null,null,null,null,null,null,"[1,3]"
,canvas-keyboard-response,154,160327,0.0-6.0-4.24,63,,,,,make choice,2196,3,,,critical,t,c,d,164,240,240,164,162.6685,237.1485,trueblood,0.02,h,164,240,240,164,162.6685,237.1485,39360,39360,38576.5967,td,null,null,null,null,null,null,"[1,3]"
,canvas-keyboard-response,155,160486,0.0-6.0-5.24,63,,,,,clear_screen,null,null,,,critical,t,c,d,164,240,240,164,162.6685,237.1485,trueblood,0.02,h,164,240,240,164,162.6685,237.1485,39360,39360,38576.5967,td,null,null,null,null,null,null,"[1,3]"
,canvas-keyboard-response,156,160686,0.0-6.0-0.25,63,,,,,pre trial waiting period,null,null,,,critical,c,t,d,164,240,240,164,237.1485,162.6685,spektor,0.02,w,240,164,164,240,237.1485,162.6685,39360,39360,38576.5967,dc,null,null,null,null,null,null,"[3,1]"
,canvas-keyboard-response,157,160846,0.0-6.0-1.25,63,,,,,clear_screen,null,null,,,critical,c,t,d,164,240,240,164,237.1485,162.6685,spektor,0.02,w,240,164,164,240,237.1485,162.6685,39360,39360,38576.5967,dc,null,null,null,null,null,null,"[3,1]"
,canvas-keyboard-response,158,162182,0.0-6.0-2.25,63,,,,,rectangles,null,null,,,critical,c,t,d,164,240,240,164,237.1485,162.6685,spektor,0.02,w,240,164,164,240,237.1485,162.6685,39360,39360,38576.5967,dc,null,null,null,null,null,null,"[3,1]"
,canvas-keyboard-response,159,162341,0.0-6.0-3.25,63,,,,,clear_screen,null,null,,,critical,c,t,d,164,240,240,164,237.1485,162.6685,spektor,0.02,w,240,164,164,240,237.1485,162.6685,39360,39360,38576.5967,dc,null,null,null,null,null,null,"[3,1]"
,canvas-keyboard-response,160,163423,0.0-6.0-4.25,63,,,,,make choice,1074,1,,,critical,c,t,d,164,240,240,164,237.1485,162.6685,spektor,0.02,w,240,164,164,240,237.1485,162.6685,39360,39360,38576.5967,dc,null,null,null,null,null,null,"[3,1]"
,canvas-keyboard-response,161,163584,0.0-6.0-5.25,63,,,,,clear_screen,null,null,,,critical,c,t,d,164,240,240,164,237.1485,162.6685,spektor,0.02,w,240,164,164,240,237.1485,162.6685,39360,39360,38576.5967,dc,null,null,null,null,null,null,"[3,1]"
,canvas-keyboard-response,162,163786,0.0-6.0-0.26,63,,,,,pre trial waiting period,null,null,,,critical,d,c,t,162.6685,237.1485,240,164,164,240,spektor,0.02,h,164,240,240,164,162.6685,237.1485,39360,39360,38576.5967,td,null,null,null,null,null,null,"[3,1]"
,canvas-keyboard-response,163,163945,0.0-6.0-1.26,63,,,,,clear_screen,null,null,,,critical,d,c,t,162.6685,237.1485,240,164,164,240,spektor,0.02,h,164,240,240,164,162.6685,237.1485,39360,39360,38576.5967,td,null,null,null,null,null,null,"[3,1]"
,canvas-keyboard-response,164,165280,0.0-6.0-2.26,63,,,,,rectangles,null,null,,,critical,d,c,t,162.6685,237.1485,240,164,164,240,spektor,0.02,h,164,240,240,164,162.6685,237.1485,39360,39360,38576.5967,td,null,null,null,null,null,null,"[3,1]"
,canvas-keyboard-response,165,165438,0.0-6.0-3.26,63,,,,,clear_screen,null,null,,,critical,d,c,t,162.6685,237.1485,240,164,164,240,spektor,0.02,h,164,240,240,164,162.6685,237.1485,39360,39360,38576.5967,td,null,null,null,null,null,null,"[3,1]"
,canvas-keyboard-response,166,166463,0.0-6.0-4.26,63,,,,,make choice,1017,1,,,critical,d,c,t,162.6685,237.1485,240,164,164,240,spektor,0.02,h,164,240,240,164,162.6685,237.1485,39360,39360,38576.5967,td,null,null,null,null,null,null,"[3,1]"
,canvas-keyboard-response,167,166622,0.0-6.0-5.26,63,,,,,clear_screen,null,null,,,critical,d,c,t,162.6685,237.1485,240,164,164,240,spektor,0.02,h,164,240,240,164,162.6685,237.1485,39360,39360,38576.5967,td,null,null,null,null,null,null,"[3,1]"
,canvas-keyboard-response,168,166822,0.0-6.0-0.27,63,,,,,pre trial waiting period,null,null,,,critical,d,t,c,240,164,240,164,164,240,spektor,0,w,240,164,164,240,240,164,39360,39360,39360,td,null,null,null,null,null,null,"[2,1]"
,canvas-keyboard-response,169,166982,0.0-6.0-1.27,63,,,,,clear_screen,null,null,,,critical,d,t,c,240,164,240,164,164,240,spektor,0,w,240,164,164,240,240,164,39360,39360,39360,td,null,null,null,null,null,null,"[2,1]"
,canvas-keyboard-response,170,168317,0.0-6.0-2.27,63,,,,,rectangles,null,null,,,critical,d,t,c,240,164,240,164,164,240,spektor,0,w,240,164,164,240,240,164,39360,39360,39360,td,null,null,null,null,null,null,"[2,1]"
,canvas-keyboard-response,171,168475,0.0-6.0-3.27,63,,,,,clear_screen,null,null,,,critical,d,t,c,240,164,240,164,164,240,spektor,0,w,240,164,164,240,240,164,39360,39360,39360,td,null,null,null,null,null,null,"[2,1]"
,canvas-keyboard-response,172,170128,0.0-6.0-4.27,63,,,,,make choice,1645,2,,,critical,d,t,c,240,164,240,164,164,240,spektor,0,w,240,164,164,240,240,164,39360,39360,39360,td,null,null,null,null,null,null,"[2,1]"
,canvas-keyboard-response,173,170287,0.0-6.0-5.27,63,,,,,clear_screen,null,null,,,critical,d,t,c,240,164,240,164,164,240,spektor,0,w,240,164,164,240,240,164,39360,39360,39360,td,null,null,null,null,null,null,"[2,1]"
,canvas-keyboard-response,174,170488,0.0-6.0-0.28,63,,,,,pre trial waiting period,null,null,,,critical,d,t,c,227.1683,158.0083,240,164,164,240,trueblood,0.09,w,240,164,164,240,227.1683,158.0083,39360,39360,35894.4834,tc,null,null,null,null,null,null,"[2,3]"
,canvas-keyboard-response,175,170647,0.0-6.0-1.28,63,,,,,clear_screen,null,null,,,critical,d,t,c,227.1683,158.0083,240,164,164,240,trueblood,0.09,w,240,164,164,240,227.1683,158.0083,39360,39360,35894.4834,tc,null,null,null,null,null,null,"[2,3]"
,canvas-keyboard-response,176,171984,0.0-6.0-2.28,63,,,,,rectangles,null,null,,,critical,d,t,c,227.1683,158.0083,240,164,164,240,trueblood,0.09,w,240,164,164,240,227.1683,158.0083,39360,39360,35894.4834,tc,null,null,null,null,null,null,"[2,3]"
,canvas-keyboard-response,177,172142,0.0-6.0-3.28,63,,,,,clear_screen,null,null,,,critical,d,t,c,227.1683,158.0083,240,164,164,240,trueblood,0.09,w,240,164,164,240,227.1683,158.0083,39360,39360,35894.4834,tc,null,null,null,null,null,null,"[2,3]"
,canvas-keyboard-response,178,173200,0.0-6.0-4.28,63,,,,,make choice,1048,2,,,critical,d,t,c,227.1683,158.0083,240,164,164,240,trueblood,0.09,w,240,164,164,240,227.1683,158.0083,39360,39360,35894.4834,tc,null,null,null,null,null,null,"[2,3]"
,canvas-keyboard-response,179,173357,0.0-6.0-5.28,63,,,,,clear_screen,null,null,,,critical,d,t,c,227.1683,158.0083,240,164,164,240,trueblood,0.09,w,240,164,164,240,227.1683,158.0083,39360,39360,35894.4834,tc,null,null,null,null,null,null,"[2,3]"
,canvas-keyboard-response,180,173558,0.0-6.0-0.29,63,,,,,pre trial waiting period,null,null,,,critical,t,d,c,240,164,232.8713,160.6713,164,240,trueblood,0.05,w,240,164,164,240,232.8713,160.6713,39360,39360,37415.7294,td,null,null,null,null,null,null,"[1,2]"
,canvas-keyboard-response,181,173718,0.0-6.0-1.29,63,,,,,clear_screen,null,null,,,critical,t,d,c,240,164,232.8713,160.6713,164,240,trueblood,0.05,w,240,164,164,240,232.8713,160.6713,39360,39360,37415.7294,td,null,null,null,null,null,null,"[1,2]"
,canvas-keyboard-response,182,175053,0.0-6.0-2.29,63,,,,,rectangles,null,null,,,critical,t,d,c,240,164,232.8713,160.6713,164,240,trueblood,0.05,w,240,164,164,240,232.8713,160.6713,39360,39360,37415.7294,td,null,null,null,null,null,null,"[1,2]"
,canvas-keyboard-response,183,175212,0.0-6.0-3.29,63,,,,,clear_screen,null,null,,,critical,t,d,c,240,164,232.8713,160.6713,164,240,trueblood,0.05,w,240,164,164,240,232.8713,160.6713,39360,39360,37415.7294,td,null,null,null,null,null,null,"[1,2]"
,canvas-keyboard-response,184,175815,0.0-6.0-4.29,63,,,,,make choice,596,1,,,critical,t,d,c,240,164,232.8713,160.6713,164,240,trueblood,0.05,w,240,164,164,240,232.8713,160.6713,39360,39360,37415.7294,td,null,null,null,null,null,null,"[1,2]"
,canvas-keyboard-response,185,175974,0.0-6.0-5.29,63,,,,,clear_screen,null,null,,,critical,t,d,c,240,164,232.8713,160.6713,164,240,trueblood,0.05,w,240,164,164,240,232.8713,160.6713,39360,39360,37415.7294,td,null,null,null,null,null,null,"[1,2]"
,canvas-keyboard-response,186,176175,0.0-6.0-0.30,63,,,,,pre trial waiting period,null,null,,,catch,sw,sh,l,180,200,188,195,217,231,trueblood,null,null,null,null,null,null,null,null,null,null,null,,180,200,260,200,36000,52000,"[2,3]"
,canvas-keyboard-response,187,176334,0.0-6.0-1.30,63,,,,,clear_screen,null,null,,,catch,sw,sh,l,180,200,188,195,217,231,trueblood,null,null,null,null,null,null,null,null,null,null,null,,180,200,260,200,36000,52000,"[2,3]"
,canvas-keyboard-response,188,177673,0.0-6.0-2.30,63,,,,,rectangles,null,null,,,catch,sw,sh,l,180,200,188,195,217,231,trueblood,null,null,null,null,null,null,null,null,null,null,null,,180,200,260,200,36000,52000,"[2,3]"
,canvas-keyboard-response,189,177832,0.0-6.0-3.30,63,,,,,clear_screen,null,null,,,catch,sw,sh,l,180,200,188,195,217,231,trueblood,null,null,null,null,null,null,null,null,null,null,null,,180,200,260,200,36000,52000,"[2,3]"
,canvas-keyboard-response,190,178831,0.0-6.0-4.30,63,,,,,make choice,989,3,,,catch,sw,sh,l,180,200,188,195,217,231,trueblood,null,null,null,null,null,null,null,null,null,null,null,,180,200,260,200,36000,52000,"[2,3]"
,canvas-keyboard-response,191,178989,0.0-6.0-5.30,63,,,,,clear_screen,null,null,,,catch,sw,sh,l,180,200,188,195,217,231,trueblood,null,null,null,null,null,null,null,null,null,null,null,,180,200,260,200,36000,52000,"[2,3]"
,canvas-keyboard-response,192,179190,0.0-6.0-0.31,63,,,,,pre trial waiting period,null,null,,,catch,sw,sh,l,180,200,174,169,262,196,trueblood,null,null,null,null,null,null,null,null,null,null,null,,180,200,260,200,36000,52000,"[2,3]"
,canvas-keyboard-response,193,179349,0.0-6.0-1.31,63,,,,,clear_screen,null,null,,,catch,sw,sh,l,180,200,174,169,262,196,trueblood,null,null,null,null,null,null,null,null,null,null,null,,180,200,260,200,36000,52000,"[2,3]"
,canvas-keyboard-response,194,180684,0.0-6.0-2.31,63,,,,,rectangles,null,null,,,catch,sw,sh,l,180,200,174,169,262,196,trueblood,null,null,null,null,null,null,null,null,null,null,null,,180,200,260,200,36000,52000,"[2,3]"
,canvas-keyboard-response,195,180843,0.0-6.0-3.31,63,,,,,clear_screen,null,null,,,catch,sw,sh,l,180,200,174,169,262,196,trueblood,null,null,null,null,null,null,null,null,null,null,null,,180,200,260,200,36000,52000,"[2,3]"
,canvas-keyboard-response,196,181319,0.0-6.0-4.31,63,,,,,make choice,467,3,,,catch,sw,sh,l,180,200,174,169,262,196,trueblood,null,null,null,null,null,null,null,null,null,null,null,,180,200,260,200,36000,52000,"[2,3]"
,canvas-keyboard-response,197,181477,0.0-6.0-5.31,63,,,,,clear_screen,null,null,,,catch,sw,sh,l,180,200,174,169,262,196,trueblood,null,null,null,null,null,null,null,null,null,null,null,,180,200,260,200,36000,52000,"[2,3]"
,canvas-keyboard-response,198,181678,0.0-6.0-0.32,63,,,,,pre trial waiting period,null,null,,,critical,c,d,t,240,164,158.0083,227.1683,164,240,spektor,0.09,h,164,240,240,164,158.0083,227.1683,39360,39360,35894.4834,td,null,null,null,null,null,null,"[3,2]"
,canvas-keyboard-response,199,181837,0.0-6.0-1.32,63,,,,,clear_screen,null,null,,,critical,c,d,t,240,164,158.0083,227.1683,164,240,spektor,0.09,h,164,240,240,164,158.0083,227.1683,39360,39360,35894.4834,td,null,null,null,null,null,null,"[3,2]"
,canvas-keyboard-response,200,183173,0.0-6.0-2.32,63,,,,,rectangles,null,null,,,critical,c,d,t,240,164,158.0083,227.1683,164,240,spektor,0.09,h,164,240,240,164,158.0083,227.1683,39360,39360,35894.4834,td,null,null,null,null,null,null,"[3,2]"
,canvas-keyboard-response,201,183332,0.0-6.0-3.32,63,,,,,clear_screen,null,null,,,critical,c,d,t,240,164,158.0083,227.1683,164,240,spektor,0.09,h,164,240,240,164,158.0083,227.1683,39360,39360,35894.4834,td,null,null,null,null,null,null,"[3,2]"
,canvas-keyboard-response,202,183815,0.0-6.0-4.32,63,,,,,make choice,475,3,,,critical,c,d,t,240,164,158.0083,227.1683,164,240,spektor,0.09,h,164,240,240,164,158.0083,227.1683,39360,39360,35894.4834,td,null,null,null,null,null,null,"[3,2]"
,canvas-keyboard-response,203,183973,0.0-6.0-5.32,63,,,,,clear_screen,null,null,,,critical,c,d,t,240,164,158.0083,227.1683,164,240,spektor,0.09,h,164,240,240,164,158.0083,227.1683,39360,39360,35894.4834,td,null,null,null,null,null,null,"[3,2]"
,canvas-keyboard-response,204,184174,0.0-6.0-0.33,63,,,,,pre trial waiting period,null,null,,,critical,d,c,t,164,240,240,164,164,240,trueblood,0,h,164,240,240,164,164,240,39360,39360,39360,tc,null,null,null,null,null,null,"[3,2]"
,canvas-keyboard-response,205,184332,0.0-6.0-1.33,63,,,,,clear_screen,null,null,,,critical,d,c,t,164,240,240,164,164,240,trueblood,0,h,164,240,240,164,164,240,39360,39360,39360,tc,null,null,null,null,null,null,"[3,2]"
,canvas-keyboard-response,206,185668,0.0-6.0-2.33,63,,,,,rectangles,null,null,,,critical,d,c,t,164,240,240,164,164,240,trueblood,0,h,164,240,240,164,164,240,39360,39360,39360,tc,null,null,null,null,null,null,"[3,2]"
,canvas-keyboard-response,207,185826,0.0-6.0-3.33,63,,,,,clear_screen,null,null,,,critical,d,c,t,164,240,240,164,164,240,trueblood,0,h,164,240,240,164,164,240,39360,39360,39360,tc,null,null,null,null,null,null,"[3,2]"
,canvas-keyboard-response,208,186288,0.0-6.0-4.33,63,,,,,make choice,453,2,,,critical,d,c,t,164,240,240,164,164,240,trueblood,0,h,164,240,240,164,164,240,39360,39360,39360,tc,null,null,null,null,null,null,"[3,2]"
,canvas-keyboard-response,209,186445,0.0-6.0-5.33,63,,,,,clear_screen,null,null,,,critical,d,c,t,164,240,240,164,164,240,trueblood,0,h,164,240,240,164,164,240,39360,39360,39360,tc,null,null,null,null,null,null,"[3,2]"
,canvas-keyboard-response,210,186646,0.0-6.0-0.34,63,,,,,pre trial waiting period,null,null,,,critical,c,d,t,240,164,154.6796,220.0396,164,240,trueblood,0.14,h,164,240,240,164,154.6796,220.0396,39360,39360,34035.6388,td,null,null,null,null,null,null,"[3,2]"
,canvas-keyboard-response,211,186806,0.0-6.0-1.34,63,,,,,clear_screen,null,null,,,critical,c,d,t,240,164,154.6796,220.0396,164,240,trueblood,0.14,h,164,240,240,164,154.6796,220.0396,39360,39360,34035.6388,td,null,null,null,null,null,null,"[3,2]"
,canvas-keyboard-response,212,188144,0.0-6.0-2.34,63,,,,,rectangles,null,null,,,critical,c,d,t,240,164,154.6796,220.0396,164,240,trueblood,0.14,h,164,240,240,164,154.6796,220.0396,39360,39360,34035.6388,td,null,null,null,null,null,null,"[3,2]"
,canvas-keyboard-response,213,188303,0.0-6.0-3.34,63,,,,,clear_screen,null,null,,,critical,c,d,t,240,164,154.6796,220.0396,164,240,trueblood,0.14,h,164,240,240,164,154.6796,220.0396,39360,39360,34035.6388,td,null,null,null,null,null,null,"[3,2]"
,canvas-keyboard-response,214,189687,0.0-6.0-4.34,63,,,,,make choice,1375,3,,,critical,c,d,t,240,164,154.6796,220.0396,164,240,trueblood,0.14,h,164,240,240,164,154.6796,220.0396,39360,39360,34035.6388,td,null,null,null,null,null,null,"[3,2]"
,canvas-keyboard-response,215,189845,0.0-6.0-5.34,63,,,,,clear_screen,null,null,,,critical,c,d,t,240,164,154.6796,220.0396,164,240,trueblood,0.14,h,164,240,240,164,154.6796,220.0396,39360,39360,34035.6388,td,null,null,null,null,null,null,"[3,2]"
,canvas-keyboard-response,216,190046,0.0-6.0-0.35,63,,,,,pre trial waiting period,null,null,,,catch,sh,sw,l,176,206,174,173,181,286,spektor,null,null,null,null,null,null,null,null,null,null,null,,180,200,260,200,36000,52000,"[1,3]"
,canvas-keyboard-response,217,190204,0.0-6.0-1.35,63,,,,,clear_screen,null,null,,,catch,sh,sw,l,176,206,174,173,181,286,spektor,null,null,null,null,null,null,null,null,null,null,null,,180,200,260,200,36000,52000,"[1,3]"
,canvas-keyboard-response,218,191539,0.0-6.0-2.35,63,,,,,rectangles,null,null,,,catch,sh,sw,l,176,206,174,173,181,286,spektor,null,null,null,null,null,null,null,null,null,null,null,,180,200,260,200,36000,52000,"[1,3]"
,canvas-keyboard-response,219,191698,0.0-6.0-3.35,63,,,,,clear_screen,null,null,,,catch,sh,sw,l,176,206,174,173,181,286,spektor,null,null,null,null,null,null,null,null,null,null,null,,180,200,260,200,36000,52000,"[1,3]"
,canvas-keyboard-response,220,192463,0.0-6.0-4.35,63,,,,,make choice,756,3,,,catch,sh,sw,l,176,206,174,173,181,286,spektor,null,null,null,null,null,null,null,null,null,null,null,,180,200,260,200,36000,52000,"[1,3]"
,canvas-keyboard-response,221,192621,0.0-6.0-5.35,63,,,,,clear_screen,null,null,,,catch,sh,sw,l,176,206,174,173,181,286,spektor,null,null,null,null,null,null,null,null,null,null,null,,180,200,260,200,36000,52000,"[1,3]"
,canvas-keyboard-response,222,192823,0.0-6.0-0.36,63,,,,,pre trial waiting period,null,null,,,catch,l,sh,sw,195,293,236,189,156,231,trueblood,null,null,null,null,null,null,null,null,null,null,null,,180,200,260,200,36000,52000,"[1,3]"
,canvas-keyboard-response,223,192983,0.0-6.0-1.36,63,,,,,clear_screen,null,null,,,catch,l,sh,sw,195,293,236,189,156,231,trueblood,null,null,null,null,null,null,null,null,null,null,null,,180,200,260,200,36000,52000,"[1,3]"
,canvas-keyboard-response,224,194319,0.0-6.0-2.36,63,,,,,rectangles,null,null,,,catch,l,sh,sw,195,293,236,189,156,231,trueblood,null,null,null,null,null,null,null,null,null,null,null,,180,200,260,200,36000,52000,"[1,3]"
,canvas-keyboard-response,225,194477,0.0-6.0-3.36,63,,,,,clear_screen,null,null,,,catch,l,sh,sw,195,293,236,189,156,231,trueblood,null,null,null,null,null,null,null,null,null,null,null,,180,200,260,200,36000,52000,"[1,3]"
,canvas-keyboard-response,226,195263,0.0-6.0-4.36,63,,,,,make choice,777,1,,,catch,l,sh,sw,195,293,236,189,156,231,trueblood,null,null,null,null,null,null,null,null,null,null,null,,180,200,260,200,36000,52000,"[1,3]"
,canvas-keyboard-response,227,195420,0.0-6.0-5.36,63,,,,,clear_screen,null,null,,,catch,l,sh,sw,195,293,236,189,156,231,trueblood,null,null,null,null,null,null,null,null,null,null,null,,180,200,260,200,36000,52000,"[1,3]"
,canvas-keyboard-response,228,195621,0.0-6.0-0.37,63,,,,,pre trial waiting period,null,null,,,critical,c,d,t,164,240,237.1485,162.6685,240,164,trueblood,0.02,w,240,164,164,240,237.1485,162.6685,39360,39360,38576.5967,tc,null,null,null,null,null,null,"[3,1]"
,canvas-keyboard-response,229,195780,0.0-6.0-1.37,63,,,,,clear_screen,null,null,,,critical,c,d,t,164,240,237.1485,162.6685,240,164,trueblood,0.02,w,240,164,164,240,237.1485,162.6685,39360,39360,38576.5967,tc,null,null,null,null,null,null,"[3,1]"
,canvas-keyboard-response,230,197115,0.0-6.0-2.37,63,,,,,rectangles,null,null,,,critical,c,d,t,164,240,237.1485,162.6685,240,164,trueblood,0.02,w,240,164,164,240,237.1485,162.6685,39360,39360,38576.5967,tc,null,null,null,null,null,null,"[3,1]"
,canvas-keyboard-response,231,197273,0.0-6.0-3.37,63,,,,,clear_screen,null,null,,,critical,c,d,t,164,240,237.1485,162.6685,240,164,trueblood,0.02,w,240,164,164,240,237.1485,162.6685,39360,39360,38576.5967,tc,null,null,null,null,null,null,"[3,1]"
,canvas-keyboard-response,232,199663,0.0-6.0-4.37,63,,,,,make choice,2382,3,,,critical,c,d,t,164,240,237.1485,162.6685,240,164,trueblood,0.02,w,240,164,164,240,237.1485,162.6685,39360,39360,38576.5967,tc,null,null,null,null,null,null,"[3,1]"
,canvas-keyboard-response,233,199822,0.0-6.0-5.37,63,,,,,clear_screen,null,null,,,critical,c,d,t,164,240,237.1485,162.6685,240,164,trueblood,0.02,w,240,164,164,240,237.1485,162.6685,39360,39360,38576.5967,tc,null,null,null,null,null,null,"[3,1]"
,canvas-keyboard-response,234,200023,0.0-6.0-0.38,63,,,,,pre trial waiting period,null,null,,,critical,t,c,d,240,164,164,240,232.8713,160.6713,spektor,0.05,w,240,164,164,240,232.8713,160.6713,39360,39360,37415.7294,dc,null,null,null,null,null,null,"[3,2]"
,canvas-keyboard-response,235,200181,0.0-6.0-1.38,63,,,,,clear_screen,null,null,,,critical,t,c,d,240,164,164,240,232.8713,160.6713,spektor,0.05,w,240,164,164,240,232.8713,160.6713,39360,39360,37415.7294,dc,null,null,null,null,null,null,"[3,2]"
,canvas-keyboard-response,236,201520,0.0-6.0-2.38,63,,,,,rectangles,null,null,,,critical,t,c,d,240,164,164,240,232.8713,160.6713,spektor,0.05,w,240,164,164,240,232.8713,160.6713,39360,39360,37415.7294,dc,null,null,null,null,null,null,"[3,2]"
,canvas-keyboard-response,237,201678,0.0-6.0-3.38,63,,,,,clear_screen,null,null,,,critical,t,c,d,240,164,164,240,232.8713,160.6713,spektor,0.05,w,240,164,164,240,232.8713,160.6713,39360,39360,37415.7294,dc,null,null,null,null,null,null,"[3,2]"
,canvas-keyboard-response,238,203055,0.0-6.0-4.38,63,,,,,make choice,1369,2,,,critical,t,c,d,240,164,164,240,232.8713,160.6713,spektor,0.05,w,240,164,164,240,232.8713,160.6713,39360,39360,37415.7294,dc,null,null,null,null,null,null,"[3,2]"
,canvas-keyboard-response,239,203213,0.0-6.0-5.38,63,,,,,clear_screen,null,null,,,critical,t,c,d,240,164,164,240,232.8713,160.6713,spektor,0.05,w,240,164,164,240,232.8713,160.6713,39360,39360,37415.7294,dc,null,null,null,null,null,null,"[3,2]"
,canvas-keyboard-response,240,203414,0.0-6.0-0.39,63,,,,,pre trial waiting period,null,null,,,critical,t,d,c,240,164,220.0396,154.6796,164,240,trueblood,0.14,w,240,164,164,240,220.0396,154.6796,39360,39360,34035.6388,tc,null,null,null,null,null,null,"[1,3]"
,canvas-keyboard-response,241,203573,0.0-6.0-1.39,63,,,,,clear_screen,null,null,,,critical,t,d,c,240,164,220.0396,154.6796,164,240,trueblood,0.14,w,240,164,164,240,220.0396,154.6796,39360,39360,34035.6388,tc,null,null,null,null,null,null,"[1,3]"
,canvas-keyboard-response,242,204908,0.0-6.0-2.39,63,,,,,rectangles,null,null,,,critical,t,d,c,240,164,220.0396,154.6796,164,240,trueblood,0.14,w,240,164,164,240,220.0396,154.6796,39360,39360,34035.6388,tc,null,null,null,null,null,null,"[1,3]"
,canvas-keyboard-response,243,205066,0.0-6.0-3.39,63,,,,,clear_screen,null,null,,,critical,t,d,c,240,164,220.0396,154.6796,164,240,trueblood,0.14,w,240,164,164,240,220.0396,154.6796,39360,39360,34035.6388,tc,null,null,null,null,null,null,"[1,3]"
,canvas-keyboard-response,244,207807,0.0-6.0-4.39,63,,,,,make choice,2732,3,,,critical,t,d,c,240,164,220.0396,154.6796,164,240,trueblood,0.14,w,240,164,164,240,220.0396,154.6796,39360,39360,34035.6388,tc,null,null,null,null,null,null,"[1,3]"
,canvas-keyboard-response,245,207965,0.0-6.0-5.39,63,,,,,clear_screen,null,null,,,critical,t,d,c,240,164,220.0396,154.6796,164,240,trueblood,0.14,w,240,164,164,240,220.0396,154.6796,39360,39360,34035.6388,tc,null,null,null,null,null,null,"[1,3]"
,canvas-keyboard-response,246,208165,0.0-6.0-0.40,63,,,,,pre trial waiting period,null,null,,,catch,sh,sw,l,187,196,166,200,193,259,trueblood,null,null,null,null,null,null,null,null,null,null,null,,180,200,260,200,36000,52000,"[2,3]"
,canvas-keyboard-response,247,208324,0.0-6.0-1.40,63,,,,,clear_screen,null,null,,,catch,sh,sw,l,187,196,166,200,193,259,trueblood,null,null,null,null,null,null,null,null,null,null,null,,180,200,260,200,36000,52000,"[2,3]"
,canvas-keyboard-response,248,209660,0.0-6.0-2.40,63,,,,,rectangles,null,null,,,catch,sh,sw,l,187,196,166,200,193,259,trueblood,null,null,null,null,null,null,null,null,null,null,null,,180,200,260,200,36000,52000,"[2,3]"
,canvas-keyboard-response,249,209819,0.0-6.0-3.40,63,,,,,clear_screen,null,null,,,catch,sh,sw,l,187,196,166,200,193,259,trueblood,null,null,null,null,null,null,null,null,null,null,null,,180,200,260,200,36000,52000,"[2,3]"
,canvas-keyboard-response,250,210559,0.0-6.0-4.40,63,,,,,make choice,729,3,,,catch,sh,sw,l,187,196,166,200,193,259,trueblood,null,null,null,null,null,null,null,null,null,null,null,,180,200,260,200,36000,52000,"[2,3]"
,canvas-keyboard-response,251,210720,0.0-6.0-5.40,63,,,,,clear_screen,null,null,,,catch,sh,sw,l,187,196,166,200,193,259,trueblood,null,null,null,null,null,null,null,null,null,null,null,,180,200,260,200,36000,52000,"[2,3]"
,canvas-keyboard-response,252,210922,0.0-6.0-0.41,63,,,,,pre trial waiting period,null,null,,,catch,l,sw,sh,270,175,171,179,224,179,spektor,null,null,null,null,null,null,null,null,null,null,null,,180,200,260,200,36000,52000,"[1,2]"
,canvas-keyboard-response,253,211083,0.0-6.0-1.41,63,,,,,clear_screen,null,null,,,catch,l,sw,sh,270,175,171,179,224,179,spektor,null,null,null,null,null,null,null,null,null,null,null,,180,200,260,200,36000,52000,"[1,2]"
,canvas-keyboard-response,254,212419,0.0-6.0-2.41,63,,,,,rectangles,null,null,,,catch,l,sw,sh,270,175,171,179,224,179,spektor,null,null,null,null,null,null,null,null,null,null,null,,180,200,260,200,36000,52000,"[1,2]"
,canvas-keyboard-response,255,212578,0.0-6.0-3.41,63,,,,,clear_screen,null,null,,,catch,l,sw,sh,270,175,171,179,224,179,spektor,null,null,null,null,null,null,null,null,null,null,null,,180,200,260,200,36000,52000,"[1,2]"
,canvas-keyboard-response,256,213511,0.0-6.0-4.41,63,,,,,make choice,924,1,,,catch,l,sw,sh,270,175,171,179,224,179,spektor,null,null,null,null,null,null,null,null,null,null,null,,180,200,260,200,36000,52000,"[1,2]"
,canvas-keyboard-response,257,213671,0.0-6.0-5.41,63,,,,,clear_screen,null,null,,,catch,l,sw,sh,270,175,171,179,224,179,spektor,null,null,null,null,null,null,null,null,null,null,null,,180,200,260,200,36000,52000,"[1,2]"
,canvas-keyboard-response,258,213872,0.0-6.0-0.42,63,,,,,pre trial waiting period,null,null,,,catch,l,sh,sw,221,233,191,204,154,231,spektor,null,null,null,null,null,null,null,null,null,null,null,,180,200,260,200,36000,52000,"[1,3]"
,canvas-keyboard-response,259,214032,0.0-6.0-1.42,63,,,,,clear_screen,null,null,,,catch,l,sh,sw,221,233,191,204,154,231,spektor,null,null,null,null,null,null,null,null,null,null,null,,180,200,260,200,36000,52000,"[1,3]"
,canvas-keyboard-response,260,215368,0.0-6.0-2.42,63,,,,,rectangles,null,null,,,catch,l,sh,sw,221,233,191,204,154,231,spektor,null,null,null,null,null,null,null,null,null,null,null,,180,200,260,200,36000,52000,"[1,3]"
,canvas-keyboard-response,261,215528,0.0-6.0-3.42,63,,,,,clear_screen,null,null,,,catch,l,sh,sw,221,233,191,204,154,231,spektor,null,null,null,null,null,null,null,null,null,null,null,,180,200,260,200,36000,52000,"[1,3]"
,canvas-keyboard-response,262,216158,0.0-6.0-4.42,63,,,,,make choice,622,1,,,catch,l,sh,sw,221,233,191,204,154,231,spektor,null,null,null,null,null,null,null,null,null,null,null,,180,200,260,200,36000,52000,"[1,3]"
,canvas-keyboard-response,263,216317,0.0-6.0-5.42,63,,,,,clear_screen,null,null,,,catch,l,sh,sw,221,233,191,204,154,231,spektor,null,null,null,null,null,null,null,null,null,null,null,,180,200,260,200,36000,52000,"[1,3]"
,canvas-keyboard-response,264,216519,0.0-6.0-0.43,63,,,,,pre trial waiting period,null,null,,,critical,d,t,c,220.0396,154.6796,240,164,164,240,spektor,0.14,w,240,164,164,240,220.0396,154.6796,39360,39360,34035.6388,dc,null,null,null,null,null,null,"[1,3]"
,canvas-keyboard-response,265,216677,0.0-6.0-1.43,63,,,,,clear_screen,null,null,,,critical,d,t,c,220.0396,154.6796,240,164,164,240,spektor,0.14,w,240,164,164,240,220.0396,154.6796,39360,39360,34035.6388,dc,null,null,null,null,null,null,"[1,3]"
,canvas-keyboard-response,266,218013,0.0-6.0-2.43,63,,,,,rectangles,null,null,,,critical,d,t,c,220.0396,154.6796,240,164,164,240,spektor,0.14,w,240,164,164,240,220.0396,154.6796,39360,39360,34035.6388,dc,null,null,null,null,null,null,"[1,3]"
,canvas-keyboard-response,267,218172,0.0-6.0-3.43,63,,,,,clear_screen,null,null,,,critical,d,t,c,220.0396,154.6796,240,164,164,240,spektor,0.14,w,240,164,164,240,220.0396,154.6796,39360,39360,34035.6388,dc,null,null,null,null,null,null,"[1,3]"
,canvas-keyboard-response,268,219167,0.0-6.0-4.43,63,,,,,make choice,986,3,,,critical,d,t,c,220.0396,154.6796,240,164,164,240,spektor,0.14,w,240,164,164,240,220.0396,154.6796,39360,39360,34035.6388,dc,null,null,null,null,null,null,"[1,3]"
,canvas-keyboard-response,269,219326,0.0-6.0-5.43,63,,,,,clear_screen,null,null,,,critical,d,t,c,220.0396,154.6796,240,164,164,240,spektor,0.14,w,240,164,164,240,220.0396,154.6796,39360,39360,34035.6388,dc,null,null,null,null,null,null,"[1,3]"
,canvas-keyboard-response,270,219527,0.0-6.0-0.44,63,,,,,pre trial waiting period,null,null,,,critical,t,c,d,240,164,164,240,220.0396,154.6796,spektor,0.14,w,240,164,164,240,220.0396,154.6796,39360,39360,34035.6388,tc,null,null,null,null,null,null,"[1,2]"
,canvas-keyboard-response,271,219687,0.0-6.0-1.44,63,,,,,clear_screen,null,null,,,critical,t,c,d,240,164,164,240,220.0396,154.6796,spektor,0.14,w,240,164,164,240,220.0396,154.6796,39360,39360,34035.6388,tc,null,null,null,null,null,null,"[1,2]"
,canvas-keyboard-response,272,221023,0.0-6.0-2.44,63,,,,,rectangles,null,null,,,critical,t,c,d,240,164,164,240,220.0396,154.6796,spektor,0.14,w,240,164,164,240,220.0396,154.6796,39360,39360,34035.6388,tc,null,null,null,null,null,null,"[1,2]"
,canvas-keyboard-response,273,221182,0.0-6.0-3.44,63,,,,,clear_screen,null,null,,,critical,t,c,d,240,164,164,240,220.0396,154.6796,spektor,0.14,w,240,164,164,240,220.0396,154.6796,39360,39360,34035.6388,tc,null,null,null,null,null,null,"[1,2]"
,canvas-keyboard-response,274,222463,0.0-6.0-4.44,63,,,,,make choice,1272,2,,,critical,t,c,d,240,164,164,240,220.0396,154.6796,spektor,0.14,w,240,164,164,240,220.0396,154.6796,39360,39360,34035.6388,tc,null,null,null,null,null,null,"[1,2]"
,canvas-keyboard-response,275,222625,0.0-6.0-5.44,63,,,,,clear_screen,null,null,,,critical,t,c,d,240,164,164,240,220.0396,154.6796,spektor,0.14,w,240,164,164,240,220.0396,154.6796,39360,39360,34035.6388,tc,null,null,null,null,null,null,"[1,2]"
,canvas-keyboard-response,276,222827,0.0-6.0-0.45,63,,,,,pre trial waiting period,null,null,,,critical,c,t,d,164,240,240,164,237.1485,162.6685,spektor,0.02,w,240,164,164,240,237.1485,162.6685,39360,39360,38576.5967,td,null,null,null,null,null,null,"[2,3]"
,canvas-keyboard-response,277,222986,0.0-6.0-1.45,63,,,,,clear_screen,null,null,,,critical,c,t,d,164,240,240,164,237.1485,162.6685,spektor,0.02,w,240,164,164,240,237.1485,162.6685,39360,39360,38576.5967,td,null,null,null,null,null,null,"[2,3]"
,canvas-keyboard-response,278,224323,0.0-6.0-2.45,63,,,,,rectangles,null,null,,,critical,c,t,d,164,240,240,164,237.1485,162.6685,spektor,0.02,w,240,164,164,240,237.1485,162.6685,39360,39360,38576.5967,td,null,null,null,null,null,null,"[2,3]"
,canvas-keyboard-response,279,224481,0.0-6.0-3.45,63,,,,,clear_screen,null,null,,,critical,c,t,d,164,240,240,164,237.1485,162.6685,spektor,0.02,w,240,164,164,240,237.1485,162.6685,39360,39360,38576.5967,td,null,null,null,null,null,null,"[2,3]"
,canvas-keyboard-response,280,226823,0.0-6.0-4.45,63,,,,,make choice,2333,2,,,critical,c,t,d,164,240,240,164,237.1485,162.6685,spektor,0.02,w,240,164,164,240,237.1485,162.6685,39360,39360,38576.5967,td,null,null,null,null,null,null,"[2,3]"
,canvas-keyboard-response,281,226982,0.0-6.0-5.45,63,,,,,clear_screen,null,null,,,critical,c,t,d,164,240,240,164,237.1485,162.6685,spektor,0.02,w,240,164,164,240,237.1485,162.6685,39360,39360,38576.5967,td,null,null,null,null,null,null,"[2,3]"
,canvas-keyboard-response,282,227183,0.0-6.0-0.46,63,,,,,pre trial waiting period,null,null,,,catch,sh,sw,l,180,214,172,203,162,264,trueblood,null,null,null,null,null,null,null,null,null,null,null,,180,200,260,200,36000,52000,"[2,3]"
,canvas-keyboard-response,283,227343,0.0-6.0-1.46,63,,,,,clear_screen,null,null,,,catch,sh,sw,l,180,214,172,203,162,264,trueblood,null,null,null,null,null,null,null,null,null,null,null,,180,200,260,200,36000,52000,"[2,3]"
,canvas-keyboard-response,284,228678,0.0-6.0-2.46,63,,,,,rectangles,null,null,,,catch,sh,sw,l,180,214,172,203,162,264,trueblood,null,null,null,null,null,null,null,null,null,null,null,,180,200,260,200,36000,52000,"[2,3]"
,canvas-keyboard-response,285,228836,0.0-6.0-3.46,63,,,,,clear_screen,null,null,,,catch,sh,sw,l,180,214,172,203,162,264,trueblood,null,null,null,null,null,null,null,null,null,null,null,,180,200,260,200,36000,52000,"[2,3]"
,canvas-keyboard-response,286,229894,0.0-6.0-4.46,63,,,,,make choice,1049,3,,,catch,sh,sw,l,180,214,172,203,162,264,trueblood,null,null,null,null,null,null,null,null,null,null,null,,180,200,260,200,36000,52000,"[2,3]"
,canvas-keyboard-response,287,230054,0.0-6.0-5.46,63,,,,,clear_screen,null,null,,,catch,sh,sw,l,180,214,172,203,162,264,trueblood,null,null,null,null,null,null,null,null,null,null,null,,180,200,260,200,36000,52000,"[2,3]"
,canvas-keyboard-response,288,230255,0.0-6.0-0.47,63,,,,,pre trial waiting period,null,null,,,catch,l,sw,sh,248,222,154,208,180,164,spektor,null,null,null,null,null,null,null,null,null,null,null,,180,200,260,200,36000,52000,"[1,2]"
,canvas-keyboard-response,289,230417,0.0-6.0-1.47,63,,,,,clear_screen,null,null,,,catch,l,sw,sh,248,222,154,208,180,164,spektor,null,null,null,null,null,null,null,null,null,null,null,,180,200,260,200,36000,52000,"[1,2]"
,canvas-keyboard-response,290,231753,0.0-6.0-2.47,63,,,,,rectangles,null,null,,,catch,l,sw,sh,248,222,154,208,180,164,spektor,null,null,null,null,null,null,null,null,null,null,null,,180,200,260,200,36000,52000,"[1,2]"
,canvas-keyboard-response,291,231911,0.0-6.0-3.47,63,,,,,clear_screen,null,null,,,catch,l,sw,sh,248,222,154,208,180,164,spektor,null,null,null,null,null,null,null,null,null,null,null,,180,200,260,200,36000,52000,"[1,2]"
,canvas-keyboard-response,292,232551,0.0-6.0-4.47,63,,,,,make choice,631,1,,,catch,l,sw,sh,248,222,154,208,180,164,spektor,null,null,null,null,null,null,null,null,null,null,null,,180,200,260,200,36000,52000,"[1,2]"
,canvas-keyboard-response,293,232709,0.0-6.0-5.47,63,,,,,clear_screen,null,null,,,catch,l,sw,sh,248,222,154,208,180,164,spektor,null,null,null,null,null,null,null,null,null,null,null,,180,200,260,200,36000,52000,"[1,2]"
,canvas-keyboard-response,294,232910,0.0-6.0-0.48,63,,,,,pre trial waiting period,null,null,,,catch,sw,sh,l,180,200,215,177,191,273,spektor,null,null,null,null,null,null,null,null,null,null,null,,180,200,260,200,36000,52000,"[1,3]"
,canvas-keyboard-response,295,233069,0.0-6.0-1.48,63,,,,,clear_screen,null,null,,,catch,sw,sh,l,180,200,215,177,191,273,spektor,null,null,null,null,null,null,null,null,null,null,null,,180,200,260,200,36000,52000,"[1,3]"
,canvas-keyboard-response,296,234405,0.0-6.0-2.48,63,,,,,rectangles,null,null,,,catch,sw,sh,l,180,200,215,177,191,273,spektor,null,null,null,null,null,null,null,null,null,null,null,,180,200,260,200,36000,52000,"[1,3]"
,canvas-keyboard-response,297,234563,0.0-6.0-3.48,63,,,,,clear_screen,null,null,,,catch,sw,sh,l,180,200,215,177,191,273,spektor,null,null,null,null,null,null,null,null,null,null,null,,180,200,260,200,36000,52000,"[1,3]"
,canvas-keyboard-response,298,235087,0.0-6.0-4.48,63,,,,,make choice,515,3,,,catch,sw,sh,l,180,200,215,177,191,273,spektor,null,null,null,null,null,null,null,null,null,null,null,,180,200,260,200,36000,52000,"[1,3]"
,canvas-keyboard-response,299,235246,0.0-6.0-5.48,63,,,,,clear_screen,null,null,,,catch,sw,sh,l,180,200,215,177,191,273,spektor,null,null,null,null,null,null,null,null,null,null,null,,180,200,260,200,36000,52000,"[1,3]"
,canvas-keyboard-response,300,235446,0.0-6.0-0.49,63,,,,,pre trial waiting period,null,null,,,catch,l,sw,sh,171,284,195,166,179,186,trueblood,null,null,null,null,null,null,null,null,null,null,null,,180,200,260,200,36000,52000,"[1,2]"
,canvas-keyboard-response,301,235605,0.0-6.0-1.49,63,,,,,clear_screen,null,null,,,catch,l,sw,sh,171,284,195,166,179,186,trueblood,null,null,null,null,null,null,null,null,null,null,null,,180,200,260,200,36000,52000,"[1,2]"
,canvas-keyboard-response,302,236940,0.0-6.0-2.49,63,,,,,rectangles,null,null,,,catch,l,sw,sh,171,284,195,166,179,186,trueblood,null,null,null,null,null,null,null,null,null,null,null,,180,200,260,200,36000,52000,"[1,2]"
,canvas-keyboard-response,303,237100,0.0-6.0-3.49,63,,,,,clear_screen,null,null,,,catch,l,sw,sh,171,284,195,166,179,186,trueblood,null,null,null,null,null,null,null,null,null,null,null,,180,200,260,200,36000,52000,"[1,2]"
,canvas-keyboard-response,304,238119,0.0-6.0-4.49,63,,,,,make choice,1010,1,,,catch,l,sw,sh,171,284,195,166,179,186,trueblood,null,null,null,null,null,null,null,null,null,null,null,,180,200,260,200,36000,52000,"[1,2]"
,canvas-keyboard-response,305,238276,0.0-6.0-5.49,63,,,,,clear_screen,null,null,,,catch,l,sw,sh,171,284,195,166,179,186,trueblood,null,null,null,null,null,null,null,null,null,null,null,,180,200,260,200,36000,52000,"[1,2]"
,canvas-keyboard-response,306,238478,0.0-6.0-0.50,63,,,,,pre trial waiting period,null,null,,,catch,sw,sh,l,180,200,234,172,162,270,trueblood,null,null,null,null,null,null,null,null,null,null,null,,180,200,260,200,36000,52000,"[2,3]"
,canvas-keyboard-response,307,238637,0.0-6.0-1.50,63,,,,,clear_screen,null,null,,,catch,sw,sh,l,180,200,234,172,162,270,trueblood,null,null,null,null,null,null,null,null,null,null,null,,180,200,260,200,36000,52000,"[2,3]"
,canvas-keyboard-response,308,239972,0.0-6.0-2.50,63,,,,,rectangles,null,null,,,catch,sw,sh,l,180,200,234,172,162,270,trueblood,null,null,null,null,null,null,null,null,null,null,null,,180,200,260,200,36000,52000,"[2,3]"
,canvas-keyboard-response,309,240131,0.0-6.0-3.50,63,,,,,clear_screen,null,null,,,catch,sw,sh,l,180,200,234,172,162,270,trueblood,null,null,null,null,null,null,null,null,null,null,null,,180,200,260,200,36000,52000,"[2,3]"
,canvas-keyboard-response,310,241807,0.0-6.0-4.50,63,,,,,make choice,1666,2,,,catch,sw,sh,l,180,200,234,172,162,270,trueblood,null,null,null,null,null,null,null,null,null,null,null,,180,200,260,200,36000,52000,"[2,3]"
,canvas-keyboard-response,311,241966,0.0-6.0-5.50,63,,,,,clear_screen,null,null,,,catch,sw,sh,l,180,200,234,172,162,270,trueblood,null,null,null,null,null,null,null,null,null,null,null,,180,200,260,200,36000,52000,"[2,3]"
,canvas-keyboard-response,312,242167,0.0-6.0-0.51,63,,,,,pre trial waiting period,null,null,,,critical,d,t,c,158.0083,227.1683,164,240,240,164,spektor,0.09,h,164,240,240,164,158.0083,227.1683,39360,39360,35894.4834,tc,null,null,null,null,null,null,"[2,3]"
,canvas-keyboard-response,313,242327,0.0-6.0-1.51,63,,,,,clear_screen,null,null,,,critical,d,t,c,158.0083,227.1683,164,240,240,164,spektor,0.09,h,164,240,240,164,158.0083,227.1683,39360,39360,35894.4834,tc,null,null,null,null,null,null,"[2,3]"
,canvas-keyboard-response,314,243662,0.0-6.0-2.51,63,,,,,rectangles,null,null,,,critical,d,t,c,158.0083,227.1683,164,240,240,164,spektor,0.09,h,164,240,240,164,158.0083,227.1683,39360,39360,35894.4834,tc,null,null,null,null,null,null,"[2,3]"
,canvas-keyboard-response,315,243829,0.0-6.0-3.51,63,,,,,clear_screen,null,null,,,critical,d,t,c,158.0083,227.1683,164,240,240,164,spektor,0.09,h,164,240,240,164,158.0083,227.1683,39360,39360,35894.4834,tc,null,null,null,null,null,null,"[2,3]"
,canvas-keyboard-response,316,244839,0.0-6.0-4.51,63,,,,,make choice,1002,2,,,critical,d,t,c,158.0083,227.1683,164,240,240,164,spektor,0.09,h,164,240,240,164,158.0083,227.1683,39360,39360,35894.4834,tc,null,null,null,null,null,null,"[2,3]"
,canvas-keyboard-response,317,245000,0.0-6.0-5.51,63,,,,,clear_screen,null,null,,,critical,d,t,c,158.0083,227.1683,164,240,240,164,spektor,0.09,h,164,240,240,164,158.0083,227.1683,39360,39360,35894.4834,tc,null,null,null,null,null,null,"[2,3]"
,canvas-keyboard-response,318,245201,0.0-6.0-0.52,63,,,,,pre trial waiting period,null,null,,,critical,d,t,c,158.0083,227.1683,164,240,240,164,trueblood,0.09,h,164,240,240,164,158.0083,227.1683,39360,39360,35894.4834,dc,null,null,null,null,null,null,"[1,3]"
,canvas-keyboard-response,319,245363,0.0-6.0-1.52,63,,,,,clear_screen,null,null,,,critical,d,t,c,158.0083,227.1683,164,240,240,164,trueblood,0.09,h,164,240,240,164,158.0083,227.1683,39360,39360,35894.4834,dc,null,null,null,null,null,null,"[1,3]"
,canvas-keyboard-response,320,246699,0.0-6.0-2.52,63,,,,,rectangles,null,null,,,critical,d,t,c,158.0083,227.1683,164,240,240,164,trueblood,0.09,h,164,240,240,164,158.0083,227.1683,39360,39360,35894.4834,dc,null,null,null,null,null,null,"[1,3]"
,canvas-keyboard-response,321,246857,0.0-6.0-3.52,63,,,,,clear_screen,null,null,,,critical,d,t,c,158.0083,227.1683,164,240,240,164,trueblood,0.09,h,164,240,240,164,158.0083,227.1683,39360,39360,35894.4834,dc,null,null,null,null,null,null,"[1,3]"
,canvas-keyboard-response,322,248392,0.0-6.0-4.52,63,,,,,make choice,1524,3,,,critical,d,t,c,158.0083,227.1683,164,240,240,164,trueblood,0.09,h,164,240,240,164,158.0083,227.1683,39360,39360,35894.4834,dc,null,null,null,null,null,null,"[1,3]"
,canvas-keyboard-response,323,248550,0.0-6.0-5.52,63,,,,,clear_screen,null,null,,,critical,d,t,c,158.0083,227.1683,164,240,240,164,trueblood,0.09,h,164,240,240,164,158.0083,227.1683,39360,39360,35894.4834,dc,null,null,null,null,null,null,"[1,3]"
,canvas-keyboard-response,324,248753,0.0-6.0-0.53,63,,,,,pre trial waiting period,null,null,,,catch,sh,l,sw,201,205,224,225,194,227,spektor,null,null,null,null,null,null,null,null,null,null,null,,180,200,260,200,36000,52000,"[2,3]"
,canvas-keyboard-response,325,248911,0.0-6.0-1.53,63,,,,,clear_screen,null,null,,,catch,sh,l,sw,201,205,224,225,194,227,spektor,null,null,null,null,null,null,null,null,null,null,null,,180,200,260,200,36000,52000,"[2,3]"
,canvas-keyboard-response,326,250249,0.0-6.0-2.53,63,,,,,rectangles,null,null,,,catch,sh,l,sw,201,205,224,225,194,227,spektor,null,null,null,null,null,null,null,null,null,null,null,,180,200,260,200,36000,52000,"[2,3]"
,canvas-keyboard-response,327,250408,0.0-6.0-3.53,63,,,,,clear_screen,null,null,,,catch,sh,l,sw,201,205,224,225,194,227,spektor,null,null,null,null,null,null,null,null,null,null,null,,180,200,260,200,36000,52000,"[2,3]"
,canvas-keyboard-response,328,251047,0.0-6.0-4.53,63,,,,,make choice,630,2,,,catch,sh,l,sw,201,205,224,225,194,227,spektor,null,null,null,null,null,null,null,null,null,null,null,,180,200,260,200,36000,52000,"[2,3]"
,canvas-keyboard-response,329,251205,0.0-6.0-5.53,63,,,,,clear_screen,null,null,,,catch,sh,l,sw,201,205,224,225,194,227,spektor,null,null,null,null,null,null,null,null,null,null,null,,180,200,260,200,36000,52000,"[2,3]"
,canvas-keyboard-response,330,251406,0.0-6.0-0.54,63,,,,,pre trial waiting period,null,null,,,critical,c,d,t,240,164,164,240,164,240,spektor,0,h,164,240,240,164,164,240,39360,39360,39360,tc,null,null,null,null,null,null,"[3,1]"
,canvas-keyboard-response,331,251567,0.0-6.0-1.54,63,,,,,clear_screen,null,null,,,critical,c,d,t,240,164,164,240,164,240,spektor,0,h,164,240,240,164,164,240,39360,39360,39360,tc,null,null,null,null,null,null,"[3,1]"
,canvas-keyboard-response,332,252904,0.0-6.0-2.54,63,,,,,rectangles,null,null,,,critical,c,d,t,240,164,164,240,164,240,spektor,0,h,164,240,240,164,164,240,39360,39360,39360,tc,null,null,null,null,null,null,"[3,1]"
,canvas-keyboard-response,333,253063,0.0-6.0-3.54,63,,,,,clear_screen,null,null,,,critical,c,d,t,240,164,164,240,164,240,spektor,0,h,164,240,240,164,164,240,39360,39360,39360,tc,null,null,null,null,null,null,"[3,1]"
,canvas-keyboard-response,334,254102,0.0-6.0-4.54,63,,,,,make choice,1032,1,,,critical,c,d,t,240,164,164,240,164,240,spektor,0,h,164,240,240,164,164,240,39360,39360,39360,tc,null,null,null,null,null,null,"[3,1]"
,canvas-keyboard-response,335,254262,0.0-6.0-5.54,63,,,,,clear_screen,null,null,,,critical,c,d,t,240,164,164,240,164,240,spektor,0,h,164,240,240,164,164,240,39360,39360,39360,tc,null,null,null,null,null,null,"[3,1]"
,canvas-keyboard-response,336,254463,0.0-6.0-0.55,63,,,,,pre trial waiting period,null,null,,,critical,t,d,c,240,164,240,164,164,240,spektor,0,w,240,164,164,240,240,164,39360,39360,39360,tc,null,null,null,null,null,null,"[1,3]"
,canvas-keyboard-response,337,254623,0.0-6.0-1.55,63,,,,,clear_screen,null,null,,,critical,t,d,c,240,164,240,164,164,240,spektor,0,w,240,164,164,240,240,164,39360,39360,39360,tc,null,null,null,null,null,null,"[1,3]"
,canvas-keyboard-response,338,255959,0.0-6.0-2.55,63,,,,,rectangles,null,null,,,critical,t,d,c,240,164,240,164,164,240,spektor,0,w,240,164,164,240,240,164,39360,39360,39360,tc,null,null,null,null,null,null,"[1,3]"
,canvas-keyboard-response,339,256119,0.0-6.0-3.55,63,,,,,clear_screen,null,null,,,critical,t,d,c,240,164,240,164,164,240,spektor,0,w,240,164,164,240,240,164,39360,39360,39360,tc,null,null,null,null,null,null,"[1,3]"
,canvas-keyboard-response,340,256702,0.0-6.0-4.55,63,,,,,make choice,575,3,,,critical,t,d,c,240,164,240,164,164,240,spektor,0,w,240,164,164,240,240,164,39360,39360,39360,tc,null,null,null,null,null,null,"[1,3]"
,canvas-keyboard-response,341,256863,0.0-6.0-5.55,63,,,,,clear_screen,null,null,,,critical,t,d,c,240,164,240,164,164,240,spektor,0,w,240,164,164,240,240,164,39360,39360,39360,tc,null,null,null,null,null,null,"[1,3]"
,canvas-keyboard-response,342,257064,0.0-6.0-0.56,63,,,,,pre trial waiting period,null,null,,,critical,c,d,t,240,164,160.6713,232.8713,164,240,spektor,0.05,h,164,240,240,164,160.6713,232.8713,39360,39360,37415.7294,td,null,null,null,null,null,null,"[3,2]"
,canvas-keyboard-response,343,257224,0.0-6.0-1.56,63,,,,,clear_screen,null,null,,,critical,c,d,t,240,164,160.6713,232.8713,164,240,spektor,0.05,h,164,240,240,164,160.6713,232.8713,39360,39360,37415.7294,td,null,null,null,null,null,null,"[3,2]"
,canvas-keyboard-response,344,258560,0.0-6.0-2.56,63,,,,,rectangles,null,null,,,critical,c,d,t,240,164,160.6713,232.8713,164,240,spektor,0.05,h,164,240,240,164,160.6713,232.8713,39360,39360,37415.7294,td,null,null,null,null,null,null,"[3,2]"
,canvas-keyboard-response,345,258718,0.0-6.0-3.56,63,,,,,clear_screen,null,null,,,critical,c,d,t,240,164,160.6713,232.8713,164,240,spektor,0.05,h,164,240,240,164,160.6713,232.8713,39360,39360,37415.7294,td,null,null,null,null,null,null,"[3,2]"
,canvas-keyboard-response,346,259839,0.0-6.0-4.56,63,,,,,make choice,1112,3,,,critical,c,d,t,240,164,160.6713,232.8713,164,240,spektor,0.05,h,164,240,240,164,160.6713,232.8713,39360,39360,37415.7294,td,null,null,null,null,null,null,"[3,2]"
,canvas-keyboard-response,347,259997,0.0-6.0-5.56,63,,,,,clear_screen,null,null,,,critical,c,d,t,240,164,160.6713,232.8713,164,240,spektor,0.05,h,164,240,240,164,160.6713,232.8713,39360,39360,37415.7294,td,null,null,null,null,null,null,"[3,2]"
,canvas-keyboard-response,348,260198,0.0-6.0-0.57,63,,,,,pre trial waiting period,null,null,,,critical,t,d,c,164,240,158.0083,227.1683,240,164,spektor,0.09,h,164,240,240,164,158.0083,227.1683,39360,39360,35894.4834,dc,null,null,null,null,null,null,"[2,3]"
,canvas-keyboard-response,349,260357,0.0-6.0-1.57,63,,,,,clear_screen,null,null,,,critical,t,d,c,164,240,158.0083,227.1683,240,164,spektor,0.09,h,164,240,240,164,158.0083,227.1683,39360,39360,35894.4834,dc,null,null,null,null,null,null,"[2,3]"
,canvas-keyboard-response,350,261693,0.0-6.0-2.57,63,,,,,rectangles,null,null,,,critical,t,d,c,164,240,158.0083,227.1683,240,164,spektor,0.09,h,164,240,240,164,158.0083,227.1683,39360,39360,35894.4834,dc,null,null,null,null,null,null,"[2,3]"
,canvas-keyboard-response,351,261852,0.0-6.0-3.57,63,,,,,clear_screen,null,null,,,critical,t,d,c,164,240,158.0083,227.1683,240,164,spektor,0.09,h,164,240,240,164,158.0083,227.1683,39360,39360,35894.4834,dc,null,null,null,null,null,null,"[2,3]"
,canvas-keyboard-response,352,263830,0.0-6.0-4.57,63,,,,,make choice,1971,2,,,critical,t,d,c,164,240,158.0083,227.1683,240,164,spektor,0.09,h,164,240,240,164,158.0083,227.1683,39360,39360,35894.4834,dc,null,null,null,null,null,null,"[2,3]"
,canvas-keyboard-response,353,263989,0.0-6.0-5.57,63,,,,,clear_screen,null,null,,,critical,t,d,c,164,240,158.0083,227.1683,240,164,spektor,0.09,h,164,240,240,164,158.0083,227.1683,39360,39360,35894.4834,dc,null,null,null,null,null,null,"[2,3]"
,canvas-keyboard-response,354,264190,0.0-6.0-0.58,63,,,,,pre trial waiting period,null,null,,,catch,sh,sw,l,208,217,215,219,212,220,spektor,null,null,null,null,null,null,null,null,null,null,null,,180,200,260,200,36000,52000,"[2,3]"
,canvas-keyboard-response,355,264352,0.0-6.0-1.58,63,,,,,clear_screen,null,null,,,catch,sh,sw,l,208,217,215,219,212,220,spektor,null,null,null,null,null,null,null,null,null,null,null,,180,200,260,200,36000,52000,"[2,3]"
,canvas-keyboard-response,356,265688,0.0-6.0-2.58,63,,,,,rectangles,null,null,,,catch,sh,sw,l,208,217,215,219,212,220,spektor,null,null,null,null,null,null,null,null,null,null,null,,180,200,260,200,36000,52000,"[2,3]"
,canvas-keyboard-response,357,265846,0.0-6.0-3.58,63,,,,,clear_screen,null,null,,,catch,sh,sw,l,208,217,215,219,212,220,spektor,null,null,null,null,null,null,null,null,null,null,null,,180,200,260,200,36000,52000,"[2,3]"
,canvas-keyboard-response,358,266887,0.0-6.0-4.58,63,,,,,make choice,1032,3,,,catch,sh,sw,l,208,217,215,219,212,220,spektor,null,null,null,null,null,null,null,null,null,null,null,,180,200,260,200,36000,52000,"[2,3]"
,canvas-keyboard-response,359,267045,0.0-6.0-5.58,63,,,,,clear_screen,null,null,,,catch,sh,sw,l,208,217,215,219,212,220,spektor,null,null,null,null,null,null,null,null,null,null,null,,180,200,260,200,36000,52000,"[2,3]"
,canvas-keyboard-response,360,267246,0.0-6.0-0.59,63,,,,,pre trial waiting period,null,null,,,critical,t,c,d,240,164,164,240,240,164,trueblood,0,w,240,164,164,240,240,164,39360,39360,39360,tc,null,null,null,null,null,null,"[1,2]"
,canvas-keyboard-response,361,267405,0.0-6.0-1.59,63,,,,,clear_screen,null,null,,,critical,t,c,d,240,164,164,240,240,164,trueblood,0,w,240,164,164,240,240,164,39360,39360,39360,tc,null,null,null,null,null,null,"[1,2]"
,canvas-keyboard-response,362,268741,0.0-6.0-2.59,63,,,,,rectangles,null,null,,,critical,t,c,d,240,164,164,240,240,164,trueblood,0,w,240,164,164,240,240,164,39360,39360,39360,tc,null,null,null,null,null,null,"[1,2]"
,canvas-keyboard-response,363,268899,0.0-6.0-3.59,63,,,,,clear_screen,null,null,,,critical,t,c,d,240,164,164,240,240,164,trueblood,0,w,240,164,164,240,240,164,39360,39360,39360,tc,null,null,null,null,null,null,"[1,2]"
,canvas-keyboard-response,364,270334,0.0-6.0-4.59,63,,,,,make choice,1427,2,,,critical,t,c,d,240,164,164,240,240,164,trueblood,0,w,240,164,164,240,240,164,39360,39360,39360,tc,null,null,null,null,null,null,"[1,2]"
,canvas-keyboard-response,365,270494,0.0-6.0-5.59,63,,,,,clear_screen,null,null,,,critical,t,c,d,240,164,164,240,240,164,trueblood,0,w,240,164,164,240,240,164,39360,39360,39360,tc,null,null,null,null,null,null,"[1,2]"
,canvas-keyboard-response,366,270695,0.0-6.0-0.60,63,,,,,pre trial waiting period,null,null,,,critical,t,c,d,240,164,164,240,232.8713,160.6713,trueblood,0.05,w,240,164,164,240,232.8713,160.6713,39360,39360,37415.7294,dc,null,null,null,null,null,null,"[3,2]"
,canvas-keyboard-response,367,270853,0.0-6.0-1.60,63,,,,,clear_screen,null,null,,,critical,t,c,d,240,164,164,240,232.8713,160.6713,trueblood,0.05,w,240,164,164,240,232.8713,160.6713,39360,39360,37415.7294,dc,null,null,null,null,null,null,"[3,2]"
,canvas-keyboard-response,368,272189,0.0-6.0-2.60,63,,,,,rectangles,null,null,,,critical,t,c,d,240,164,164,240,232.8713,160.6713,trueblood,0.05,w,240,164,164,240,232.8713,160.6713,39360,39360,37415.7294,dc,null,null,null,null,null,null,"[3,2]"
,canvas-keyboard-response,369,272348,0.0-6.0-3.60,63,,,,,clear_screen,null,null,,,critical,t,c,d,240,164,164,240,232.8713,160.6713,trueblood,0.05,w,240,164,164,240,232.8713,160.6713,39360,39360,37415.7294,dc,null,null,null,null,null,null,"[3,2]"
,canvas-keyboard-response,370,274230,0.0-6.0-4.60,63,,,,,make choice,1874,2,,,critical,t,c,d,240,164,164,240,232.8713,160.6713,trueblood,0.05,w,240,164,164,240,232.8713,160.6713,39360,39360,37415.7294,dc,null,null,null,null,null,null,"[3,2]"
,canvas-keyboard-response,371,274389,0.0-6.0-5.60,63,,,,,clear_screen,null,null,,,critical,t,c,d,240,164,164,240,232.8713,160.6713,trueblood,0.05,w,240,164,164,240,232.8713,160.6713,39360,39360,37415.7294,dc,null,null,null,null,null,null,"[3,2]"
,canvas-keyboard-response,372,274589,0.0-6.0-0.61,63,,,,,pre trial waiting period,null,null,,,critical,c,d,t,240,164,160.6713,232.8713,164,240,spektor,0.05,h,164,240,240,164,160.6713,232.8713,39360,39360,37415.7294,tc,null,null,null,null,null,null,"[3,1]"
,canvas-keyboard-response,373,274749,0.0-6.0-1.61,63,,,,,clear_screen,null,null,,,critical,c,d,t,240,164,160.6713,232.8713,164,240,spektor,0.05,h,164,240,240,164,160.6713,232.8713,39360,39360,37415.7294,tc,null,null,null,null,null,null,"[3,1]"
,canvas-keyboard-response,374,276084,0.0-6.0-2.61,63,,,,,rectangles,null,null,,,critical,c,d,t,240,164,160.6713,232.8713,164,240,spektor,0.05,h,164,240,240,164,160.6713,232.8713,39360,39360,37415.7294,tc,null,null,null,null,null,null,"[3,1]"
,canvas-keyboard-response,375,276245,0.0-6.0-3.61,63,,,,,clear_screen,null,null,,,critical,c,d,t,240,164,160.6713,232.8713,164,240,spektor,0.05,h,164,240,240,164,160.6713,232.8713,39360,39360,37415.7294,tc,null,null,null,null,null,null,"[3,1]"
,canvas-keyboard-response,376,277064,0.0-6.0-4.61,63,,,,,make choice,806,1,,,critical,c,d,t,240,164,160.6713,232.8713,164,240,spektor,0.05,h,164,240,240,164,160.6713,232.8713,39360,39360,37415.7294,tc,null,null,null,null,null,null,"[3,1]"
,canvas-keyboard-response,377,277222,0.0-6.0-5.61,63,,,,,clear_screen,null,null,,,critical,c,d,t,240,164,160.6713,232.8713,164,240,spektor,0.05,h,164,240,240,164,160.6713,232.8713,39360,39360,37415.7294,tc,null,null,null,null,null,null,"[3,1]"
,canvas-keyboard-response,378,277424,0.0-6.0-0.62,63,,,,,pre trial waiting period,null,null,,,critical,t,d,c,240,164,220.0396,154.6796,164,240,trueblood,0.14,w,240,164,164,240,220.0396,154.6796,39360,39360,34035.6388,td,null,null,null,null,null,null,"[1,2]"
,canvas-keyboard-response,379,277585,0.0-6.0-1.62,63,,,,,clear_screen,null,null,,,critical,t,d,c,240,164,220.0396,154.6796,164,240,trueblood,0.14,w,240,164,164,240,220.0396,154.6796,39360,39360,34035.6388,td,null,null,null,null,null,null,"[1,2]"
,canvas-keyboard-response,380,278921,0.0-6.0-2.62,63,,,,,rectangles,null,null,,,critical,t,d,c,240,164,220.0396,154.6796,164,240,trueblood,0.14,w,240,164,164,240,220.0396,154.6796,39360,39360,34035.6388,td,null,null,null,null,null,null,"[1,2]"
,canvas-keyboard-response,381,279080,0.0-6.0-3.62,63,,,,,clear_screen,null,null,,,critical,t,d,c,240,164,220.0396,154.6796,164,240,trueblood,0.14,w,240,164,164,240,220.0396,154.6796,39360,39360,34035.6388,td,null,null,null,null,null,null,"[1,2]"
,canvas-keyboard-response,382,279806,0.0-6.0-4.62,63,,,,,make choice,717,1,,,critical,t,d,c,240,164,220.0396,154.6796,164,240,trueblood,0.14,w,240,164,164,240,220.0396,154.6796,39360,39360,34035.6388,td,null,null,null,null,null,null,"[1,2]"
,canvas-keyboard-response,383,279965,0.0-6.0-5.62,63,,,,,clear_screen,null,null,,,critical,t,d,c,240,164,220.0396,154.6796,164,240,trueblood,0.14,w,240,164,164,240,220.0396,154.6796,39360,39360,34035.6388,td,null,null,null,null,null,null,"[1,2]"
,canvas-keyboard-response,384,280168,0.0-6.0-0.63,63,,,,,pre trial waiting period,null,null,,,catch,l,sw,sh,279,202,140,192,223,166,spektor,null,null,null,null,null,null,null,null,null,null,null,,180,200,260,200,36000,52000,"[1,2]"
,canvas-keyboard-response,385,280328,0.0-6.0-1.63,63,,,,,clear_screen,null,null,,,catch,l,sw,sh,279,202,140,192,223,166,spektor,null,null,null,null,null,null,null,null,null,null,null,,180,200,260,200,36000,52000,"[1,2]"
,canvas-keyboard-response,386,281664,0.0-6.0-2.63,63,,,,,rectangles,null,null,,,catch,l,sw,sh,279,202,140,192,223,166,spektor,null,null,null,null,null,null,null,null,null,null,null,,180,200,260,200,36000,52000,"[1,2]"
,canvas-keyboard-response,387,281829,0.0-6.0-3.63,63,,,,,clear_screen,null,null,,,catch,l,sw,sh,279,202,140,192,223,166,spektor,null,null,null,null,null,null,null,null,null,null,null,,180,200,260,200,36000,52000,"[1,2]"
,canvas-keyboard-response,388,282622,0.0-6.0-4.63,63,,,,,make choice,786,1,,,catch,l,sw,sh,279,202,140,192,223,166,spektor,null,null,null,null,null,null,null,null,null,null,null,,180,200,260,200,36000,52000,"[1,2]"
,canvas-keyboard-response,389,282781,0.0-6.0-5.63,63,,,,,clear_screen,null,null,,,catch,l,sw,sh,279,202,140,192,223,166,spektor,null,null,null,null,null,null,null,null,null,null,null,,180,200,260,200,36000,52000,"[1,2]"
,canvas-keyboard-response,390,282982,0.0-6.0-0.64,63,,,,,pre trial waiting period,null,null,,,critical,c,d,t,240,164,154.6796,220.0396,164,240,spektor,0.14,h,164,240,240,164,154.6796,220.0396,39360,39360,34035.6388,tc,null,null,null,null,null,null,"[3,1]"
,canvas-keyboard-response,391,283142,0.0-6.0-1.64,63,,,,,clear_screen,null,null,,,critical,c,d,t,240,164,154.6796,220.0396,164,240,spektor,0.14,h,164,240,240,164,154.6796,220.0396,39360,39360,34035.6388,tc,null,null,null,null,null,null,"[3,1]"
,canvas-keyboard-response,392,284477,0.0-6.0-2.64,63,,,,,rectangles,null,null,,,critical,c,d,t,240,164,154.6796,220.0396,164,240,spektor,0.14,h,164,240,240,164,154.6796,220.0396,39360,39360,34035.6388,tc,null,null,null,null,null,null,"[3,1]"
,canvas-keyboard-response,393,284636,0.0-6.0-3.64,63,,,,,clear_screen,null,null,,,critical,c,d,t,240,164,154.6796,220.0396,164,240,spektor,0.14,h,164,240,240,164,154.6796,220.0396,39360,39360,34035.6388,tc,null,null,null,null,null,null,"[3,1]"
,canvas-keyboard-response,394,285551,0.0-6.0-4.64,63,,,,,make choice,906,3,,,critical,c,d,t,240,164,154.6796,220.0396,164,240,spektor,0.14,h,164,240,240,164,154.6796,220.0396,39360,39360,34035.6388,tc,null,null,null,null,null,null,"[3,1]"
,canvas-keyboard-response,395,285710,0.0-6.0-5.64,63,,,,,clear_screen,null,null,,,critical,c,d,t,240,164,154.6796,220.0396,164,240,spektor,0.14,h,164,240,240,164,154.6796,220.0396,39360,39360,34035.6388,tc,null,null,null,null,null,null,"[3,1]"
,canvas-keyboard-response,396,285911,0.0-6.0-0.65,63,,,,,pre trial waiting period,null,null,,,catch,sw,l,sh,180,200,218,222,226,168,trueblood,null,null,null,null,null,null,null,null,null,null,null,,180,200,260,200,36000,52000,"[2,3]"
,canvas-keyboard-response,397,286071,0.0-6.0-1.65,63,,,,,clear_screen,null,null,,,catch,sw,l,sh,180,200,218,222,226,168,trueblood,null,null,null,null,null,null,null,null,null,null,null,,180,200,260,200,36000,52000,"[2,3]"
,canvas-keyboard-response,398,287407,0.0-6.0-2.65,63,,,,,rectangles,null,null,,,catch,sw,l,sh,180,200,218,222,226,168,trueblood,null,null,null,null,null,null,null,null,null,null,null,,180,200,260,200,36000,52000,"[2,3]"
,canvas-keyboard-response,399,287565,0.0-6.0-3.65,63,,,,,clear_screen,null,null,,,catch,sw,l,sh,180,200,218,222,226,168,trueblood,null,null,null,null,null,null,null,null,null,null,null,,180,200,260,200,36000,52000,"[2,3]"
,canvas-keyboard-response,400,288639,0.0-6.0-4.65,63,,,,,make choice,1064,2,,,catch,sw,l,sh,180,200,218,222,226,168,trueblood,null,null,null,null,null,null,null,null,null,null,null,,180,200,260,200,36000,52000,"[2,3]"
,canvas-keyboard-response,401,288796,0.0-6.0-5.65,63,,,,,clear_screen,null,null,,,catch,sw,l,sh,180,200,218,222,226,168,trueblood,null,null,null,null,null,null,null,null,null,null,null,,180,200,260,200,36000,52000,"[2,3]"
,canvas-keyboard-response,402,288998,0.0-6.0-0.66,63,,,,,pre trial waiting period,null,null,,,critical,d,c,t,154.6796,220.0396,240,164,164,240,spektor,0.14,h,164,240,240,164,154.6796,220.0396,39360,39360,34035.6388,dc,null,null,null,null,null,null,"[1,2]"
,canvas-keyboard-response,403,289157,0.0-6.0-1.66,63,,,,,clear_screen,null,null,,,critical,d,c,t,154.6796,220.0396,240,164,164,240,spektor,0.14,h,164,240,240,164,154.6796,220.0396,39360,39360,34035.6388,dc,null,null,null,null,null,null,"[1,2]"
,canvas-keyboard-response,404,290491,0.0-6.0-2.66,63,,,,,rectangles,null,null,,,critical,d,c,t,154.6796,220.0396,240,164,164,240,spektor,0.14,h,164,240,240,164,154.6796,220.0396,39360,39360,34035.6388,dc,null,null,null,null,null,null,"[1,2]"
,canvas-keyboard-response,405,290650,0.0-6.0-3.66,63,,,,,clear_screen,null,null,,,critical,d,c,t,154.6796,220.0396,240,164,164,240,spektor,0.14,h,164,240,240,164,154.6796,220.0396,39360,39360,34035.6388,dc,null,null,null,null,null,null,"[1,2]"
,canvas-keyboard-response,406,292191,0.0-6.0-4.66,63,,,,,make choice,1532,2,,,critical,d,c,t,154.6796,220.0396,240,164,164,240,spektor,0.14,h,164,240,240,164,154.6796,220.0396,39360,39360,34035.6388,dc,null,null,null,null,null,null,"[1,2]"
,canvas-keyboard-response,407,292350,0.0-6.0-5.66,63,,,,,clear_screen,null,null,,,critical,d,c,t,154.6796,220.0396,240,164,164,240,spektor,0.14,h,164,240,240,164,154.6796,220.0396,39360,39360,34035.6388,dc,null,null,null,null,null,null,"[1,2]"
,canvas-keyboard-response,408,292551,0.0-6.0-0.67,63,,,,,pre trial waiting period,null,null,,,critical,d,t,c,240,164,240,164,164,240,trueblood,0,w,240,164,164,240,240,164,39360,39360,39360,td,null,null,null,null,null,null,"[2,1]"
,canvas-keyboard-response,409,292710,0.0-6.0-1.67,63,,,,,clear_screen,null,null,,,critical,d,t,c,240,164,240,164,164,240,trueblood,0,w,240,164,164,240,240,164,39360,39360,39360,td,null,null,null,null,null,null,"[2,1]"
,canvas-keyboard-response,410,294045,0.0-6.0-2.67,63,,,,,rectangles,null,null,,,critical,d,t,c,240,164,240,164,164,240,trueblood,0,w,240,164,164,240,240,164,39360,39360,39360,td,null,null,null,null,null,null,"[2,1]"
,canvas-keyboard-response,411,294205,0.0-6.0-3.67,63,,,,,clear_screen,null,null,,,critical,d,t,c,240,164,240,164,164,240,trueblood,0,w,240,164,164,240,240,164,39360,39360,39360,td,null,null,null,null,null,null,"[2,1]"
,canvas-keyboard-response,412,295310,0.0-6.0-4.67,63,,,,,make choice,1097,1,,,critical,d,t,c,240,164,240,164,164,240,trueblood,0,w,240,164,164,240,240,164,39360,39360,39360,td,null,null,null,null,null,null,"[2,1]"
,canvas-keyboard-response,413,295470,0.0-6.0-5.67,63,,,,,clear_screen,null,null,,,critical,d,t,c,240,164,240,164,164,240,trueblood,0,w,240,164,164,240,240,164,39360,39360,39360,td,null,null,null,null,null,null,"[2,1]"
,canvas-keyboard-response,414,295671,0.0-6.0-0.68,63,,,,,pre trial waiting period,null,null,,,critical,c,t,d,164,240,240,164,227.1683,158.0083,spektor,0.09,w,240,164,164,240,227.1683,158.0083,39360,39360,35894.4834,dc,null,null,null,null,null,null,"[3,1]"
,canvas-keyboard-response,415,295830,0.0-6.0-1.68,63,,,,,clear_screen,null,null,,,critical,c,t,d,164,240,240,164,227.1683,158.0083,spektor,0.09,w,240,164,164,240,227.1683,158.0083,39360,39360,35894.4834,dc,null,null,null,null,null,null,"[3,1]"
,canvas-keyboard-response,416,297165,0.0-6.0-2.68,63,,,,,rectangles,null,null,,,critical,c,t,d,164,240,240,164,227.1683,158.0083,spektor,0.09,w,240,164,164,240,227.1683,158.0083,39360,39360,35894.4834,dc,null,null,null,null,null,null,"[3,1]"
,canvas-keyboard-response,417,297324,0.0-6.0-3.68,63,,,,,clear_screen,null,null,,,critical,c,t,d,164,240,240,164,227.1683,158.0083,spektor,0.09,w,240,164,164,240,227.1683,158.0083,39360,39360,35894.4834,dc,null,null,null,null,null,null,"[3,1]"
,canvas-keyboard-response,418,298238,0.0-6.0-4.68,63,,,,,make choice,906,1,,,critical,c,t,d,164,240,240,164,227.1683,158.0083,spektor,0.09,w,240,164,164,240,227.1683,158.0083,39360,39360,35894.4834,dc,null,null,null,null,null,null,"[3,1]"
,canvas-keyboard-response,419,298397,0.0-6.0-5.68,63,,,,,clear_screen,null,null,,,critical,c,t,d,164,240,240,164,227.1683,158.0083,spektor,0.09,w,240,164,164,240,227.1683,158.0083,39360,39360,35894.4834,dc,null,null,null,null,null,null,"[3,1]"
,canvas-keyboard-response,420,298598,0.0-6.0-0.69,63,,,,,pre trial waiting period,null,null,,,critical,d,c,t,162.6685,237.1485,240,164,164,240,trueblood,0.02,h,164,240,240,164,162.6685,237.1485,39360,39360,38576.5967,tc,null,null,null,null,null,null,"[3,2]"
,canvas-keyboard-response,421,298757,0.0-6.0-1.69,63,,,,,clear_screen,null,null,,,critical,d,c,t,162.6685,237.1485,240,164,164,240,trueblood,0.02,h,164,240,240,164,162.6685,237.1485,39360,39360,38576.5967,tc,null,null,null,null,null,null,"[3,2]"
,canvas-keyboard-response,422,300092,0.0-6.0-2.69,63,,,,,rectangles,null,null,,,critical,d,c,t,162.6685,237.1485,240,164,164,240,trueblood,0.02,h,164,240,240,164,162.6685,237.1485,39360,39360,38576.5967,tc,null,null,null,null,null,null,"[3,2]"
