"success","trial_type","trial_index","time_elapsed","internal_node_id","sub_n","timeout","failed_images","failed_audio","failed_video","screen_id","rt","response","stimulus","view_history","trial","r1","r2","r3","w1","h1","w2","h2","w3","h3","display","tdd","tdo","tw","th","cw","ch","dw","dh","ta","ca","da","probe","csls","csss","clls","clss","sa","la","probe_rects"
"true","fullscreen","0","2220","0.0-0.0","5003","","","","","","","","","","","","","","","","","","","","","","","","","","","","","","","","","","","","","","",""
"true","preload","1","2260","0.0-1.0","5003","false","[]","[]","[]","img preload","","","","","","","","","","","","","","","","","","","","","","","","","","","","","","","","","",""
"","survey-html-form","2","4539","0.0-2.0","5003","","","","","enter-sub-number","2268","{""response"":""5003""}","","","","","","","","","","","","","","","","","","","","","","","","","","","","","","","",""
"","image-button-response","3","13791","0.0-3.0","5003","","","","","","9130","0","consent.png","","","","","","","","","","","","","","","","","","","","","","","","","","","","","","",""
"","html-button-response","4","16462","0.0-4.0","5003","","","","","intro mssg","2667","0","<div style= ""font-size:25px;"" <p> <strong> Welcome! </strong><br> <p style=""color:#8B0000; font-size:25px;""><strong> Please do NOT exit full screen until you are done with the experiment. </strong> </p><p style=""font-size:25px;color:#8B0000;""> <strong> Your data will be lost <br> if you try to go back or refresh the page after the experiment starts. Feel free to click ""previous"" during the instructions, however.</strong> </p><br><p> <strong> Thanks in advance for your contribution to our research! </strong></p>","","","","","","","","","","","","","","","","","","","","","","","","","","","","","","",""
"","instructions","5","46998","0.0-5.0","5003","","","","","instructions","30533","","","[{""page_index"":0,""viewing_time"":4117},{""page_index"":1,""viewing_time"":10407},{""page_index"":2,""viewing_time"":2200},{""page_index"":3,""viewing_time"":4751},{""page_index"":4,""viewing_time"":4393},{""page_index"":5,""viewing_time"":2304},{""page_index"":6,""viewing_time"":1583},{""page_index"":7,""viewing_time"":777}]","","","","","","","","","","","","","","","","","","","","","","","","","","","","","",""
"","canvas-keyboard-response","6","47202","0.0-6.0-0.0","5003","","","","","pre trial waiting period","null","null","","","critical","t","c","d","164","240","240","164","160.6713","232.8713","trueblood","0.05","h","164","240","240","164","160.6713","232.8713","39360","39360","37415.7294","dc","null","null","null","null","null","null","[3,2]"
"","canvas-keyboard-response","7","47367","0.0-6.0-1.0","5003","","","","","clear_screen","null","null","","","critical","t","c","d","164","240","240","164","160.6713","232.8713","trueblood","0.05","h","164","240","240","164","160.6713","232.8713","39360","39360","37415.7294","dc","null","null","null","null","null","null","[3,2]"
"","canvas-keyboard-response","8","48714","0.0-6.0-2.0","5003","","","","","rectangles","null","null","","","critical","t","c","d","164","240","240","164","160.6713","232.8713","trueblood","0.05","h","164","240","240","164","160.6713","232.8713","39360","39360","37415.7294","dc","null","null","null","null","null","null","[3,2]"
"","canvas-keyboard-response","9","48876","0.0-6.0-3.0","5003","","","","","clear_screen","null","null","","","critical","t","c","d","164","240","240","164","160.6713","232.8713","trueblood","0.05","h","164","240","240","164","160.6713","232.8713","39360","39360","37415.7294","dc","null","null","null","null","null","null","[3,2]"
"","canvas-keyboard-response","10","49332","0.0-6.0-4.0","5003","","","","","make choice","441","2","","","critical","t","c","d","164","240","240","164","160.6713","232.8713","trueblood","0.05","h","164","240","240","164","160.6713","232.8713","39360","39360","37415.7294","dc","null","null","null","null","null","null","[3,2]"
"","canvas-keyboard-response","11","49495","0.0-6.0-5.0","5003","","","","","clear_screen","null","null","","","critical","t","c","d","164","240","240","164","160.6713","232.8713","trueblood","0.05","h","164","240","240","164","160.6713","232.8713","39360","39360","37415.7294","dc","null","null","null","null","null","null","[3,2]"
"","canvas-keyboard-response","12","49699","0.0-6.0-0.1","5003","","","","","pre trial waiting period","null","null","","","critical","d","t","c","227.1683","158.0083","240","164","164","240","trueblood","0.09","w","240","164","164","240","227.1683","158.0083","39360","39360","35894.4834","tc","null","null","null","null","null","null","[2,3]"
"","canvas-keyboard-response","13","49858","0.0-6.0-1.1","5003","","","","","clear_screen","null","null","","","critical","d","t","c","227.1683","158.0083","240","164","164","240","trueblood","0.09","w","240","164","164","240","227.1683","158.0083","39360","39360","35894.4834","tc","null","null","null","null","null","null","[2,3]"
"","canvas-keyboard-response","14","51196","0.0-6.0-2.1","5003","","","","","rectangles","null","null","","","critical","d","t","c","227.1683","158.0083","240","164","164","240","trueblood","0.09","w","240","164","164","240","227.1683","158.0083","39360","39360","35894.4834","tc","null","null","null","null","null","null","[2,3]"
"","canvas-keyboard-response","15","51359","0.0-6.0-3.1","5003","","","","","clear_screen","null","null","","","critical","d","t","c","227.1683","158.0083","240","164","164","240","trueblood","0.09","w","240","164","164","240","227.1683","158.0083","39360","39360","35894.4834","tc","null","null","null","null","null","null","[2,3]"
"","canvas-keyboard-response","16","52588","0.0-6.0-4.1","5003","","","","","make choice","1217","2","","","critical","d","t","c","227.1683","158.0083","240","164","164","240","trueblood","0.09","w","240","164","164","240","227.1683","158.0083","39360","39360","35894.4834","tc","null","null","null","null","null","null","[2,3]"
"","canvas-keyboard-response","17","52754","0.0-6.0-5.1","5003","","","","","clear_screen","null","null","","","critical","d","t","c","227.1683","158.0083","240","164","164","240","trueblood","0.09","w","240","164","164","240","227.1683","158.0083","39360","39360","35894.4834","tc","null","null","null","null","null","null","[2,3]"
"","canvas-keyboard-response","18","52958","0.0-6.0-0.2","5003","","","","","pre trial waiting period","null","null","","","catch","sh","l","sw","184","201","216","285","157","196","trueblood","null","null","null","null","null","null","null","null","null","null","null","","180","200","260","200","36000","52000","[1,2]"
"","canvas-keyboard-response","19","53117","0.0-6.0-1.2","5003","","","","","clear_screen","null","null","","","catch","sh","l","sw","184","201","216","285","157","196","trueblood","null","null","null","null","null","null","null","null","null","null","null","","180","200","260","200","36000","52000","[1,2]"
"","canvas-keyboard-response","20","54455","0.0-6.0-2.2","5003","","","","","rectangles","null","null","","","catch","sh","l","sw","184","201","216","285","157","196","trueblood","null","null","null","null","null","null","null","null","null","null","null","","180","200","260","200","36000","52000","[1,2]"
"","canvas-keyboard-response","21","54616","0.0-6.0-3.2","5003","","","","","clear_screen","null","null","","","catch","sh","l","sw","184","201","216","285","157","196","trueblood","null","null","null","null","null","null","null","null","null","null","null","","180","200","260","200","36000","52000","[1,2]"
"","canvas-keyboard-response","22","55819","0.0-6.0-4.2","5003","","","","","make choice","1191","2","","","catch","sh","l","sw","184","201","216","285","157","196","trueblood","null","null","null","null","null","null","null","null","null","null","null","","180","200","260","200","36000","52000","[1,2]"
"","canvas-keyboard-response","23","55981","0.0-6.0-5.2","5003","","","","","clear_screen","null","null","","","catch","sh","l","sw","184","201","216","285","157","196","trueblood","null","null","null","null","null","null","null","null","null","null","null","","180","200","260","200","36000","52000","[1,2]"
"","canvas-keyboard-response","24","56184","0.0-6.0-0.3","5003","","","","","pre trial waiting period","null","null","","","critical","c","d","t","240","164","158.0083","227.1683","164","240","spektor","0.09","h","164","240","240","164","158.0083","227.1683","39360","39360","35894.4834","tc","null","null","null","null","null","null","[3,1]"
"","canvas-keyboard-response","25","56344","0.0-6.0-1.3","5003","","","","","clear_screen","null","null","","","critical","c","d","t","240","164","158.0083","227.1683","164","240","spektor","0.09","h","164","240","240","164","158.0083","227.1683","39360","39360","35894.4834","tc","null","null","null","null","null","null","[3,1]"
"","canvas-keyboard-response","26","57683","0.0-6.0-2.3","5003","","","","","rectangles","null","null","","","critical","c","d","t","240","164","158.0083","227.1683","164","240","spektor","0.09","h","164","240","240","164","158.0083","227.1683","39360","39360","35894.4834","tc","null","null","null","null","null","null","[3,1]"
"","canvas-keyboard-response","27","57845","0.0-6.0-3.3","5003","","","","","clear_screen","null","null","","","critical","c","d","t","240","164","158.0083","227.1683","164","240","spektor","0.09","h","164","240","240","164","158.0083","227.1683","39360","39360","35894.4834","tc","null","null","null","null","null","null","[3,1]"
"","canvas-keyboard-response","28","58860","0.0-6.0-4.3","5003","","","","","make choice","1005","3","","","critical","c","d","t","240","164","158.0083","227.1683","164","240","spektor","0.09","h","164","240","240","164","158.0083","227.1683","39360","39360","35894.4834","tc","null","null","null","null","null","null","[3,1]"
"","canvas-keyboard-response","29","59021","0.0-6.0-5.3","5003","","","","","clear_screen","null","null","","","critical","c","d","t","240","164","158.0083","227.1683","164","240","spektor","0.09","h","164","240","240","164","158.0083","227.1683","39360","39360","35894.4834","tc","null","null","null","null","null","null","[3,1]"
"","canvas-keyboard-response","30","59226","0.0-6.0-0.4","5003","","","","","pre trial waiting period","null","null","","","catch","l","sw","sh","231","225","147","174","228","154","trueblood","null","null","null","null","null","null","null","null","null","null","null","","180","200","260","200","36000","52000","[1,3]"
"","canvas-keyboard-response","31","59386","0.0-6.0-1.4","5003","","","","","clear_screen","null","null","","","catch","l","sw","sh","231","225","147","174","228","154","trueblood","null","null","null","null","null","null","null","null","null","null","null","","180","200","260","200","36000","52000","[1,3]"
"","canvas-keyboard-response","32","60725","0.0-6.0-2.4","5003","","","","","rectangles","null","null","","","catch","l","sw","sh","231","225","147","174","228","154","trueblood","null","null","null","null","null","null","null","null","null","null","null","","180","200","260","200","36000","52000","[1,3]"
"","canvas-keyboard-response","33","60885","0.0-6.0-3.4","5003","","","","","clear_screen","null","null","","","catch","l","sw","sh","231","225","147","174","228","154","trueblood","null","null","null","null","null","null","null","null","null","null","null","","180","200","260","200","36000","52000","[1,3]"
"","canvas-keyboard-response","34","61451","0.0-6.0-4.4","5003","","","","","make choice","553","1","","","catch","l","sw","sh","231","225","147","174","228","154","trueblood","null","null","null","null","null","null","null","null","null","null","null","","180","200","260","200","36000","52000","[1,3]"
"","canvas-keyboard-response","35","61613","0.0-6.0-5.4","5003","","","","","clear_screen","null","null","","","catch","l","sw","sh","231","225","147","174","228","154","trueblood","null","null","null","null","null","null","null","null","null","null","null","","180","200","260","200","36000","52000","[1,3]"
"","canvas-keyboard-response","36","61818","0.0-6.0-0.5","5003","","","","","pre trial waiting period","null","null","","","critical","t","d","c","240","164","237.1485","162.6685","164","240","spektor","0.02","w","240","164","164","240","237.1485","162.6685","39360","39360","38576.5967","tc","null","null","null","null","null","null","[1,3]"
"","canvas-keyboard-response","37","61977","0.0-6.0-1.5","5003","","","","","clear_screen","null","null","","","critical","t","d","c","240","164","237.1485","162.6685","164","240","spektor","0.02","w","240","164","164","240","237.1485","162.6685","39360","39360","38576.5967","tc","null","null","null","null","null","null","[1,3]"
"","canvas-keyboard-response","38","63317","0.0-6.0-2.5","5003","","","","","rectangles","null","null","","","critical","t","d","c","240","164","237.1485","162.6685","164","240","spektor","0.02","w","240","164","164","240","237.1485","162.6685","39360","39360","38576.5967","tc","null","null","null","null","null","null","[1,3]"
"","canvas-keyboard-response","39","63478","0.0-6.0-3.5","5003","","","","","clear_screen","null","null","","","critical","t","d","c","240","164","237.1485","162.6685","164","240","spektor","0.02","w","240","164","164","240","237.1485","162.6685","39360","39360","38576.5967","tc","null","null","null","null","null","null","[1,3]"
"","canvas-keyboard-response","40","64404","0.0-6.0-4.5","5003","","","","","make choice","909","3","","","critical","t","d","c","240","164","237.1485","162.6685","164","240","spektor","0.02","w","240","164","164","240","237.1485","162.6685","39360","39360","38576.5967","tc","null","null","null","null","null","null","[1,3]"
"","canvas-keyboard-response","41","64565","0.0-6.0-5.5","5003","","","","","clear_screen","null","null","","","critical","t","d","c","240","164","237.1485","162.6685","164","240","spektor","0.02","w","240","164","164","240","237.1485","162.6685","39360","39360","38576.5967","tc","null","null","null","null","null","null","[1,3]"
"","canvas-keyboard-response","42","64770","0.0-6.0-0.6","5003","","","","","pre trial waiting period","null","null","","","critical","c","t","d","240","164","164","240","162.6685","237.1485","spektor","0.02","h","164","240","240","164","162.6685","237.1485","39360","39360","38576.5967","dc","null","null","null","null","null","null","[3,1]"
"","canvas-keyboard-response","43","64928","0.0-6.0-1.6","5003","","","","","clear_screen","null","null","","","critical","c","t","d","240","164","164","240","162.6685","237.1485","spektor","0.02","h","164","240","240","164","162.6685","237.1485","39360","39360","38576.5967","dc","null","null","null","null","null","null","[3,1]"
"","canvas-keyboard-response","44","66267","0.0-6.0-2.6","5003","","","","","rectangles","null","null","","","critical","c","t","d","240","164","164","240","162.6685","237.1485","spektor","0.02","h","164","240","240","164","162.6685","237.1485","39360","39360","38576.5967","dc","null","null","null","null","null","null","[3,1]"
"","canvas-keyboard-response","45","66429","0.0-6.0-3.6","5003","","","","","clear_screen","null","null","","","critical","c","t","d","240","164","164","240","162.6685","237.1485","spektor","0.02","h","164","240","240","164","162.6685","237.1485","39360","39360","38576.5967","dc","null","null","null","null","null","null","[3,1]"
"","canvas-keyboard-response","46","69219","0.0-6.0-4.6","5003","","","","","make choice","2777","3","","","critical","c","t","d","240","164","164","240","162.6685","237.1485","spektor","0.02","h","164","240","240","164","162.6685","237.1485","39360","39360","38576.5967","dc","null","null","null","null","null","null","[3,1]"
"","canvas-keyboard-response","47","69380","0.0-6.0-5.6","5003","","","","","clear_screen","null","null","","","critical","c","t","d","240","164","164","240","162.6685","237.1485","spektor","0.02","h","164","240","240","164","162.6685","237.1485","39360","39360","38576.5967","dc","null","null","null","null","null","null","[3,1]"
"","canvas-keyboard-response","48","69585","0.0-6.0-0.7","5003","","","","","pre trial waiting period","null","null","","","critical","c","t","d","164","240","240","164","232.8713","160.6713","trueblood","0.05","w","240","164","164","240","232.8713","160.6713","39360","39360","37415.7294","td","null","null","null","null","null","null","[2,3]"
"","canvas-keyboard-response","49","69744","0.0-6.0-1.7","5003","","","","","clear_screen","null","null","","","critical","c","t","d","164","240","240","164","232.8713","160.6713","trueblood","0.05","w","240","164","164","240","232.8713","160.6713","39360","39360","37415.7294","td","null","null","null","null","null","null","[2,3]"
"","canvas-keyboard-response","50","71082","0.0-6.0-2.7","5003","","","","","rectangles","null","null","","","critical","c","t","d","164","240","240","164","232.8713","160.6713","trueblood","0.05","w","240","164","164","240","232.8713","160.6713","39360","39360","37415.7294","td","null","null","null","null","null","null","[2,3]"
"","canvas-keyboard-response","51","71244","0.0-6.0-3.7","5003","","","","","clear_screen","null","null","","","critical","c","t","d","164","240","240","164","232.8713","160.6713","trueblood","0.05","w","240","164","164","240","232.8713","160.6713","39360","39360","37415.7294","td","null","null","null","null","null","null","[2,3]"
"","canvas-keyboard-response","52","72244","0.0-6.0-4.7","5003","","","","","make choice","987","2","","","critical","c","t","d","164","240","240","164","232.8713","160.6713","trueblood","0.05","w","240","164","164","240","232.8713","160.6713","39360","39360","37415.7294","td","null","null","null","null","null","null","[2,3]"
"","canvas-keyboard-response","53","72417","0.0-6.0-5.7","5003","","","","","clear_screen","null","null","","","critical","c","t","d","164","240","240","164","232.8713","160.6713","trueblood","0.05","w","240","164","164","240","232.8713","160.6713","39360","39360","37415.7294","td","null","null","null","null","null","null","[2,3]"
"","canvas-keyboard-response","54","72629","0.0-6.0-0.8","5003","","","","","pre trial waiting period","null","null","","","critical","c","d","t","164","240","232.8713","160.6713","240","164","spektor","0.05","w","240","164","164","240","232.8713","160.6713","39360","39360","37415.7294","tc","null","null","null","null","null","null","[3,1]"
"","canvas-keyboard-response","55","72790","0.0-6.0-1.8","5003","","","","","clear_screen","null","null","","","critical","c","d","t","164","240","232.8713","160.6713","240","164","spektor","0.05","w","240","164","164","240","232.8713","160.6713","39360","39360","37415.7294","tc","null","null","null","null","null","null","[3,1]"
"","canvas-keyboard-response","56","74133","0.0-6.0-2.8","5003","","","","","rectangles","null","null","","","critical","c","d","t","164","240","232.8713","160.6713","240","164","spektor","0.05","w","240","164","164","240","232.8713","160.6713","39360","39360","37415.7294","tc","null","null","null","null","null","null","[3,1]"
"","canvas-keyboard-response","57","74300","0.0-6.0-3.8","5003","","","","","clear_screen","null","null","","","critical","c","d","t","164","240","232.8713","160.6713","240","164","spektor","0.05","w","240","164","164","240","232.8713","160.6713","39360","39360","37415.7294","tc","null","null","null","null","null","null","[3,1]"
"","canvas-keyboard-response","58","77011","0.0-6.0-4.8","5003","","","","","make choice","2695","1","","","critical","c","d","t","164","240","232.8713","160.6713","240","164","spektor","0.05","w","240","164","164","240","232.8713","160.6713","39360","39360","37415.7294","tc","null","null","null","null","null","null","[3,1]"
"","canvas-keyboard-response","59","77176","0.0-6.0-5.8","5003","","","","","clear_screen","null","null","","","critical","c","d","t","164","240","232.8713","160.6713","240","164","spektor","0.05","w","240","164","164","240","232.8713","160.6713","39360","39360","37415.7294","tc","null","null","null","null","null","null","[3,1]"
"","canvas-keyboard-response","60","77385","0.0-6.0-0.9","5003","","","","","pre trial waiting period","null","null","","","critical","d","c","t","154.6796","220.0396","240","164","164","240","trueblood","0.14","h","164","240","240","164","154.6796","220.0396","39360","39360","34035.6388","td","null","null","null","null","null","null","[3,1]"
"","canvas-keyboard-response","61","77545","0.0-6.0-1.9","5003","","","","","clear_screen","null","null","","","critical","d","c","t","154.6796","220.0396","240","164","164","240","trueblood","0.14","h","164","240","240","164","154.6796","220.0396","39360","39360","34035.6388","td","null","null","null","null","null","null","[3,1]"
"","canvas-keyboard-response","62","78890","0.0-6.0-2.9","5003","","","","","rectangles","null","null","","","critical","d","c","t","154.6796","220.0396","240","164","164","240","trueblood","0.14","h","164","240","240","164","154.6796","220.0396","39360","39360","34035.6388","td","null","null","null","null","null","null","[3,1]"
"","canvas-keyboard-response","63","79054","0.0-6.0-3.9","5003","","","","","clear_screen","null","null","","","critical","d","c","t","154.6796","220.0396","240","164","164","240","trueblood","0.14","h","164","240","240","164","154.6796","220.0396","39360","39360","34035.6388","td","null","null","null","null","null","null","[3,1]"
"","canvas-keyboard-response","64","80267","0.0-6.0-4.9","5003","","","","","make choice","1199","3","","","critical","d","c","t","154.6796","220.0396","240","164","164","240","trueblood","0.14","h","164","240","240","164","154.6796","220.0396","39360","39360","34035.6388","td","null","null","null","null","null","null","[3,1]"
"","canvas-keyboard-response","65","80431","0.0-6.0-5.9","5003","","","","","clear_screen","null","null","","","critical","d","c","t","154.6796","220.0396","240","164","164","240","trueblood","0.14","h","164","240","240","164","154.6796","220.0396","39360","39360","34035.6388","td","null","null","null","null","null","null","[3,1]"
"","canvas-keyboard-response","66","80638","0.0-6.0-0.10","5003","","","","","pre trial waiting period","null","null","","","catch","sw","sh","l","180","200","167","190","266","165","spektor","null","null","null","null","null","null","null","null","null","null","null","","180","200","260","200","36000","52000","[1,3]"
"","canvas-keyboard-response","67","80798","0.0-6.0-1.10","5003","","","","","clear_screen","null","null","","","catch","sw","sh","l","180","200","167","190","266","165","spektor","null","null","null","null","null","null","null","null","null","null","null","","180","200","260","200","36000","52000","[1,3]"
"","canvas-keyboard-response","68","82138","0.0-6.0-2.10","5003","","","","","rectangles","null","null","","","catch","sw","sh","l","180","200","167","190","266","165","spektor","null","null","null","null","null","null","null","null","null","null","null","","180","200","260","200","36000","52000","[1,3]"
"","canvas-keyboard-response","69","82301","0.0-6.0-3.10","5003","","","","","clear_screen","null","null","","","catch","sw","sh","l","180","200","167","190","266","165","spektor","null","null","null","null","null","null","null","null","null","null","null","","180","200","260","200","36000","52000","[1,3]"
"","canvas-keyboard-response","70","83203","0.0-6.0-4.10","5003","","","","","make choice","886","3","","","catch","sw","sh","l","180","200","167","190","266","165","spektor","null","null","null","null","null","null","null","null","null","null","null","","180","200","260","200","36000","52000","[1,3]"
"","canvas-keyboard-response","71","83365","0.0-6.0-5.10","5003","","","","","clear_screen","null","null","","","catch","sw","sh","l","180","200","167","190","266","165","spektor","null","null","null","null","null","null","null","null","null","null","null","","180","200","260","200","36000","52000","[1,3]"
"","canvas-keyboard-response","72","83572","0.0-6.0-0.11","5003","","","","","pre trial waiting period","null","null","","","critical","d","c","t","237.1485","162.6685","164","240","240","164","trueblood","0.02","w","240","164","164","240","237.1485","162.6685","39360","39360","38576.5967","tc","null","null","null","null","null","null","[3,2]"
"","canvas-keyboard-response","73","83732","0.0-6.0-1.11","5003","","","","","clear_screen","null","null","","","critical","d","c","t","237.1485","162.6685","164","240","240","164","trueblood","0.02","w","240","164","164","240","237.1485","162.6685","39360","39360","38576.5967","tc","null","null","null","null","null","null","[3,2]"
"","canvas-keyboard-response","74","85072","0.0-6.0-2.11","5003","","","","","rectangles","null","null","","","critical","d","c","t","237.1485","162.6685","164","240","240","164","trueblood","0.02","w","240","164","164","240","237.1485","162.6685","39360","39360","38576.5967","tc","null","null","null","null","null","null","[3,2]"
"","canvas-keyboard-response","75","85237","0.0-6.0-3.11","5003","","","","","clear_screen","null","null","","","critical","d","c","t","237.1485","162.6685","164","240","240","164","trueblood","0.02","w","240","164","164","240","237.1485","162.6685","39360","39360","38576.5967","tc","null","null","null","null","null","null","[3,2]"
"","canvas-keyboard-response","76","86963","0.0-6.0-4.11","5003","","","","","make choice","1712","3","","","critical","d","c","t","237.1485","162.6685","164","240","240","164","trueblood","0.02","w","240","164","164","240","237.1485","162.6685","39360","39360","38576.5967","tc","null","null","null","null","null","null","[3,2]"
"","canvas-keyboard-response","77","87126","0.0-6.0-5.11","5003","","","","","clear_screen","null","null","","","critical","d","c","t","237.1485","162.6685","164","240","240","164","trueblood","0.02","w","240","164","164","240","237.1485","162.6685","39360","39360","38576.5967","tc","null","null","null","null","null","null","[3,2]"
"","canvas-keyboard-response","78","87334","0.0-6.0-0.12","5003","","","","","pre trial waiting period","null","null","","","critical","c","d","t","240","164","164","240","164","240","trueblood","0","h","164","240","240","164","164","240","39360","39360","39360","dc","null","null","null","null","null","null","[2,1]"
"","canvas-keyboard-response","79","87493","0.0-6.0-1.12","5003","","","","","clear_screen","null","null","","","critical","c","d","t","240","164","164","240","164","240","trueblood","0","h","164","240","240","164","164","240","39360","39360","39360","dc","null","null","null","null","null","null","[2,1]"
"","canvas-keyboard-response","80","88836","0.0-6.0-2.12","5003","","","","","rectangles","null","null","","","critical","c","d","t","240","164","164","240","164","240","trueblood","0","h","164","240","240","164","164","240","39360","39360","39360","dc","null","null","null","null","null","null","[2,1]"
"","canvas-keyboard-response","81","89001","0.0-6.0-3.12","5003","","","","","clear_screen","null","null","","","critical","c","d","t","240","164","164","240","164","240","trueblood","0","h","164","240","240","164","164","240","39360","39360","39360","dc","null","null","null","null","null","null","[2,1]"
"","canvas-keyboard-response","82","90491","0.0-6.0-4.12","5003","","","","","make choice","1477","1","","","critical","c","d","t","240","164","164","240","164","240","trueblood","0","h","164","240","240","164","164","240","39360","39360","39360","dc","null","null","null","null","null","null","[2,1]"
"","canvas-keyboard-response","83","90655","0.0-6.0-5.12","5003","","","","","clear_screen","null","null","","","critical","c","d","t","240","164","164","240","164","240","trueblood","0","h","164","240","240","164","164","240","39360","39360","39360","dc","null","null","null","null","null","null","[2,1]"
"","canvas-keyboard-response","84","90863","0.0-6.0-0.13","5003","","","","","pre trial waiting period","null","null","","","critical","t","d","c","164","240","154.6796","220.0396","240","164","spektor","0.14","h","164","240","240","164","154.6796","220.0396","39360","39360","34035.6388","dc","null","null","null","null","null","null","[2,3]"
"","canvas-keyboard-response","85","91023","0.0-6.0-1.13","5003","","","","","clear_screen","null","null","","","critical","t","d","c","164","240","154.6796","220.0396","240","164","spektor","0.14","h","164","240","240","164","154.6796","220.0396","39360","39360","34035.6388","dc","null","null","null","null","null","null","[2,3]"
"","canvas-keyboard-response","86","92362","0.0-6.0-2.13","5003","","","","","rectangles","null","null","","","critical","t","d","c","164","240","154.6796","220.0396","240","164","spektor","0.14","h","164","240","240","164","154.6796","220.0396","39360","39360","34035.6388","dc","null","null","null","null","null","null","[2,3]"
"","canvas-keyboard-response","87","92527","0.0-6.0-3.13","5003","","","","","clear_screen","null","null","","","critical","t","d","c","164","240","154.6796","220.0396","240","164","spektor","0.14","h","164","240","240","164","154.6796","220.0396","39360","39360","34035.6388","dc","null","null","null","null","null","null","[2,3]"
"","canvas-keyboard-response","88","93859","0.0-6.0-4.13","5003","","","","","make choice","1317","3","","","critical","t","d","c","164","240","154.6796","220.0396","240","164","spektor","0.14","h","164","240","240","164","154.6796","220.0396","39360","39360","34035.6388","dc","null","null","null","null","null","null","[2,3]"
"","canvas-keyboard-response","89","94024","0.0-6.0-5.13","5003","","","","","clear_screen","null","null","","","critical","t","d","c","164","240","154.6796","220.0396","240","164","spektor","0.14","h","164","240","240","164","154.6796","220.0396","39360","39360","34035.6388","dc","null","null","null","null","null","null","[2,3]"
"","canvas-keyboard-response","90","94233","0.0-6.0-0.14","5003","","","","","pre trial waiting period","null","null","","","critical","t","d","c","164","240","164","240","240","164","spektor","0","h","164","240","240","164","164","240","39360","39360","39360","td","null","null","null","null","null","null","[1,2]"
"","canvas-keyboard-response","91","94392","0.0-6.0-1.14","5003","","","","","clear_screen","null","null","","","critical","t","d","c","164","240","164","240","240","164","spektor","0","h","164","240","240","164","164","240","39360","39360","39360","td","null","null","null","null","null","null","[1,2]"
"","canvas-keyboard-response","92","95737","0.0-6.0-2.14","5003","","","","","rectangles","null","null","","","critical","t","d","c","164","240","164","240","240","164","spektor","0","h","164","240","240","164","164","240","39360","39360","39360","td","null","null","null","null","null","null","[1,2]"
"","canvas-keyboard-response","93","95901","0.0-6.0-3.14","5003","","","","","clear_screen","null","null","","","critical","t","d","c","164","240","164","240","240","164","spektor","0","h","164","240","240","164","164","240","39360","39360","39360","td","null","null","null","null","null","null","[1,2]"
"","canvas-keyboard-response","94","97675","0.0-6.0-4.14","5003","","","","","make choice","1759","1","","","critical","t","d","c","164","240","164","240","240","164","spektor","0","h","164","240","240","164","164","240","39360","39360","39360","td","null","null","null","null","null","null","[1,2]"
"","canvas-keyboard-response","95","97839","0.0-6.0-5.14","5003","","","","","clear_screen","null","null","","","critical","t","d","c","164","240","164","240","240","164","spektor","0","h","164","240","240","164","164","240","39360","39360","39360","td","null","null","null","null","null","null","[1,2]"
"","canvas-keyboard-response","96","98048","0.0-6.0-0.15","5003","","","","","pre trial waiting period","null","null","","","critical","t","c","d","240","164","164","240","237.1485","162.6685","spektor","0.02","w","240","164","164","240","237.1485","162.6685","39360","39360","38576.5967","td","null","null","null","null","null","null","[1,3]"
"","canvas-keyboard-response","97","98207","0.0-6.0-1.15","5003","","","","","clear_screen","null","null","","","critical","t","c","d","240","164","164","240","237.1485","162.6685","spektor","0.02","w","240","164","164","240","237.1485","162.6685","39360","39360","38576.5967","td","null","null","null","null","null","null","[1,3]"
"","canvas-keyboard-response","98","99548","0.0-6.0-2.15","5003","","","","","rectangles","null","null","","","critical","t","c","d","240","164","164","240","237.1485","162.6685","spektor","0.02","w","240","164","164","240","237.1485","162.6685","39360","39360","38576.5967","td","null","null","null","null","null","null","[1,3]"
"","canvas-keyboard-response","99","99713","0.0-6.0-3.15","5003","","","","","clear_screen","null","null","","","critical","t","c","d","240","164","164","240","237.1485","162.6685","spektor","0.02","w","240","164","164","240","237.1485","162.6685","39360","39360","38576.5967","td","null","null","null","null","null","null","[1,3]"
"","canvas-keyboard-response","100","100531","0.0-6.0-4.15","5003","","","","","make choice","805","3","","","critical","t","c","d","240","164","164","240","237.1485","162.6685","spektor","0.02","w","240","164","164","240","237.1485","162.6685","39360","39360","38576.5967","td","null","null","null","null","null","null","[1,3]"
"","canvas-keyboard-response","101","100696","0.0-6.0-5.15","5003","","","","","clear_screen","null","null","","","critical","t","c","d","240","164","164","240","237.1485","162.6685","spektor","0.02","w","240","164","164","240","237.1485","162.6685","39360","39360","38576.5967","td","null","null","null","null","null","null","[1,3]"
"","canvas-keyboard-response","102","100904","0.0-6.0-0.16","5003","","","","","pre trial waiting period","null","null","","","critical","t","c","d","240","164","164","240","237.1485","162.6685","trueblood","0.02","w","240","164","164","240","237.1485","162.6685","39360","39360","38576.5967","td","null","null","null","null","null","null","[1,3]"
"","canvas-keyboard-response","103","101064","0.0-6.0-1.16","5003","","","","","clear_screen","null","null","","","critical","t","c","d","240","164","164","240","237.1485","162.6685","trueblood","0.02","w","240","164","164","240","237.1485","162.6685","39360","39360","38576.5967","td","null","null","null","null","null","null","[1,3]"
"","canvas-keyboard-response","104","102404","0.0-6.0-2.16","5003","","","","","rectangles","null","null","","","critical","t","c","d","240","164","164","240","237.1485","162.6685","trueblood","0.02","w","240","164","164","240","237.1485","162.6685","39360","39360","38576.5967","td","null","null","null","null","null","null","[1,3]"
"","canvas-keyboard-response","105","102571","0.0-6.0-3.16","5003","","","","","clear_screen","null","null","","","critical","t","c","d","240","164","164","240","237.1485","162.6685","trueblood","0.02","w","240","164","164","240","237.1485","162.6685","39360","39360","38576.5967","td","null","null","null","null","null","null","[1,3]"
"","canvas-keyboard-response","106","103739","0.0-6.0-4.16","5003","","","","","make choice","1154","3","","","critical","t","c","d","240","164","164","240","237.1485","162.6685","trueblood","0.02","w","240","164","164","240","237.1485","162.6685","39360","39360","38576.5967","td","null","null","null","null","null","null","[1,3]"
"","canvas-keyboard-response","107","103903","0.0-6.0-5.16","5003","","","","","clear_screen","null","null","","","critical","t","c","d","240","164","164","240","237.1485","162.6685","trueblood","0.02","w","240","164","164","240","237.1485","162.6685","39360","39360","38576.5967","td","null","null","null","null","null","null","[1,3]"
"","canvas-keyboard-response","108","104111","0.0-6.0-0.17","5003","","","","","pre trial waiting period","null","null","","","critical","t","c","d","164","240","240","164","158.0083","227.1683","spektor","0.09","h","164","240","240","164","158.0083","227.1683","39360","39360","35894.4834","dc","null","null","null","null","null","null","[3,2]"
"","canvas-keyboard-response","109","104271","0.0-6.0-1.17","5003","","","","","clear_screen","null","null","","","critical","t","c","d","164","240","240","164","158.0083","227.1683","spektor","0.09","h","164","240","240","164","158.0083","227.1683","39360","39360","35894.4834","dc","null","null","null","null","null","null","[3,2]"
"","canvas-keyboard-response","110","105612","0.0-6.0-2.17","5003","","","","","rectangles","null","null","","","critical","t","c","d","164","240","240","164","158.0083","227.1683","spektor","0.09","h","164","240","240","164","158.0083","227.1683","39360","39360","35894.4834","dc","null","null","null","null","null","null","[3,2]"
"","canvas-keyboard-response","111","105775","0.0-6.0-3.17","5003","","","","","clear_screen","null","null","","","critical","t","c","d","164","240","240","164","158.0083","227.1683","spektor","0.09","h","164","240","240","164","158.0083","227.1683","39360","39360","35894.4834","dc","null","null","null","null","null","null","[3,2]"
"","canvas-keyboard-response","112","106962","0.0-6.0-4.17","5003","","","","","make choice","1171","2","","","critical","t","c","d","164","240","240","164","158.0083","227.1683","spektor","0.09","h","164","240","240","164","158.0083","227.1683","39360","39360","35894.4834","dc","null","null","null","null","null","null","[3,2]"
"","canvas-keyboard-response","113","107129","0.0-6.0-5.17","5003","","","","","clear_screen","null","null","","","critical","t","c","d","164","240","240","164","158.0083","227.1683","spektor","0.09","h","164","240","240","164","158.0083","227.1683","39360","39360","35894.4834","dc","null","null","null","null","null","null","[3,2]"
"","canvas-keyboard-response","114","107338","0.0-6.0-0.18","5003","","","","","pre trial waiting period","null","null","","","critical","t","c","d","164","240","240","164","160.6713","232.8713","trueblood","0.05","h","164","240","240","164","160.6713","232.8713","39360","39360","37415.7294","tc","null","null","null","null","null","null","[1,2]"
"","canvas-keyboard-response","115","107497","0.0-6.0-1.18","5003","","","","","clear_screen","null","null","","","critical","t","c","d","164","240","240","164","160.6713","232.8713","trueblood","0.05","h","164","240","240","164","160.6713","232.8713","39360","39360","37415.7294","tc","null","null","null","null","null","null","[1,2]"
"","canvas-keyboard-response","116","108840","0.0-6.0-2.18","5003","","","","","rectangles","null","null","","","critical","t","c","d","164","240","240","164","160.6713","232.8713","trueblood","0.05","h","164","240","240","164","160.6713","232.8713","39360","39360","37415.7294","tc","null","null","null","null","null","null","[1,2]"
"","canvas-keyboard-response","117","109017","0.0-6.0-3.18","5003","","","","","clear_screen","null","null","","","critical","t","c","d","164","240","240","164","160.6713","232.8713","trueblood","0.05","h","164","240","240","164","160.6713","232.8713","39360","39360","37415.7294","tc","null","null","null","null","null","null","[1,2]"
"","canvas-keyboard-response","118","109940","0.0-6.0-4.18","5003","","","","","make choice","902","2","","","critical","t","c","d","164","240","240","164","160.6713","232.8713","trueblood","0.05","h","164","240","240","164","160.6713","232.8713","39360","39360","37415.7294","tc","null","null","null","null","null","null","[1,2]"
"","canvas-keyboard-response","119","110109","0.0-6.0-5.18","5003","","","","","clear_screen","null","null","","","critical","t","c","d","164","240","240","164","160.6713","232.8713","trueblood","0.05","h","164","240","240","164","160.6713","232.8713","39360","39360","37415.7294","tc","null","null","null","null","null","null","[1,2]"
"","canvas-keyboard-response","120","110323","0.0-6.0-0.19","5003","","","","","pre trial waiting period","null","null","","","critical","t","d","c","240","164","220.0396","154.6796","164","240","spektor","0.14","w","240","164","164","240","220.0396","154.6796","39360","39360","34035.6388","tc","null","null","null","null","null","null","[1,3]"
"","canvas-keyboard-response","121","110482","0.0-6.0-1.19","5003","","","","","clear_screen","null","null","","","critical","t","d","c","240","164","220.0396","154.6796","164","240","spektor","0.14","w","240","164","164","240","220.0396","154.6796","39360","39360","34035.6388","tc","null","null","null","null","null","null","[1,3]"
"","canvas-keyboard-response","122","111830","0.0-6.0-2.19","5003","","","","","rectangles","null","null","","","critical","t","d","c","240","164","220.0396","154.6796","164","240","spektor","0.14","w","240","164","164","240","220.0396","154.6796","39360","39360","34035.6388","tc","null","null","null","null","null","null","[1,3]"
"","canvas-keyboard-response","123","112004","0.0-6.0-3.19","5003","","","","","clear_screen","null","null","","","critical","t","d","c","240","164","220.0396","154.6796","164","240","spektor","0.14","w","240","164","164","240","220.0396","154.6796","39360","39360","34035.6388","tc","null","null","null","null","null","null","[1,3]"
"","canvas-keyboard-response","124","113283","0.0-6.0-4.19","5003","","","","","make choice","1259","1","","","critical","t","d","c","240","164","220.0396","154.6796","164","240","spektor","0.14","w","240","164","164","240","220.0396","154.6796","39360","39360","34035.6388","tc","null","null","null","null","null","null","[1,3]"
"","canvas-keyboard-response","125","113451","0.0-6.0-5.19","5003","","","","","clear_screen","null","null","","","critical","t","d","c","240","164","220.0396","154.6796","164","240","spektor","0.14","w","240","164","164","240","220.0396","154.6796","39360","39360","34035.6388","tc","null","null","null","null","null","null","[1,3]"
"","canvas-keyboard-response","126","113662","0.0-6.0-0.20","5003","","","","","pre trial waiting period","null","null","","","critical","t","d","c","164","240","164","240","240","164","spektor","0","h","164","240","240","164","164","240","39360","39360","39360","dc","null","null","null","null","null","null","[2,3]"
"","canvas-keyboard-response","127","113822","0.0-6.0-1.20","5003","","","","","clear_screen","null","null","","","critical","t","d","c","164","240","164","240","240","164","spektor","0","h","164","240","240","164","164","240","39360","39360","39360","dc","null","null","null","null","null","null","[2,3]"
"","canvas-keyboard-response","128","115167","0.0-6.0-2.20","5003","","","","","rectangles","null","null","","","critical","t","d","c","164","240","164","240","240","164","spektor","0","h","164","240","240","164","164","240","39360","39360","39360","dc","null","null","null","null","null","null","[2,3]"
"","canvas-keyboard-response","129","115335","0.0-6.0-3.20","5003","","","","","clear_screen","null","null","","","critical","t","d","c","164","240","164","240","240","164","spektor","0","h","164","240","240","164","164","240","39360","39360","39360","dc","null","null","null","null","null","null","[2,3]"
"","canvas-keyboard-response","130","116875","0.0-6.0-4.20","5003","","","","","make choice","1523","2","","","critical","t","d","c","164","240","164","240","240","164","spektor","0","h","164","240","240","164","164","240","39360","39360","39360","dc","null","null","null","null","null","null","[2,3]"
"","canvas-keyboard-response","131","117039","0.0-6.0-5.20","5003","","","","","clear_screen","null","null","","","critical","t","d","c","164","240","164","240","240","164","spektor","0","h","164","240","240","164","164","240","39360","39360","39360","dc","null","null","null","null","null","null","[2,3]"
"","canvas-keyboard-response","132","117250","0.0-6.0-0.21","5003","","","","","pre trial waiting period","null","null","","","critical","d","c","t","227.1683","158.0083","164","240","240","164","spektor","0.09","w","240","164","164","240","227.1683","158.0083","39360","39360","35894.4834","tc","null","null","null","null","null","null","[3,2]"
"","canvas-keyboard-response","133","117409","0.0-6.0-1.21","5003","","","","","clear_screen","null","null","","","critical","d","c","t","227.1683","158.0083","164","240","240","164","spektor","0.09","w","240","164","164","240","227.1683","158.0083","39360","39360","35894.4834","tc","null","null","null","null","null","null","[3,2]"
"","canvas-keyboard-response","134","118753","0.0-6.0-2.21","5003","","","","","rectangles","null","null","","","critical","d","c","t","227.1683","158.0083","164","240","240","164","spektor","0.09","w","240","164","164","240","227.1683","158.0083","39360","39360","35894.4834","tc","null","null","null","null","null","null","[3,2]"
"","canvas-keyboard-response","135","118918","0.0-6.0-3.21","5003","","","","","clear_screen","null","null","","","critical","d","c","t","227.1683","158.0083","164","240","240","164","spektor","0.09","w","240","164","164","240","227.1683","158.0083","39360","39360","35894.4834","tc","null","null","null","null","null","null","[3,2]"
"","canvas-keyboard-response","136","120555","0.0-6.0-4.21","5003","","","","","make choice","1621","2","","","critical","d","c","t","227.1683","158.0083","164","240","240","164","spektor","0.09","w","240","164","164","240","227.1683","158.0083","39360","39360","35894.4834","tc","null","null","null","null","null","null","[3,2]"
"","canvas-keyboard-response","137","120720","0.0-6.0-5.21","5003","","","","","clear_screen","null","null","","","critical","d","c","t","227.1683","158.0083","164","240","240","164","spektor","0.09","w","240","164","164","240","227.1683","158.0083","39360","39360","35894.4834","tc","null","null","null","null","null","null","[3,2]"
"","canvas-keyboard-response","138","120930","0.0-6.0-0.22","5003","","","","","pre trial waiting period","null","null","","","critical","c","t","d","240","164","164","240","158.0083","227.1683","trueblood","0.09","h","164","240","240","164","158.0083","227.1683","39360","39360","35894.4834","td","null","null","null","null","null","null","[2,3]"
"","canvas-keyboard-response","139","121089","0.0-6.0-1.22","5003","","","","","clear_screen","null","null","","","critical","c","t","d","240","164","164","240","158.0083","227.1683","trueblood","0.09","h","164","240","240","164","158.0083","227.1683","39360","39360","35894.4834","td","null","null","null","null","null","null","[2,3]"
"","canvas-keyboard-response","140","122434","0.0-6.0-2.22","5003","","","","","rectangles","null","null","","","critical","c","t","d","240","164","164","240","158.0083","227.1683","trueblood","0.09","h","164","240","240","164","158.0083","227.1683","39360","39360","35894.4834","td","null","null","null","null","null","null","[2,3]"
"","canvas-keyboard-response","141","122602","0.0-6.0-3.22","5003","","","","","clear_screen","null","null","","","critical","c","t","d","240","164","164","240","158.0083","227.1683","trueblood","0.09","h","164","240","240","164","158.0083","227.1683","39360","39360","35894.4834","td","null","null","null","null","null","null","[2,3]"
"","canvas-keyboard-response","142","127083","0.0-6.0-4.22","5003","","","","","make choice","4466","2","","","critical","c","t","d","240","164","164","240","158.0083","227.1683","trueblood","0.09","h","164","240","240","164","158.0083","227.1683","39360","39360","35894.4834","td","null","null","null","null","null","null","[2,3]"
"","canvas-keyboard-response","143","127249","0.0-6.0-5.22","5003","","","","","clear_screen","null","null","","","critical","c","t","d","240","164","164","240","158.0083","227.1683","trueblood","0.09","h","164","240","240","164","158.0083","227.1683","39360","39360","35894.4834","td","null","null","null","null","null","null","[2,3]"
"","canvas-keyboard-response","144","127460","0.0-6.0-0.23","5003","","","","","pre trial waiting period","null","null","","","critical","d","c","t","160.6713","232.8713","240","164","164","240","spektor","0.05","h","164","240","240","164","160.6713","232.8713","39360","39360","37415.7294","td","null","null","null","null","null","null","[3,1]"
"","canvas-keyboard-response","145","127619","0.0-6.0-1.23","5003","","","","","clear_screen","null","null","","","critical","d","c","t","160.6713","232.8713","240","164","164","240","spektor","0.05","h","164","240","240","164","160.6713","232.8713","39360","39360","37415.7294","td","null","null","null","null","null","null","[3,1]"
"","canvas-keyboard-response","146","128964","0.0-6.0-2.23","5003","","","","","rectangles","null","null","","","critical","d","c","t","160.6713","232.8713","240","164","164","240","spektor","0.05","h","164","240","240","164","160.6713","232.8713","39360","39360","37415.7294","td","null","null","null","null","null","null","[3,1]"
"","canvas-keyboard-response","147","129130","0.0-6.0-3.23","5003","","","","","clear_screen","null","null","","","critical","d","c","t","160.6713","232.8713","240","164","164","240","spektor","0.05","h","164","240","240","164","160.6713","232.8713","39360","39360","37415.7294","td","null","null","null","null","null","null","[3,1]"
"","canvas-keyboard-response","148","130651","0.0-6.0-4.23","5003","","","","","make choice","1504","3","","","critical","d","c","t","160.6713","232.8713","240","164","164","240","spektor","0.05","h","164","240","240","164","160.6713","232.8713","39360","39360","37415.7294","td","null","null","null","null","null","null","[3,1]"
"","canvas-keyboard-response","149","130815","0.0-6.0-5.23","5003","","","","","clear_screen","null","null","","","critical","d","c","t","160.6713","232.8713","240","164","164","240","spektor","0.05","h","164","240","240","164","160.6713","232.8713","39360","39360","37415.7294","td","null","null","null","null","null","null","[3,1]"
"","canvas-keyboard-response","150","131026","0.0-6.0-0.24","5003","","","","","pre trial waiting period","null","null","","","critical","t","d","c","164","240","162.6685","237.1485","240","164","trueblood","0.02","h","164","240","240","164","162.6685","237.1485","39360","39360","38576.5967","tc","null","null","null","null","null","null","[1,3]"
"","canvas-keyboard-response","151","131186","0.0-6.0-1.24","5003","","","","","clear_screen","null","null","","","critical","t","d","c","164","240","162.6685","237.1485","240","164","trueblood","0.02","h","164","240","240","164","162.6685","237.1485","39360","39360","38576.5967","tc","null","null","null","null","null","null","[1,3]"
"","canvas-keyboard-response","152","132528","0.0-6.0-2.24","5003","","","","","rectangles","null","null","","","critical","t","d","c","164","240","162.6685","237.1485","240","164","trueblood","0.02","h","164","240","240","164","162.6685","237.1485","39360","39360","38576.5967","tc","null","null","null","null","null","null","[1,3]"
"","canvas-keyboard-response","153","132694","0.0-6.0-3.24","5003","","","","","clear_screen","null","null","","","critical","t","d","c","164","240","162.6685","237.1485","240","164","trueblood","0.02","h","164","240","240","164","162.6685","237.1485","39360","39360","38576.5967","tc","null","null","null","null","null","null","[1,3]"
"","canvas-keyboard-response","154","133779","0.0-6.0-4.24","5003","","","","","make choice","1069","3","","","critical","t","d","c","164","240","162.6685","237.1485","240","164","trueblood","0.02","h","164","240","240","164","162.6685","237.1485","39360","39360","38576.5967","tc","null","null","null","null","null","null","[1,3]"
"","canvas-keyboard-response","155","133944","0.0-6.0-5.24","5003","","","","","clear_screen","null","null","","","critical","t","d","c","164","240","162.6685","237.1485","240","164","trueblood","0.02","h","164","240","240","164","162.6685","237.1485","39360","39360","38576.5967","tc","null","null","null","null","null","null","[1,3]"
"","canvas-keyboard-response","156","134154","0.0-6.0-0.25","5003","","","","","pre trial waiting period","null","null","","","critical","c","d","t","164","240","220.0396","154.6796","240","164","spektor","0.14","w","240","164","164","240","220.0396","154.6796","39360","39360","34035.6388","dc","null","null","null","null","null","null","[2,1]"
"","canvas-keyboard-response","157","134313","0.0-6.0-1.25","5003","","","","","clear_screen","null","null","","","critical","c","d","t","164","240","220.0396","154.6796","240","164","spektor","0.14","w","240","164","164","240","220.0396","154.6796","39360","39360","34035.6388","dc","null","null","null","null","null","null","[2,1]"
"","canvas-keyboard-response","158","135657","0.0-6.0-2.25","5003","","","","","rectangles","null","null","","","critical","c","d","t","164","240","220.0396","154.6796","240","164","spektor","0.14","w","240","164","164","240","220.0396","154.6796","39360","39360","34035.6388","dc","null","null","null","null","null","null","[2,1]"
"","canvas-keyboard-response","159","135822","0.0-6.0-3.25","5003","","","","","clear_screen","null","null","","","critical","c","d","t","164","240","220.0396","154.6796","240","164","spektor","0.14","w","240","164","164","240","220.0396","154.6796","39360","39360","34035.6388","dc","null","null","null","null","null","null","[2,1]"
"","canvas-keyboard-response","160","137147","0.0-6.0-4.25","5003","","","","","make choice","1309","1","","","critical","c","d","t","164","240","220.0396","154.6796","240","164","spektor","0.14","w","240","164","164","240","220.0396","154.6796","39360","39360","34035.6388","dc","null","null","null","null","null","null","[2,1]"
"","canvas-keyboard-response","161","137312","0.0-6.0-5.25","5003","","","","","clear_screen","null","null","","","critical","c","d","t","164","240","220.0396","154.6796","240","164","spektor","0.14","w","240","164","164","240","220.0396","154.6796","39360","39360","34035.6388","dc","null","null","null","null","null","null","[2,1]"
"","canvas-keyboard-response","162","137523","0.0-6.0-0.26","5003","","","","","pre trial waiting period","null","null","","","critical","d","t","c","227.1683","158.0083","240","164","164","240","spektor","0.09","w","240","164","164","240","227.1683","158.0083","39360","39360","35894.4834","td","null","null","null","null","null","null","[2,1]"
"","canvas-keyboard-response","163","137682","0.0-6.0-1.26","5003","","","","","clear_screen","null","null","","","critical","d","t","c","227.1683","158.0083","240","164","164","240","spektor","0.09","w","240","164","164","240","227.1683","158.0083","39360","39360","35894.4834","td","null","null","null","null","null","null","[2,1]"
"","canvas-keyboard-response","164","139027","0.0-6.0-2.26","5003","","","","","rectangles","null","null","","","critical","d","t","c","227.1683","158.0083","240","164","164","240","spektor","0.09","w","240","164","164","240","227.1683","158.0083","39360","39360","35894.4834","td","null","null","null","null","null","null","[2,1]"
"","canvas-keyboard-response","165","139193","0.0-6.0-3.26","5003","","","","","clear_screen","null","null","","","critical","d","t","c","227.1683","158.0083","240","164","164","240","spektor","0.09","w","240","164","164","240","227.1683","158.0083","39360","39360","35894.4834","td","null","null","null","null","null","null","[2,1]"
"","canvas-keyboard-response","166","140516","0.0-6.0-4.26","5003","","","","","make choice","1302","2","","","critical","d","t","c","227.1683","158.0083","240","164","164","240","spektor","0.09","w","240","164","164","240","227.1683","158.0083","39360","39360","35894.4834","td","null","null","null","null","null","null","[2,1]"
"","canvas-keyboard-response","167","140701","0.0-6.0-5.26","5003","","","","","clear_screen","null","null","","","critical","d","t","c","227.1683","158.0083","240","164","164","240","spektor","0.09","w","240","164","164","240","227.1683","158.0083","39360","39360","35894.4834","td","null","null","null","null","null","null","[2,1]"
"","canvas-keyboard-response","168","140920","0.0-6.0-0.27","5003","","","","","pre trial waiting period","null","null","","","critical","c","d","t","240","164","162.6685","237.1485","164","240","trueblood","0.02","h","164","240","240","164","162.6685","237.1485","39360","39360","38576.5967","dc","null","null","null","null","null","null","[2,1]"
"","canvas-keyboard-response","169","141080","0.0-6.0-1.27","5003","","","","","clear_screen","null","null","","","critical","c","d","t","240","164","162.6685","237.1485","164","240","trueblood","0.02","h","164","240","240","164","162.6685","237.1485","39360","39360","38576.5967","dc","null","null","null","null","null","null","[2,1]"
"","canvas-keyboard-response","170","142424","0.0-6.0-2.27","5003","","","","","rectangles","null","null","","","critical","c","d","t","240","164","162.6685","237.1485","164","240","trueblood","0.02","h","164","240","240","164","162.6685","237.1485","39360","39360","38576.5967","dc","null","null","null","null","null","null","[2,1]"
"","canvas-keyboard-response","171","142593","0.0-6.0-3.27","5003","","","","","clear_screen","null","null","","","critical","c","d","t","240","164","162.6685","237.1485","164","240","trueblood","0.02","h","164","240","240","164","162.6685","237.1485","39360","39360","38576.5967","dc","null","null","null","null","null","null","[2,1]"
"","canvas-keyboard-response","172","143515","0.0-6.0-4.27","5003","","","","","make choice","902","2","","","critical","c","d","t","240","164","162.6685","237.1485","164","240","trueblood","0.02","h","164","240","240","164","162.6685","237.1485","39360","39360","38576.5967","dc","null","null","null","null","null","null","[2,1]"
"","canvas-keyboard-response","173","143682","0.0-6.0-5.27","5003","","","","","clear_screen","null","null","","","critical","c","d","t","240","164","162.6685","237.1485","164","240","trueblood","0.02","h","164","240","240","164","162.6685","237.1485","39360","39360","38576.5967","dc","null","null","null","null","null","null","[2,1]"
"","canvas-keyboard-response","174","143895","0.0-6.0-0.28","5003","","","","","pre trial waiting period","null","null","","","critical","d","c","t","227.1683","158.0083","164","240","240","164","spektor","0.09","w","240","164","164","240","227.1683","158.0083","39360","39360","35894.4834","dc","null","null","null","null","null","null","[1,2]"
"","canvas-keyboard-response","175","144055","0.0-6.0-1.28","5003","","","","","clear_screen","null","null","","","critical","d","c","t","227.1683","158.0083","164","240","240","164","spektor","0.09","w","240","164","164","240","227.1683","158.0083","39360","39360","35894.4834","dc","null","null","null","null","null","null","[1,2]"
"","canvas-keyboard-response","176","145400","0.0-6.0-2.28","5003","","","","","rectangles","null","null","","","critical","d","c","t","227.1683","158.0083","164","240","240","164","spektor","0.09","w","240","164","164","240","227.1683","158.0083","39360","39360","35894.4834","dc","null","null","null","null","null","null","[1,2]"
"","canvas-keyboard-response","177","145568","0.0-6.0-3.28","5003","","","","","clear_screen","null","null","","","critical","d","c","t","227.1683","158.0083","164","240","240","164","spektor","0.09","w","240","164","164","240","227.1683","158.0083","39360","39360","35894.4834","dc","null","null","null","null","null","null","[1,2]"
"","canvas-keyboard-response","178","146604","0.0-6.0-4.28","5003","","","","","make choice","1016","2","","","critical","d","c","t","227.1683","158.0083","164","240","240","164","spektor","0.09","w","240","164","164","240","227.1683","158.0083","39360","39360","35894.4834","dc","null","null","null","null","null","null","[1,2]"
"","canvas-keyboard-response","179","146771","0.0-6.0-5.28","5003","","","","","clear_screen","null","null","","","critical","d","c","t","227.1683","158.0083","164","240","240","164","spektor","0.09","w","240","164","164","240","227.1683","158.0083","39360","39360","35894.4834","dc","null","null","null","null","null","null","[1,2]"
"","canvas-keyboard-response","180","146983","0.0-6.0-0.29","5003","","","","","pre trial waiting period","null","null","","","critical","d","c","t","232.8713","160.6713","164","240","240","164","trueblood","0.05","w","240","164","164","240","232.8713","160.6713","39360","39360","37415.7294","dc","null","null","null","null","null","null","[1,2]"
"","canvas-keyboard-response","181","147144","0.0-6.0-1.29","5003","","","","","clear_screen","null","null","","","critical","d","c","t","232.8713","160.6713","164","240","240","164","trueblood","0.05","w","240","164","164","240","232.8713","160.6713","39360","39360","37415.7294","dc","null","null","null","null","null","null","[1,2]"
"","canvas-keyboard-response","182","148488","0.0-6.0-2.29","5003","","","","","rectangles","null","null","","","critical","d","c","t","232.8713","160.6713","164","240","240","164","trueblood","0.05","w","240","164","164","240","232.8713","160.6713","39360","39360","37415.7294","dc","null","null","null","null","null","null","[1,2]"
"","canvas-keyboard-response","183","148656","0.0-6.0-3.29","5003","","","","","clear_screen","null","null","","","critical","d","c","t","232.8713","160.6713","164","240","240","164","trueblood","0.05","w","240","164","164","240","232.8713","160.6713","39360","39360","37415.7294","dc","null","null","null","null","null","null","[1,2]"
"","canvas-keyboard-response","184","149523","0.0-6.0-4.29","5003","","","","","make choice","848","1","","","critical","d","c","t","232.8713","160.6713","164","240","240","164","trueblood","0.05","w","240","164","164","240","232.8713","160.6713","39360","39360","37415.7294","dc","null","null","null","null","null","null","[1,2]"
"","canvas-keyboard-response","185","149692","0.0-6.0-5.29","5003","","","","","clear_screen","null","null","","","critical","d","c","t","232.8713","160.6713","164","240","240","164","trueblood","0.05","w","240","164","164","240","232.8713","160.6713","39360","39360","37415.7294","dc","null","null","null","null","null","null","[1,2]"
"","canvas-keyboard-response","186","149905","0.0-6.0-0.30","5003","","","","","pre trial waiting period","null","null","","","critical","d","c","t","154.6796","220.0396","240","164","164","240","spektor","0.14","h","164","240","240","164","154.6796","220.0396","39360","39360","34035.6388","tc","null","null","null","null","null","null","[3,2]"
"","canvas-keyboard-response","187","150064","0.0-6.0-1.30","5003","","","","","clear_screen","null","null","","","critical","d","c","t","154.6796","220.0396","240","164","164","240","spektor","0.14","h","164","240","240","164","154.6796","220.0396","39360","39360","34035.6388","tc","null","null","null","null","null","null","[3,2]"
"","canvas-keyboard-response","188","151410","0.0-6.0-2.30","5003","","","","","rectangles","null","null","","","critical","d","c","t","154.6796","220.0396","240","164","164","240","spektor","0.14","h","164","240","240","164","154.6796","220.0396","39360","39360","34035.6388","tc","null","null","null","null","null","null","[3,2]"
"","canvas-keyboard-response","189","151578","0.0-6.0-3.30","5003","","","","","clear_screen","null","null","","","critical","d","c","t","154.6796","220.0396","240","164","164","240","spektor","0.14","h","164","240","240","164","154.6796","220.0396","39360","39360","34035.6388","tc","null","null","null","null","null","null","[3,2]"
"","canvas-keyboard-response","190","153315","0.0-6.0-4.30","5003","","","","","make choice","1720","2","","","critical","d","c","t","154.6796","220.0396","240","164","164","240","spektor","0.14","h","164","240","240","164","154.6796","220.0396","39360","39360","34035.6388","tc","null","null","null","null","null","null","[3,2]"
"","canvas-keyboard-response","191","153484","0.0-6.0-5.30","5003","","","","","clear_screen","null","null","","","critical","d","c","t","154.6796","220.0396","240","164","164","240","spektor","0.14","h","164","240","240","164","154.6796","220.0396","39360","39360","34035.6388","tc","null","null","null","null","null","null","[3,2]"
"","canvas-keyboard-response","192","153699","0.0-6.0-0.31","5003","","","","","pre trial waiting period","null","null","","","critical","t","c","d","240","164","164","240","232.8713","160.6713","trueblood","0.05","w","240","164","164","240","232.8713","160.6713","39360","39360","37415.7294","tc","null","null","null","null","null","null","[1,2]"
"","canvas-keyboard-response","193","153858","0.0-6.0-1.31","5003","","","","","clear_screen","null","null","","","critical","t","c","d","240","164","164","240","232.8713","160.6713","trueblood","0.05","w","240","164","164","240","232.8713","160.6713","39360","39360","37415.7294","tc","null","null","null","null","null","null","[1,2]"
"","canvas-keyboard-response","194","155205","0.0-6.0-2.31","5003","","","","","rectangles","null","null","","","critical","t","c","d","240","164","164","240","232.8713","160.6713","trueblood","0.05","w","240","164","164","240","232.8713","160.6713","39360","39360","37415.7294","tc","null","null","null","null","null","null","[1,2]"
"","canvas-keyboard-response","195","155374","0.0-6.0-3.31","5003","","","","","clear_screen","null","null","","","critical","t","c","d","240","164","164","240","232.8713","160.6713","trueblood","0.05","w","240","164","164","240","232.8713","160.6713","39360","39360","37415.7294","tc","null","null","null","null","null","null","[1,2]"
"","canvas-keyboard-response","196","156059","0.0-6.0-4.31","5003","","","","","make choice","666","1","","","critical","t","c","d","240","164","164","240","232.8713","160.6713","trueblood","0.05","w","240","164","164","240","232.8713","160.6713","39360","39360","37415.7294","tc","null","null","null","null","null","null","[1,2]"
"","canvas-keyboard-response","197","156228","0.0-6.0-5.31","5003","","","","","clear_screen","null","null","","","critical","t","c","d","240","164","164","240","232.8713","160.6713","trueblood","0.05","w","240","164","164","240","232.8713","160.6713","39360","39360","37415.7294","tc","null","null","null","null","null","null","[1,2]"
"","canvas-keyboard-response","198","156443","0.0-6.0-0.32","5003","","","","","pre trial waiting period","null","null","","","catch","sw","sh","l","180","200","174","162","211","296","trueblood","null","null","null","null","null","null","null","null","null","null","null","","180","200","260","200","36000","52000","[1,3]"
"","canvas-keyboard-response","199","156603","0.0-6.0-1.32","5003","","","","","clear_screen","null","null","","","catch","sw","sh","l","180","200","174","162","211","296","trueblood","null","null","null","null","null","null","null","null","null","null","null","","180","200","260","200","36000","52000","[1,3]"
"","canvas-keyboard-response","200","157948","0.0-6.0-2.32","5003","","","","","rectangles","null","null","","","catch","sw","sh","l","180","200","174","162","211","296","trueblood","null","null","null","null","null","null","null","null","null","null","null","","180","200","260","200","36000","52000","[1,3]"
"","canvas-keyboard-response","201","158117","0.0-6.0-3.32","5003","","","","","clear_screen","null","null","","","catch","sw","sh","l","180","200","174","162","211","296","trueblood","null","null","null","null","null","null","null","null","null","null","null","","180","200","260","200","36000","52000","[1,3]"
"","canvas-keyboard-response","202","159602","0.0-6.0-4.32","5003","","","","","make choice","1464","1","","","catch","sw","sh","l","180","200","174","162","211","296","trueblood","null","null","null","null","null","null","null","null","null","null","null","","180","200","260","200","36000","52000","[1,3]"
"","canvas-keyboard-response","203","159775","0.0-6.0-5.32","5003","","","","","clear_screen","null","null","","","catch","sw","sh","l","180","200","174","162","211","296","trueblood","null","null","null","null","null","null","null","null","null","null","null","","180","200","260","200","36000","52000","[1,3]"
"","canvas-keyboard-response","204","159988","0.0-6.0-0.33","5003","","","","","pre trial waiting period","null","null","","","catch","sw","l","sh","180","200","200","239","193","210","spektor","null","null","null","null","null","null","null","null","null","null","null","","180","200","260","200","36000","52000","[1,2]"
"","canvas-keyboard-response","205","160147","0.0-6.0-1.33","5003","","","","","clear_screen","null","null","","","catch","sw","l","sh","180","200","200","239","193","210","spektor","null","null","null","null","null","null","null","null","null","null","null","","180","200","260","200","36000","52000","[1,2]"
"","canvas-keyboard-response","206","161494","0.0-6.0-2.33","5003","","","","","rectangles","null","null","","","catch","sw","l","sh","180","200","200","239","193","210","spektor","null","null","null","null","null","null","null","null","null","null","null","","180","200","260","200","36000","52000","[1,2]"
"","canvas-keyboard-response","207","161662","0.0-6.0-3.33","5003","","","","","clear_screen","null","null","","","catch","sw","l","sh","180","200","200","239","193","210","spektor","null","null","null","null","null","null","null","null","null","null","null","","180","200","260","200","36000","52000","[1,2]"
"","canvas-keyboard-response","208","163922","0.0-6.0-4.33","5003","","","","","make choice","2239","2","","","catch","sw","l","sh","180","200","200","239","193","210","spektor","null","null","null","null","null","null","null","null","null","null","null","","180","200","260","200","36000","52000","[1,2]"
"","canvas-keyboard-response","209","164091","0.0-6.0-5.33","5003","","","","","clear_screen","null","null","","","catch","sw","l","sh","180","200","200","239","193","210","spektor","null","null","null","null","null","null","null","null","null","null","null","","180","200","260","200","36000","52000","[1,2]"
"","canvas-keyboard-response","210","164305","0.0-6.0-0.34","5003","","","","","pre trial waiting period","null","null","","","critical","d","c","t","232.8713","160.6713","164","240","240","164","spektor","0.05","w","240","164","164","240","232.8713","160.6713","39360","39360","37415.7294","dc","null","null","null","null","null","null","[1,2]"
"","canvas-keyboard-response","211","164463","0.0-6.0-1.34","5003","","","","","clear_screen","null","null","","","critical","d","c","t","232.8713","160.6713","164","240","240","164","spektor","0.05","w","240","164","164","240","232.8713","160.6713","39360","39360","37415.7294","dc","null","null","null","null","null","null","[1,2]"
"","canvas-keyboard-response","212","165810","0.0-6.0-2.34","5003","","","","","rectangles","null","null","","","critical","d","c","t","232.8713","160.6713","164","240","240","164","spektor","0.05","w","240","164","164","240","232.8713","160.6713","39360","39360","37415.7294","dc","null","null","null","null","null","null","[1,2]"
"","canvas-keyboard-response","213","165978","0.0-6.0-3.34","5003","","","","","clear_screen","null","null","","","critical","d","c","t","232.8713","160.6713","164","240","240","164","spektor","0.05","w","240","164","164","240","232.8713","160.6713","39360","39360","37415.7294","dc","null","null","null","null","null","null","[1,2]"
"","canvas-keyboard-response","214","166898","0.0-6.0-4.34","5003","","","","","make choice","902","2","","","critical","d","c","t","232.8713","160.6713","164","240","240","164","spektor","0.05","w","240","164","164","240","232.8713","160.6713","39360","39360","37415.7294","dc","null","null","null","null","null","null","[1,2]"
"","canvas-keyboard-response","215","167067","0.0-6.0-5.34","5003","","","","","clear_screen","null","null","","","critical","d","c","t","232.8713","160.6713","164","240","240","164","spektor","0.05","w","240","164","164","240","232.8713","160.6713","39360","39360","37415.7294","dc","null","null","null","null","null","null","[1,2]"
"","canvas-keyboard-response","216","167280","0.0-6.0-0.35","5003","","","","","pre trial waiting period","null","null","","","catch","l","sh","sw","167","220","170","146","167","236","trueblood","null","null","null","null","null","null","null","null","null","null","null","","180","200","260","200","36000","52000","[1,2]"
"","canvas-keyboard-response","217","167440","0.0-6.0-1.35","5003","","","","","clear_screen","null","null","","","catch","l","sh","sw","167","220","170","146","167","236","trueblood","null","null","null","null","null","null","null","null","null","null","null","","180","200","260","200","36000","52000","[1,2]"
"","canvas-keyboard-response","218","168786","0.0-6.0-2.35","5003","","","","","rectangles","null","null","","","catch","l","sh","sw","167","220","170","146","167","236","trueblood","null","null","null","null","null","null","null","null","null","null","null","","180","200","260","200","36000","52000","[1,2]"
"","canvas-keyboard-response","219","168956","0.0-6.0-3.35","5003","","","","","clear_screen","null","null","","","catch","l","sh","sw","167","220","170","146","167","236","trueblood","null","null","null","null","null","null","null","null","null","null","null","","180","200","260","200","36000","52000","[1,2]"
"","canvas-keyboard-response","220","170978","0.0-6.0-4.35","5003","","","","","make choice","2005","1","","","catch","l","sh","sw","167","220","170","146","167","236","trueblood","null","null","null","null","null","null","null","null","null","null","null","","180","200","260","200","36000","52000","[1,2]"
"","canvas-keyboard-response","221","171147","0.0-6.0-5.35","5003","","","","","clear_screen","null","null","","","catch","l","sh","sw","167","220","170","146","167","236","trueblood","null","null","null","null","null","null","null","null","null","null","null","","180","200","260","200","36000","52000","[1,2]"
"","canvas-keyboard-response","222","171362","0.0-6.0-0.36","5003","","","","","pre trial waiting period","null","null","","","catch","sw","l","sh","180","200","185","298","225","147","spektor","null","null","null","null","null","null","null","null","null","null","null","","180","200","260","200","36000","52000","[2,3]"
"","canvas-keyboard-response","223","171520","0.0-6.0-1.36","5003","","","","","clear_screen","null","null","","","catch","sw","l","sh","180","200","185","298","225","147","spektor","null","null","null","null","null","null","null","null","null","null","null","","180","200","260","200","36000","52000","[2,3]"
"","canvas-keyboard-response","224","172867","0.0-6.0-2.36","5003","","","","","rectangles","null","null","","","catch","sw","l","sh","180","200","185","298","225","147","spektor","null","null","null","null","null","null","null","null","null","null","null","","180","200","260","200","36000","52000","[2,3]"
"","canvas-keyboard-response","225","173056","0.0-6.0-3.36","5003","","","","","clear_screen","null","null","","","catch","sw","l","sh","180","200","185","298","225","147","spektor","null","null","null","null","null","null","null","null","null","null","null","","180","200","260","200","36000","52000","[2,3]"
"","canvas-keyboard-response","226","173834","0.0-6.0-4.36","5003","","","","","make choice","749","2","","","catch","sw","l","sh","180","200","185","298","225","147","spektor","null","null","null","null","null","null","null","null","null","null","null","","180","200","260","200","36000","52000","[2,3]"
"","canvas-keyboard-response","227","174018","0.0-6.0-5.36","5003","","","","","clear_screen","null","null","","","catch","sw","l","sh","180","200","185","298","225","147","spektor","null","null","null","null","null","null","null","null","null","null","null","","180","200","260","200","36000","52000","[2,3]"
"","canvas-keyboard-response","228","174235","0.0-6.0-0.37","5003","","","","","pre trial waiting period","null","null","","","catch","l","sw","sh","293","209","151","211","160","161","spektor","null","null","null","null","null","null","null","null","null","null","null","","180","200","260","200","36000","52000","[1,2]"
"","canvas-keyboard-response","229","174395","0.0-6.0-1.37","5003","","","","","clear_screen","null","null","","","catch","l","sw","sh","293","209","151","211","160","161","spektor","null","null","null","null","null","null","null","null","null","null","null","","180","200","260","200","36000","52000","[1,2]"
"","canvas-keyboard-response","230","175743","0.0-6.0-2.37","5003","","","","","rectangles","null","null","","","catch","l","sw","sh","293","209","151","211","160","161","spektor","null","null","null","null","null","null","null","null","null","null","null","","180","200","260","200","36000","52000","[1,2]"
"","canvas-keyboard-response","231","175914","0.0-6.0-3.37","5003","","","","","clear_screen","null","null","","","catch","l","sw","sh","293","209","151","211","160","161","spektor","null","null","null","null","null","null","null","null","null","null","null","","180","200","260","200","36000","52000","[1,2]"
"","canvas-keyboard-response","232","176434","0.0-6.0-4.37","5003","","","","","make choice","499","1","","","catch","l","sw","sh","293","209","151","211","160","161","spektor","null","null","null","null","null","null","null","null","null","null","null","","180","200","260","200","36000","52000","[1,2]"
"","canvas-keyboard-response","233","176604","0.0-6.0-5.37","5003","","","","","clear_screen","null","null","","","catch","l","sw","sh","293","209","151","211","160","161","spektor","null","null","null","null","null","null","null","null","null","null","null","","180","200","260","200","36000","52000","[1,2]"
"","canvas-keyboard-response","234","176822","0.0-6.0-0.38","5003","","","","","pre trial waiting period","null","null","","","catch","sh","l","sw","169","210","191","258","188","187","trueblood","null","null","null","null","null","null","null","null","null","null","null","","180","200","260","200","36000","52000","[1,2]"
"","canvas-keyboard-response","235","176982","0.0-6.0-1.38","5003","","","","","clear_screen","null","null","","","catch","sh","l","sw","169","210","191","258","188","187","trueblood","null","null","null","null","null","null","null","null","null","null","null","","180","200","260","200","36000","52000","[1,2]"
"","canvas-keyboard-response","236","178329","0.0-6.0-2.38","5003","","","","","rectangles","null","null","","","catch","sh","l","sw","169","210","191","258","188","187","trueblood","null","null","null","null","null","null","null","null","null","null","null","","180","200","260","200","36000","52000","[1,2]"
"","canvas-keyboard-response","237","178502","0.0-6.0-3.38","5003","","","","","clear_screen","null","null","","","catch","sh","l","sw","169","210","191","258","188","187","trueblood","null","null","null","null","null","null","null","null","null","null","null","","180","200","260","200","36000","52000","[1,2]"
"","canvas-keyboard-response","238","179410","0.0-6.0-4.38","5003","","","","","make choice","887","2","","","catch","sh","l","sw","169","210","191","258","188","187","trueblood","null","null","null","null","null","null","null","null","null","null","null","","180","200","260","200","36000","52000","[1,2]"
"","canvas-keyboard-response","239","179580","0.0-6.0-5.38","5003","","","","","clear_screen","null","null","","","catch","sh","l","sw","169","210","191","258","188","187","trueblood","null","null","null","null","null","null","null","null","null","null","null","","180","200","260","200","36000","52000","[1,2]"
"","canvas-keyboard-response","240","179795","0.0-6.0-0.39","5003","","","","","pre trial waiting period","null","null","","","critical","d","t","c","220.0396","154.6796","240","164","164","240","trueblood","0.14","w","240","164","164","240","220.0396","154.6796","39360","39360","34035.6388","dc","null","null","null","null","null","null","[1,3]"
"","canvas-keyboard-response","241","179954","0.0-6.0-1.39","5003","","","","","clear_screen","null","null","","","critical","d","t","c","220.0396","154.6796","240","164","164","240","trueblood","0.14","w","240","164","164","240","220.0396","154.6796","39360","39360","34035.6388","dc","null","null","null","null","null","null","[1,3]"
"","canvas-keyboard-response","242","181301","0.0-6.0-2.39","5003","","","","","rectangles","null","null","","","critical","d","t","c","220.0396","154.6796","240","164","164","240","trueblood","0.14","w","240","164","164","240","220.0396","154.6796","39360","39360","34035.6388","dc","null","null","null","null","null","null","[1,3]"
"","canvas-keyboard-response","243","181472","0.0-6.0-3.39","5003","","","","","clear_screen","null","null","","","critical","d","t","c","220.0396","154.6796","240","164","164","240","trueblood","0.14","w","240","164","164","240","220.0396","154.6796","39360","39360","34035.6388","dc","null","null","null","null","null","null","[1,3]"
"","canvas-keyboard-response","244","183747","0.0-6.0-4.39","5003","","","","","make choice","2254","3","","","critical","d","t","c","220.0396","154.6796","240","164","164","240","trueblood","0.14","w","240","164","164","240","220.0396","154.6796","39360","39360","34035.6388","dc","null","null","null","null","null","null","[1,3]"
"","canvas-keyboard-response","245","183918","0.0-6.0-5.39","5003","","","","","clear_screen","null","null","","","critical","d","t","c","220.0396","154.6796","240","164","164","240","trueblood","0.14","w","240","164","164","240","220.0396","154.6796","39360","39360","34035.6388","dc","null","null","null","null","null","null","[1,3]"
"","canvas-keyboard-response","246","184134","0.0-6.0-0.40","5003","","","","","pre trial waiting period","null","null","","","catch","sw","l","sh","180","200","184","292","184","156","trueblood","null","null","null","null","null","null","null","null","null","null","null","","180","200","260","200","36000","52000","[2,3]"
"","canvas-keyboard-response","247","184294","0.0-6.0-1.40","5003","","","","","clear_screen","null","null","","","catch","sw","l","sh","180","200","184","292","184","156","trueblood","null","null","null","null","null","null","null","null","null","null","null","","180","200","260","200","36000","52000","[2,3]"
"","canvas-keyboard-response","248","185644","0.0-6.0-2.40","5003","","","","","rectangles","null","null","","","catch","sw","l","sh","180","200","184","292","184","156","trueblood","null","null","null","null","null","null","null","null","null","null","null","","180","200","260","200","36000","52000","[2,3]"
"","canvas-keyboard-response","249","185813","0.0-6.0-3.40","5003","","","","","clear_screen","null","null","","","catch","sw","l","sh","180","200","184","292","184","156","trueblood","null","null","null","null","null","null","null","null","null","null","null","","180","200","260","200","36000","52000","[2,3]"
"","canvas-keyboard-response","250","187994","0.0-6.0-4.40","5003","","","","","make choice","2159","2","","","catch","sw","l","sh","180","200","184","292","184","156","trueblood","null","null","null","null","null","null","null","null","null","null","null","","180","200","260","200","36000","52000","[2,3]"
"","canvas-keyboard-response","251","188165","0.0-6.0-5.40","5003","","","","","clear_screen","null","null","","","catch","sw","l","sh","180","200","184","292","184","156","trueblood","null","null","null","null","null","null","null","null","null","null","null","","180","200","260","200","36000","52000","[2,3]"
"","canvas-keyboard-response","252","188382","0.0-6.0-0.41","5003","","","","","pre trial waiting period","null","null","","","critical","c","t","d","164","240","240","164","232.8713","160.6713","spektor","0.05","w","240","164","164","240","232.8713","160.6713","39360","39360","37415.7294","td","null","null","null","null","null","null","[2,3]"
"","canvas-keyboard-response","253","188541","0.0-6.0-1.41","5003","","","","","clear_screen","null","null","","","critical","c","t","d","164","240","240","164","232.8713","160.6713","spektor","0.05","w","240","164","164","240","232.8713","160.6713","39360","39360","37415.7294","td","null","null","null","null","null","null","[2,3]"
"","canvas-keyboard-response","254","189888","0.0-6.0-2.41","5003","","","","","rectangles","null","null","","","critical","c","t","d","164","240","240","164","232.8713","160.6713","spektor","0.05","w","240","164","164","240","232.8713","160.6713","39360","39360","37415.7294","td","null","null","null","null","null","null","[2,3]"
"","canvas-keyboard-response","255","190059","0.0-6.0-3.41","5003","","","","","clear_screen","null","null","","","critical","c","t","d","164","240","240","164","232.8713","160.6713","spektor","0.05","w","240","164","164","240","232.8713","160.6713","39360","39360","37415.7294","td","null","null","null","null","null","null","[2,3]"
"","canvas-keyboard-response","256","191194","0.0-6.0-4.41","5003","","","","","make choice","1115","2","","","critical","c","t","d","164","240","240","164","232.8713","160.6713","spektor","0.05","w","240","164","164","240","232.8713","160.6713","39360","39360","37415.7294","td","null","null","null","null","null","null","[2,3]"
"","canvas-keyboard-response","257","191366","0.0-6.0-5.41","5003","","","","","clear_screen","null","null","","","critical","c","t","d","164","240","240","164","232.8713","160.6713","spektor","0.05","w","240","164","164","240","232.8713","160.6713","39360","39360","37415.7294","td","null","null","null","null","null","null","[2,3]"
"","canvas-keyboard-response","258","191580","0.0-6.0-0.42","5003","","","","","pre trial waiting period","null","null","","","critical","t","c","d","164","240","240","164","160.6713","232.8713","spektor","0.05","h","164","240","240","164","160.6713","232.8713","39360","39360","37415.7294","dc","null","null","null","null","null","null","[3,2]"
"","canvas-keyboard-response","259","191741","0.0-6.0-1.42","5003","","","","","clear_screen","null","null","","","critical","t","c","d","164","240","240","164","160.6713","232.8713","spektor","0.05","h","164","240","240","164","160.6713","232.8713","39360","39360","37415.7294","dc","null","null","null","null","null","null","[3,2]"
"","canvas-keyboard-response","260","193089","0.0-6.0-2.42","5003","","","","","rectangles","null","null","","","critical","t","c","d","164","240","240","164","160.6713","232.8713","spektor","0.05","h","164","240","240","164","160.6713","232.8713","39360","39360","37415.7294","dc","null","null","null","null","null","null","[3,2]"
"","canvas-keyboard-response","261","193258","0.0-6.0-3.42","5003","","","","","clear_screen","null","null","","","critical","t","c","d","164","240","240","164","160.6713","232.8713","spektor","0.05","h","164","240","240","164","160.6713","232.8713","39360","39360","37415.7294","dc","null","null","null","null","null","null","[3,2]"
"","canvas-keyboard-response","262","195594","0.0-6.0-4.42","5003","","","","","make choice","2313","2","","","critical","t","c","d","164","240","240","164","160.6713","232.8713","spektor","0.05","h","164","240","240","164","160.6713","232.8713","39360","39360","37415.7294","dc","null","null","null","null","null","null","[3,2]"
"","canvas-keyboard-response","263","195765","0.0-6.0-5.42","5003","","","","","clear_screen","null","null","","","critical","t","c","d","164","240","240","164","160.6713","232.8713","spektor","0.05","h","164","240","240","164","160.6713","232.8713","39360","39360","37415.7294","dc","null","null","null","null","null","null","[3,2]"
"","canvas-keyboard-response","264","195980","0.0-6.0-0.43","5003","","","","","pre trial waiting period","null","null","","","critical","d","t","c","227.1683","158.0083","240","164","164","240","trueblood","0.09","w","240","164","164","240","227.1683","158.0083","39360","39360","35894.4834","dc","null","null","null","null","null","null","[1,3]"
"","canvas-keyboard-response","265","196139","0.0-6.0-1.43","5003","","","","","clear_screen","null","null","","","critical","d","t","c","227.1683","158.0083","240","164","164","240","trueblood","0.09","w","240","164","164","240","227.1683","158.0083","39360","39360","35894.4834","dc","null","null","null","null","null","null","[1,3]"
"","canvas-keyboard-response","266","197485","0.0-6.0-2.43","5003","","","","","rectangles","null","null","","","critical","d","t","c","227.1683","158.0083","240","164","164","240","trueblood","0.09","w","240","164","164","240","227.1683","158.0083","39360","39360","35894.4834","dc","null","null","null","null","null","null","[1,3]"
"","canvas-keyboard-response","267","197656","0.0-6.0-3.43","5003","","","","","clear_screen","null","null","","","critical","d","t","c","227.1683","158.0083","240","164","164","240","trueblood","0.09","w","240","164","164","240","227.1683","158.0083","39360","39360","35894.4834","dc","null","null","null","null","null","null","[1,3]"
"","canvas-keyboard-response","268","200137","0.0-6.0-4.43","5003","","","","","make choice","2461","3","","","critical","d","t","c","227.1683","158.0083","240","164","164","240","trueblood","0.09","w","240","164","164","240","227.1683","158.0083","39360","39360","35894.4834","dc","null","null","null","null","null","null","[1,3]"
"","canvas-keyboard-response","269","200308","0.0-6.0-5.43","5003","","","","","clear_screen","null","null","","","critical","d","t","c","227.1683","158.0083","240","164","164","240","trueblood","0.09","w","240","164","164","240","227.1683","158.0083","39360","39360","35894.4834","dc","null","null","null","null","null","null","[1,3]"
"","canvas-keyboard-response","270","200524","0.0-6.0-0.44","5003","","","","","pre trial waiting period","null","null","","","critical","c","d","t","240","164","158.0083","227.1683","164","240","trueblood","0.09","h","164","240","240","164","158.0083","227.1683","39360","39360","35894.4834","dc","null","null","null","null","null","null","[2,1]"
"","canvas-keyboard-response","271","200683","0.0-6.0-1.44","5003","","","","","clear_screen","null","null","","","critical","c","d","t","240","164","158.0083","227.1683","164","240","trueblood","0.09","h","164","240","240","164","158.0083","227.1683","39360","39360","35894.4834","dc","null","null","null","null","null","null","[2,1]"
"","canvas-keyboard-response","272","202032","0.0-6.0-2.44","5003","","","","","rectangles","null","null","","","critical","c","d","t","240","164","158.0083","227.1683","164","240","trueblood","0.09","h","164","240","240","164","158.0083","227.1683","39360","39360","35894.4834","dc","null","null","null","null","null","null","[2,1]"
"","canvas-keyboard-response","273","202206","0.0-6.0-3.44","5003","","","","","clear_screen","null","null","","","critical","c","d","t","240","164","158.0083","227.1683","164","240","trueblood","0.09","h","164","240","240","164","158.0083","227.1683","39360","39360","35894.4834","dc","null","null","null","null","null","null","[2,1]"
"","canvas-keyboard-response","274","203618","0.0-6.0-4.44","5003","","","","","make choice","1389","1","","","critical","c","d","t","240","164","158.0083","227.1683","164","240","trueblood","0.09","h","164","240","240","164","158.0083","227.1683","39360","39360","35894.4834","dc","null","null","null","null","null","null","[2,1]"
"","canvas-keyboard-response","275","203789","0.0-6.0-5.44","5003","","","","","clear_screen","null","null","","","critical","c","d","t","240","164","158.0083","227.1683","164","240","trueblood","0.09","h","164","240","240","164","158.0083","227.1683","39360","39360","35894.4834","dc","null","null","null","null","null","null","[2,1]"
"","canvas-keyboard-response","276","204005","0.0-6.0-0.45","5003","","","","","pre trial waiting period","null","null","","","critical","d","t","c","240","164","240","164","164","240","trueblood","0","w","240","164","164","240","240","164","39360","39360","39360","td","null","null","null","null","null","null","[2,1]"
"","canvas-keyboard-response","277","204165","0.0-6.0-1.45","5003","","","","","clear_screen","null","null","","","critical","d","t","c","240","164","240","164","164","240","trueblood","0","w","240","164","164","240","240","164","39360","39360","39360","td","null","null","null","null","null","null","[2,1]"
"","canvas-keyboard-response","278","205512","0.0-6.0-2.45","5003","","","","","rectangles","null","null","","","critical","d","t","c","240","164","240","164","164","240","trueblood","0","w","240","164","164","240","240","164","39360","39360","39360","td","null","null","null","null","null","null","[2,1]"
"","canvas-keyboard-response","279","205685","0.0-6.0-3.45","5003","","","","","clear_screen","null","null","","","critical","d","t","c","240","164","240","164","164","240","trueblood","0","w","240","164","164","240","240","164","39360","39360","39360","td","null","null","null","null","null","null","[2,1]"
"","canvas-keyboard-response","280","206818","0.0-6.0-4.45","5003","","","","","make choice","1114","2","","","critical","d","t","c","240","164","240","164","164","240","trueblood","0","w","240","164","164","240","240","164","39360","39360","39360","td","null","null","null","null","null","null","[2,1]"
"","canvas-keyboard-response","281","207003","0.0-6.0-5.45","5003","","","","","clear_screen","null","null","","","critical","d","t","c","240","164","240","164","164","240","trueblood","0","w","240","164","164","240","240","164","39360","39360","39360","td","null","null","null","null","null","null","[2,1]"
"","canvas-keyboard-response","282","207235","0.0-6.0-0.46","5003","","","","","pre trial waiting period","null","null","","","catch","sh","sw","l","176","190","154","232","168","277","spektor","null","null","null","null","null","null","null","null","null","null","null","","180","200","260","200","36000","52000","[2,3]"
"","canvas-keyboard-response","283","207396","0.0-6.0-1.46","5003","","","","","clear_screen","null","null","","","catch","sh","sw","l","176","190","154","232","168","277","spektor","null","null","null","null","null","null","null","null","null","null","null","","180","200","260","200","36000","52000","[2,3]"
"","canvas-keyboard-response","284","208745","0.0-6.0-2.46","5003","","","","","rectangles","null","null","","","catch","sh","sw","l","176","190","154","232","168","277","spektor","null","null","null","null","null","null","null","null","null","null","null","","180","200","260","200","36000","52000","[2,3]"
"","canvas-keyboard-response","285","208918","0.0-6.0-3.46","5003","","","","","clear_screen","null","null","","","catch","sh","sw","l","176","190","154","232","168","277","spektor","null","null","null","null","null","null","null","null","null","null","null","","180","200","260","200","36000","52000","[2,3]"
"","canvas-keyboard-response","286","209370","0.0-6.0-4.46","5003","","","","","make choice","431","3","","","catch","sh","sw","l","176","190","154","232","168","277","spektor","null","null","null","null","null","null","null","null","null","null","null","","180","200","260","200","36000","52000","[2,3]"
"","canvas-keyboard-response","287","209541","0.0-6.0-5.46","5003","","","","","clear_screen","null","null","","","catch","sh","sw","l","176","190","154","232","168","277","spektor","null","null","null","null","null","null","null","null","null","null","null","","180","200","260","200","36000","52000","[2,3]"
"","canvas-keyboard-response","288","209758","0.0-6.0-0.47","5003","","","","","pre trial waiting period","null","null","","","critical","c","t","d","240","164","164","240","154.6796","220.0396","spektor","0.14","h","164","240","240","164","154.6796","220.0396","39360","39360","34035.6388","td","null","null","null","null","null","null","[2,3]"
"","canvas-keyboard-response","289","209919","0.0-6.0-1.47","5003","","","","","clear_screen","null","null","","","critical","c","t","d","240","164","164","240","154.6796","220.0396","spektor","0.14","h","164","240","240","164","154.6796","220.0396","39360","39360","34035.6388","td","null","null","null","null","null","null","[2,3]"
"","canvas-keyboard-response","290","211268","0.0-6.0-2.47","5003","","","","","rectangles","null","null","","","critical","c","t","d","240","164","164","240","154.6796","220.0396","spektor","0.14","h","164","240","240","164","154.6796","220.0396","39360","39360","34035.6388","td","null","null","null","null","null","null","[2,3]"
"","canvas-keyboard-response","291","211443","0.0-6.0-3.47","5003","","","","","clear_screen","null","null","","","critical","c","t","d","240","164","164","240","154.6796","220.0396","spektor","0.14","h","164","240","240","164","154.6796","220.0396","39360","39360","34035.6388","td","null","null","null","null","null","null","[2,3]"
"","canvas-keyboard-response","292","212482","0.0-6.0-4.47","5003","","","","","make choice","1008","2","","","critical","c","t","d","240","164","164","240","154.6796","220.0396","spektor","0.14","h","164","240","240","164","154.6796","220.0396","39360","39360","34035.6388","td","null","null","null","null","null","null","[2,3]"
"","canvas-keyboard-response","293","212657","0.0-6.0-5.47","5003","","","","","clear_screen","null","null","","","critical","c","t","d","240","164","164","240","154.6796","220.0396","spektor","0.14","h","164","240","240","164","154.6796","220.0396","39360","39360","34035.6388","td","null","null","null","null","null","null","[2,3]"
"","canvas-keyboard-response","294","212875","0.0-6.0-0.48","5003","","","","","pre trial waiting period","null","null","","","critical","d","c","t","227.1683","158.0083","164","240","240","164","trueblood","0.09","w","240","164","164","240","227.1683","158.0083","39360","39360","35894.4834","td","null","null","null","null","null","null","[3,1]"
"","canvas-keyboard-response","295","213034","0.0-6.0-1.48","5003","","","","","clear_screen","null","null","","","critical","d","c","t","227.1683","158.0083","164","240","240","164","trueblood","0.09","w","240","164","164","240","227.1683","158.0083","39360","39360","35894.4834","td","null","null","null","null","null","null","[3,1]"
"","canvas-keyboard-response","296","214383","0.0-6.0-2.48","5003","","","","","rectangles","null","null","","","critical","d","c","t","227.1683","158.0083","164","240","240","164","trueblood","0.09","w","240","164","164","240","227.1683","158.0083","39360","39360","35894.4834","td","null","null","null","null","null","null","[3,1]"
"","canvas-keyboard-response","297","214555","0.0-6.0-3.48","5003","","","","","clear_screen","null","null","","","critical","d","c","t","227.1683","158.0083","164","240","240","164","trueblood","0.09","w","240","164","164","240","227.1683","158.0083","39360","39360","35894.4834","td","null","null","null","null","null","null","[3,1]"
"","canvas-keyboard-response","298","216778","0.0-6.0-4.48","5003","","","","","make choice","2200","3","","","critical","d","c","t","227.1683","158.0083","164","240","240","164","trueblood","0.09","w","240","164","164","240","227.1683","158.0083","39360","39360","35894.4834","td","null","null","null","null","null","null","[3,1]"
"","canvas-keyboard-response","299","216950","0.0-6.0-5.48","5003","","","","","clear_screen","null","null","","","critical","d","c","t","227.1683","158.0083","164","240","240","164","trueblood","0.09","w","240","164","164","240","227.1683","158.0083","39360","39360","35894.4834","td","null","null","null","null","null","null","[3,1]"
"","canvas-keyboard-response","300","217168","0.0-6.0-0.49","5003","","","","","pre trial waiting period","null","null","","","critical","d","t","c","158.0083","227.1683","164","240","240","164","trueblood","0.09","h","164","240","240","164","158.0083","227.1683","39360","39360","35894.4834","tc","null","null","null","null","null","null","[2,3]"
"","canvas-keyboard-response","301","217328","0.0-6.0-1.49","5003","","","","","clear_screen","null","null","","","critical","d","t","c","158.0083","227.1683","164","240","240","164","trueblood","0.09","h","164","240","240","164","158.0083","227.1683","39360","39360","35894.4834","tc","null","null","null","null","null","null","[2,3]"
"","canvas-keyboard-response","302","218677","0.0-6.0-2.49","5003","","","","","rectangles","null","null","","","critical","d","t","c","158.0083","227.1683","164","240","240","164","trueblood","0.09","h","164","240","240","164","158.0083","227.1683","39360","39360","35894.4834","tc","null","null","null","null","null","null","[2,3]"
