success,trial_type,trial_index,time_elapsed,internal_node_id,sub_n,timeout,failed_images,failed_audio,failed_video,screen_id,rt,response,stimulus,view_history,trial,r1,r2,r3,w1,h1,w2,h2,w3,h3,display,tdd,tdo,tw,th,cw,ch,dw,dh,ta,ca,da,probe,csls,csss,clls,clss,sa,la,probe_rects
TRUE,fullscreen,0,5286,0.0-0.0,5022,NA,NA,NA,NA,NA,NA,NA,NA,NA,NA,NA,NA,NA,NA,NA,NA,NA,NA,NA,NA,NA,NA,NA,NA,NA,NA,NA,NA,NA,NA,NA,NA,NA,NA,NA,NA,NA,NA,NA
TRUE,preload,1,5302,0.0-1.0,5022,FALSE,NA,NA,NA,img preload,NA,NA,NA,NA,NA,NA,NA,NA,NA,NA,NA,NA,NA,NA,NA,NA,NA,NA,NA,NA,NA,NA,NA,NA,NA,NA,NA,NA,NA,NA,NA,NA,NA,NA
NA,survey-html-form,2,9084,0.0-2.0,5022,NA,NA,NA,NA,enter-sub-number,3773,"{""response"":""14""}",NA,NA,NA,NA,NA,NA,NA,NA,NA,NA,NA,NA,NA,NA,NA,NA,NA,NA,NA,NA,NA,NA,NA,NA,NA,NA,NA,NA,NA,NA,NA,NA
NA,image-button-response,3,19094,0.0-3.0,5022,NA,NA,NA,NA,NA,9937,0,consent.png,NA,NA,NA,NA,NA,NA,NA,NA,NA,NA,NA,NA,NA,NA,NA,NA,NA,NA,NA,NA,NA,NA,NA,NA,NA,NA,NA,NA,NA,NA,NA
NA,html-button-response,4,25038,0.0-4.0,5022,NA,NA,NA,NA,intro mssg,5938,0,"<div style= ""font-size:25px;"" <p> <strong> Welcome! </strong><br> <p style=""color:#8B0000; font-size:25px;""><strong> Please do NOT exit full screen until you are done with the experiment. </strong> </p><p style=""font-size:25px;color:#8B0000;""> <strong> Your data will be lost <br> if you try to go back or refresh the page after the experiment starts. Feel free to click ""previous"" during the instructions, however.</strong> </p><br><p> <strong> Thanks in advance for your contribution to our research! </strong></p>",NA,NA,NA,NA,NA,NA,NA,NA,NA,NA,NA,NA,NA,NA,NA,NA,NA,NA,NA,NA,NA,NA,NA,NA,NA,NA,NA,NA,NA,NA,NA
NA,instructions,5,60788,0.0-5.0,5022,NA,NA,NA,NA,instructions,35744,NA,NA,NA,NA,NA,NA,NA,NA,NA,NA,NA,NA,NA,NA,NA,NA,NA,NA,NA,NA,NA,NA,NA,NA,NA,NA,NA,NA,NA,NA,NA,NA,NA
NA,canvas-keyboard-response,6,60991,0.0-6.0-0.0,5022,NA,NA,NA,NA,pre trial waiting period,null,null,NA,NA,critical,t,d,c,240,164,240,164,164,240,trueblood,0,w,240,164,164,240,240,164,39360,39360,39360,tc,null,null,null,null,null,null,"[1,3]"
NA,canvas-keyboard-response,7,61154,0.0-6.0-1.0,5022,NA,NA,NA,NA,clear_screen,null,null,NA,NA,critical,t,d,c,240,164,240,164,164,240,trueblood,0,w,240,164,164,240,240,164,39360,39360,39360,tc,null,null,null,null,null,null,"[1,3]"
NA,canvas-keyboard-response,8,62495,0.0-6.0-2.0,5022,NA,NA,NA,NA,rectangles,null,null,NA,NA,critical,t,d,c,240,164,240,164,164,240,trueblood,0,w,240,164,164,240,240,164,39360,39360,39360,tc,null,null,null,null,null,null,"[1,3]"
NA,canvas-keyboard-response,9,62658,0.0-6.0-3.0,5022,NA,NA,NA,NA,clear_screen,null,null,NA,NA,critical,t,d,c,240,164,240,164,164,240,trueblood,0,w,240,164,164,240,240,164,39360,39360,39360,tc,null,null,null,null,null,null,"[1,3]"
NA,canvas-keyboard-response,10,65110,0.0-6.0-4.0,5022,NA,NA,NA,NA,make choice,2439,3,NA,NA,critical,t,d,c,240,164,240,164,164,240,trueblood,0,w,240,164,164,240,240,164,39360,39360,39360,tc,null,null,null,null,null,null,"[1,3]"
NA,canvas-keyboard-response,11,65272,0.0-6.0-5.0,5022,NA,NA,NA,NA,clear_screen,null,null,NA,NA,critical,t,d,c,240,164,240,164,164,240,trueblood,0,w,240,164,164,240,240,164,39360,39360,39360,tc,null,null,null,null,null,null,"[1,3]"
NA,canvas-keyboard-response,12,65477,0.0-6.0-0.1,5022,NA,NA,NA,NA,pre trial waiting period,null,null,NA,NA,catch,l,sh,sw,261,160,239,208,200,207,spektor,null,null,null,null,null,null,null,null,null,null,null,NA,180,200,260,200,36000,52000,"[1,3]"
NA,canvas-keyboard-response,13,65636,0.0-6.0-1.1,5022,NA,NA,NA,NA,clear_screen,null,null,NA,NA,catch,l,sh,sw,261,160,239,208,200,207,spektor,null,null,null,null,null,null,null,null,null,null,null,NA,180,200,260,200,36000,52000,"[1,3]"
NA,canvas-keyboard-response,14,66976,0.0-6.0-2.1,5022,NA,NA,NA,NA,rectangles,null,null,NA,NA,catch,l,sh,sw,261,160,239,208,200,207,spektor,null,null,null,null,null,null,null,null,null,null,null,NA,180,200,260,200,36000,52000,"[1,3]"
NA,canvas-keyboard-response,15,67140,0.0-6.0-3.1,5022,NA,NA,NA,NA,clear_screen,null,null,NA,NA,catch,l,sh,sw,261,160,239,208,200,207,spektor,null,null,null,null,null,null,null,null,null,null,null,NA,180,200,260,200,36000,52000,"[1,3]"
NA,canvas-keyboard-response,16,69606,0.0-6.0-4.1,5022,NA,NA,NA,NA,make choice,2455,1,NA,NA,catch,l,sh,sw,261,160,239,208,200,207,spektor,null,null,null,null,null,null,null,null,null,null,null,NA,180,200,260,200,36000,52000,"[1,3]"
NA,canvas-keyboard-response,17,69771,0.0-6.0-5.1,5022,NA,NA,NA,NA,clear_screen,null,null,NA,NA,catch,l,sh,sw,261,160,239,208,200,207,spektor,null,null,null,null,null,null,null,null,null,null,null,NA,180,200,260,200,36000,52000,"[1,3]"
NA,canvas-keyboard-response,18,69976,0.0-6.0-0.2,5022,NA,NA,NA,NA,pre trial waiting period,null,null,NA,NA,catch,sh,l,sw,170,166,261,217,217,162,spektor,null,null,null,null,null,null,null,null,null,null,null,NA,180,200,260,200,36000,52000,"[2,3]"
NA,canvas-keyboard-response,19,70131,0.0-6.0-1.2,5022,NA,NA,NA,NA,clear_screen,null,null,NA,NA,catch,sh,l,sw,170,166,261,217,217,162,spektor,null,null,null,null,null,null,null,null,null,null,null,NA,180,200,260,200,36000,52000,"[2,3]"
NA,canvas-keyboard-response,20,71469,0.0-6.0-2.2,5022,NA,NA,NA,NA,rectangles,null,null,NA,NA,catch,sh,l,sw,170,166,261,217,217,162,spektor,null,null,null,null,null,null,null,null,null,null,null,NA,180,200,260,200,36000,52000,"[2,3]"
NA,canvas-keyboard-response,21,71630,0.0-6.0-3.2,5022,NA,NA,NA,NA,clear_screen,null,null,NA,NA,catch,sh,l,sw,170,166,261,217,217,162,spektor,null,null,null,null,null,null,null,null,null,null,null,NA,180,200,260,200,36000,52000,"[2,3]"
NA,canvas-keyboard-response,22,72663,0.0-6.0-4.2,5022,NA,NA,NA,NA,make choice,1021,2,NA,NA,catch,sh,l,sw,170,166,261,217,217,162,spektor,null,null,null,null,null,null,null,null,null,null,null,NA,180,200,260,200,36000,52000,"[2,3]"
NA,canvas-keyboard-response,23,72826,0.0-6.0-5.2,5022,NA,NA,NA,NA,clear_screen,null,null,NA,NA,catch,sh,l,sw,170,166,261,217,217,162,spektor,null,null,null,null,null,null,null,null,null,null,null,NA,180,200,260,200,36000,52000,"[2,3]"
NA,canvas-keyboard-response,24,73036,0.0-6.0-0.3,5022,NA,NA,NA,NA,pre trial waiting period,null,null,NA,NA,critical,c,d,t,164,240,220.0396,154.6796,240,164,trueblood,0.14,w,240,164,164,240,220.0396,154.6796,39360,39360,34035.6388,td,null,null,null,null,null,null,"[3,2]"
NA,canvas-keyboard-response,25,73190,0.0-6.0-1.3,5022,NA,NA,NA,NA,clear_screen,null,null,NA,NA,critical,c,d,t,164,240,220.0396,154.6796,240,164,trueblood,0.14,w,240,164,164,240,220.0396,154.6796,39360,39360,34035.6388,td,null,null,null,null,null,null,"[3,2]"
NA,canvas-keyboard-response,26,74532,0.0-6.0-2.3,5022,NA,NA,NA,NA,rectangles,null,null,NA,NA,critical,c,d,t,164,240,220.0396,154.6796,240,164,trueblood,0.14,w,240,164,164,240,220.0396,154.6796,39360,39360,34035.6388,td,null,null,null,null,null,null,"[3,2]"
NA,canvas-keyboard-response,27,74698,0.0-6.0-3.3,5022,NA,NA,NA,NA,clear_screen,null,null,NA,NA,critical,c,d,t,164,240,220.0396,154.6796,240,164,trueblood,0.14,w,240,164,164,240,220.0396,154.6796,39360,39360,34035.6388,td,null,null,null,null,null,null,"[3,2]"
NA,canvas-keyboard-response,28,75534,0.0-6.0-4.3,5022,NA,NA,NA,NA,make choice,823,3,NA,NA,critical,c,d,t,164,240,220.0396,154.6796,240,164,trueblood,0.14,w,240,164,164,240,220.0396,154.6796,39360,39360,34035.6388,td,null,null,null,null,null,null,"[3,2]"
NA,canvas-keyboard-response,29,75697,0.0-6.0-5.3,5022,NA,NA,NA,NA,clear_screen,null,null,NA,NA,critical,c,d,t,164,240,220.0396,154.6796,240,164,trueblood,0.14,w,240,164,164,240,220.0396,154.6796,39360,39360,34035.6388,td,null,null,null,null,null,null,"[3,2]"
NA,canvas-keyboard-response,30,75906,0.0-6.0-0.4,5022,NA,NA,NA,NA,pre trial waiting period,null,null,NA,NA,catch,sh,sw,l,230,147,145,182,230,160,spektor,null,null,null,null,null,null,null,null,null,null,null,NA,180,200,260,200,36000,52000,"[2,3]"
NA,canvas-keyboard-response,31,76062,0.0-6.0-1.4,5022,NA,NA,NA,NA,clear_screen,null,null,NA,NA,catch,sh,sw,l,230,147,145,182,230,160,spektor,null,null,null,null,null,null,null,null,null,null,null,NA,180,200,260,200,36000,52000,"[2,3]"
NA,canvas-keyboard-response,32,77396,0.0-6.0-2.4,5022,NA,NA,NA,NA,rectangles,null,null,NA,NA,catch,sh,sw,l,230,147,145,182,230,160,spektor,null,null,null,null,null,null,null,null,null,null,null,NA,180,200,260,200,36000,52000,"[2,3]"
NA,canvas-keyboard-response,33,77561,0.0-6.0-3.4,5022,NA,NA,NA,NA,clear_screen,null,null,NA,NA,catch,sh,sw,l,230,147,145,182,230,160,spektor,null,null,null,null,null,null,null,null,null,null,null,NA,180,200,260,200,36000,52000,"[2,3]"
NA,canvas-keyboard-response,34,78398,0.0-6.0-4.4,5022,NA,NA,NA,NA,make choice,823,3,NA,NA,catch,sh,sw,l,230,147,145,182,230,160,spektor,null,null,null,null,null,null,null,null,null,null,null,NA,180,200,260,200,36000,52000,"[2,3]"
NA,canvas-keyboard-response,35,78559,0.0-6.0-5.4,5022,NA,NA,NA,NA,clear_screen,null,null,NA,NA,catch,sh,sw,l,230,147,145,182,230,160,spektor,null,null,null,null,null,null,null,null,null,null,null,NA,180,200,260,200,36000,52000,"[2,3]"
NA,canvas-keyboard-response,36,78764,0.0-6.0-0.5,5022,NA,NA,NA,NA,pre trial waiting period,null,null,NA,NA,critical,d,t,c,232.8713,160.6713,240,164,164,240,spektor,0.05,w,240,164,164,240,232.8713,160.6713,39360,39360,37415.7294,td,null,null,null,null,null,null,"[2,1]"
NA,canvas-keyboard-response,37,78924,0.0-6.0-1.5,5022,NA,NA,NA,NA,clear_screen,null,null,NA,NA,critical,d,t,c,232.8713,160.6713,240,164,164,240,spektor,0.05,w,240,164,164,240,232.8713,160.6713,39360,39360,37415.7294,td,null,null,null,null,null,null,"[2,1]"
NA,canvas-keyboard-response,38,80264,0.0-6.0-2.5,5022,NA,NA,NA,NA,rectangles,null,null,NA,NA,critical,d,t,c,232.8713,160.6713,240,164,164,240,spektor,0.05,w,240,164,164,240,232.8713,160.6713,39360,39360,37415.7294,td,null,null,null,null,null,null,"[2,1]"
NA,canvas-keyboard-response,39,80428,0.0-6.0-3.5,5022,NA,NA,NA,NA,clear_screen,null,null,NA,NA,critical,d,t,c,232.8713,160.6713,240,164,164,240,spektor,0.05,w,240,164,164,240,232.8713,160.6713,39360,39360,37415.7294,td,null,null,null,null,null,null,"[2,1]"
NA,canvas-keyboard-response,40,82117,0.0-6.0-4.5,5022,NA,NA,NA,NA,make choice,1674,2,NA,NA,critical,d,t,c,232.8713,160.6713,240,164,164,240,spektor,0.05,w,240,164,164,240,232.8713,160.6713,39360,39360,37415.7294,td,null,null,null,null,null,null,"[2,1]"
NA,canvas-keyboard-response,41,82277,0.0-6.0-5.5,5022,NA,NA,NA,NA,clear_screen,null,null,NA,NA,critical,d,t,c,232.8713,160.6713,240,164,164,240,spektor,0.05,w,240,164,164,240,232.8713,160.6713,39360,39360,37415.7294,td,null,null,null,null,null,null,"[2,1]"
NA,canvas-keyboard-response,42,82484,0.0-6.0-0.6,5022,NA,NA,NA,NA,pre trial waiting period,null,null,NA,NA,critical,t,c,d,240,164,164,240,232.8713,160.6713,trueblood,0.05,w,240,164,164,240,232.8713,160.6713,39360,39360,37415.7294,tc,null,null,null,null,null,null,"[1,2]"
NA,canvas-keyboard-response,43,82641,0.0-6.0-1.6,5022,NA,NA,NA,NA,clear_screen,null,null,NA,NA,critical,t,c,d,240,164,164,240,232.8713,160.6713,trueblood,0.05,w,240,164,164,240,232.8713,160.6713,39360,39360,37415.7294,tc,null,null,null,null,null,null,"[1,2]"
NA,canvas-keyboard-response,44,83982,0.0-6.0-2.6,5022,NA,NA,NA,NA,rectangles,null,null,NA,NA,critical,t,c,d,240,164,164,240,232.8713,160.6713,trueblood,0.05,w,240,164,164,240,232.8713,160.6713,39360,39360,37415.7294,tc,null,null,null,null,null,null,"[1,2]"
NA,canvas-keyboard-response,45,84145,0.0-6.0-3.6,5022,NA,NA,NA,NA,clear_screen,null,null,NA,NA,critical,t,c,d,240,164,164,240,232.8713,160.6713,trueblood,0.05,w,240,164,164,240,232.8713,160.6713,39360,39360,37415.7294,tc,null,null,null,null,null,null,"[1,2]"
NA,canvas-keyboard-response,46,85253,0.0-6.0-4.6,5022,NA,NA,NA,NA,make choice,1094,2,NA,NA,critical,t,c,d,240,164,164,240,232.8713,160.6713,trueblood,0.05,w,240,164,164,240,232.8713,160.6713,39360,39360,37415.7294,tc,null,null,null,null,null,null,"[1,2]"
NA,canvas-keyboard-response,47,85414,0.0-6.0-5.6,5022,NA,NA,NA,NA,clear_screen,null,null,NA,NA,critical,t,c,d,240,164,164,240,232.8713,160.6713,trueblood,0.05,w,240,164,164,240,232.8713,160.6713,39360,39360,37415.7294,tc,null,null,null,null,null,null,"[1,2]"
NA,canvas-keyboard-response,48,85622,0.0-6.0-0.7,5022,NA,NA,NA,NA,pre trial waiting period,null,null,NA,NA,catch,l,sw,sh,224,186,215,190,197,157,trueblood,null,null,null,null,null,null,null,null,null,null,null,NA,180,200,260,200,36000,52000,"[1,3]"
NA,canvas-keyboard-response,49,85777,0.0-6.0-1.7,5022,NA,NA,NA,NA,clear_screen,null,null,NA,NA,catch,l,sw,sh,224,186,215,190,197,157,trueblood,null,null,null,null,null,null,null,null,null,null,null,NA,180,200,260,200,36000,52000,"[1,3]"
NA,canvas-keyboard-response,50,87116,0.0-6.0-2.7,5022,NA,NA,NA,NA,rectangles,null,null,NA,NA,catch,l,sw,sh,224,186,215,190,197,157,trueblood,null,null,null,null,null,null,null,null,null,null,null,NA,180,200,260,200,36000,52000,"[1,3]"
NA,canvas-keyboard-response,51,87280,0.0-6.0-3.7,5022,NA,NA,NA,NA,clear_screen,null,null,NA,NA,catch,l,sw,sh,224,186,215,190,197,157,trueblood,null,null,null,null,null,null,null,null,null,null,null,NA,180,200,260,200,36000,52000,"[1,3]"
NA,canvas-keyboard-response,52,88789,0.0-6.0-4.7,5022,NA,NA,NA,NA,make choice,1497,1,NA,NA,catch,l,sw,sh,224,186,215,190,197,157,trueblood,null,null,null,null,null,null,null,null,null,null,null,NA,180,200,260,200,36000,52000,"[1,3]"
NA,canvas-keyboard-response,53,88950,0.0-6.0-5.7,5022,NA,NA,NA,NA,clear_screen,null,null,NA,NA,catch,l,sw,sh,224,186,215,190,197,157,trueblood,null,null,null,null,null,null,null,null,null,null,null,NA,180,200,260,200,36000,52000,"[1,3]"
NA,canvas-keyboard-response,54,89158,0.0-6.0-0.8,5022,NA,NA,NA,NA,pre trial waiting period,null,null,NA,NA,critical,d,t,c,164,240,164,240,240,164,trueblood,0,h,164,240,240,164,164,240,39360,39360,39360,tc,null,null,null,null,null,null,"[2,3]"
NA,canvas-keyboard-response,55,89313,0.0-6.0-1.8,5022,NA,NA,NA,NA,clear_screen,null,null,NA,NA,critical,d,t,c,164,240,164,240,240,164,trueblood,0,h,164,240,240,164,164,240,39360,39360,39360,tc,null,null,null,null,null,null,"[2,3]"
NA,canvas-keyboard-response,56,90654,0.0-6.0-2.8,5022,NA,NA,NA,NA,rectangles,null,null,NA,NA,critical,d,t,c,164,240,164,240,240,164,trueblood,0,h,164,240,240,164,164,240,39360,39360,39360,tc,null,null,null,null,null,null,"[2,3]"
NA,canvas-keyboard-response,57,90815,0.0-6.0-3.8,5022,NA,NA,NA,NA,clear_screen,null,null,NA,NA,critical,d,t,c,164,240,164,240,240,164,trueblood,0,h,164,240,240,164,164,240,39360,39360,39360,tc,null,null,null,null,null,null,"[2,3]"
NA,canvas-keyboard-response,58,91853,0.0-6.0-4.8,5022,NA,NA,NA,NA,make choice,1027,3,NA,NA,critical,d,t,c,164,240,164,240,240,164,trueblood,0,h,164,240,240,164,164,240,39360,39360,39360,tc,null,null,null,null,null,null,"[2,3]"
NA,canvas-keyboard-response,59,92018,0.0-6.0-5.8,5022,NA,NA,NA,NA,clear_screen,null,null,NA,NA,critical,d,t,c,164,240,164,240,240,164,trueblood,0,h,164,240,240,164,164,240,39360,39360,39360,tc,null,null,null,null,null,null,"[2,3]"
NA,canvas-keyboard-response,60,92226,0.0-6.0-0.9,5022,NA,NA,NA,NA,pre trial waiting period,null,null,NA,NA,critical,t,c,d,164,240,240,164,162.6685,237.1485,trueblood,0.02,h,164,240,240,164,162.6685,237.1485,39360,39360,38576.5967,tc,null,null,null,null,null,null,"[1,2]"
NA,canvas-keyboard-response,61,92380,0.0-6.0-1.9,5022,NA,NA,NA,NA,clear_screen,null,null,NA,NA,critical,t,c,d,164,240,240,164,162.6685,237.1485,trueblood,0.02,h,164,240,240,164,162.6685,237.1485,39360,39360,38576.5967,tc,null,null,null,null,null,null,"[1,2]"
NA,canvas-keyboard-response,62,93720,0.0-6.0-2.9,5022,NA,NA,NA,NA,rectangles,null,null,NA,NA,critical,t,c,d,164,240,240,164,162.6685,237.1485,trueblood,0.02,h,164,240,240,164,162.6685,237.1485,39360,39360,38576.5967,tc,null,null,null,null,null,null,"[1,2]"
NA,canvas-keyboard-response,63,93882,0.0-6.0-3.9,5022,NA,NA,NA,NA,clear_screen,null,null,NA,NA,critical,t,c,d,164,240,240,164,162.6685,237.1485,trueblood,0.02,h,164,240,240,164,162.6685,237.1485,39360,39360,38576.5967,tc,null,null,null,null,null,null,"[1,2]"
NA,canvas-keyboard-response,64,94670,0.0-6.0-4.9,5022,NA,NA,NA,NA,make choice,771,2,NA,NA,critical,t,c,d,164,240,240,164,162.6685,237.1485,trueblood,0.02,h,164,240,240,164,162.6685,237.1485,39360,39360,38576.5967,tc,null,null,null,null,null,null,"[1,2]"
NA,canvas-keyboard-response,65,94833,0.0-6.0-5.9,5022,NA,NA,NA,NA,clear_screen,null,null,NA,NA,critical,t,c,d,164,240,240,164,162.6685,237.1485,trueblood,0.02,h,164,240,240,164,162.6685,237.1485,39360,39360,38576.5967,tc,null,null,null,null,null,null,"[1,2]"
NA,canvas-keyboard-response,66,95042,0.0-6.0-0.10,5022,NA,NA,NA,NA,pre trial waiting period,null,null,NA,NA,critical,d,c,t,227.1683,158.0083,164,240,240,164,spektor,0.09,w,240,164,164,240,227.1683,158.0083,39360,39360,35894.4834,td,null,null,null,null,null,null,"[3,1]"
NA,canvas-keyboard-response,67,95204,0.0-6.0-1.10,5022,NA,NA,NA,NA,clear_screen,null,null,NA,NA,critical,d,c,t,227.1683,158.0083,164,240,240,164,spektor,0.09,w,240,164,164,240,227.1683,158.0083,39360,39360,35894.4834,td,null,null,null,null,null,null,"[3,1]"
NA,canvas-keyboard-response,68,96543,0.0-6.0-2.10,5022,NA,NA,NA,NA,rectangles,null,null,NA,NA,critical,d,c,t,227.1683,158.0083,164,240,240,164,spektor,0.09,w,240,164,164,240,227.1683,158.0083,39360,39360,35894.4834,td,null,null,null,null,null,null,"[3,1]"
NA,canvas-keyboard-response,69,96710,0.0-6.0-3.10,5022,NA,NA,NA,NA,clear_screen,null,null,NA,NA,critical,d,c,t,227.1683,158.0083,164,240,240,164,spektor,0.09,w,240,164,164,240,227.1683,158.0083,39360,39360,35894.4834,td,null,null,null,null,null,null,"[3,1]"
NA,canvas-keyboard-response,70,97446,0.0-6.0-4.10,5022,NA,NA,NA,NA,make choice,722,3,NA,NA,critical,d,c,t,227.1683,158.0083,164,240,240,164,spektor,0.09,w,240,164,164,240,227.1683,158.0083,39360,39360,35894.4834,td,null,null,null,null,null,null,"[3,1]"
NA,canvas-keyboard-response,71,97609,0.0-6.0-5.10,5022,NA,NA,NA,NA,clear_screen,null,null,NA,NA,critical,d,c,t,227.1683,158.0083,164,240,240,164,spektor,0.09,w,240,164,164,240,227.1683,158.0083,39360,39360,35894.4834,td,null,null,null,null,null,null,"[3,1]"
NA,canvas-keyboard-response,72,97821,0.0-6.0-0.11,5022,NA,NA,NA,NA,pre trial waiting period,null,null,NA,NA,critical,t,c,d,240,164,164,240,227.1683,158.0083,trueblood,0.09,w,240,164,164,240,227.1683,158.0083,39360,39360,35894.4834,tc,null,null,null,null,null,null,"[1,2]"
NA,canvas-keyboard-response,73,97980,0.0-6.0-1.11,5022,NA,NA,NA,NA,clear_screen,null,null,NA,NA,critical,t,c,d,240,164,164,240,227.1683,158.0083,trueblood,0.09,w,240,164,164,240,227.1683,158.0083,39360,39360,35894.4834,tc,null,null,null,null,null,null,"[1,2]"
NA,canvas-keyboard-response,74,99318,0.0-6.0-2.11,5022,NA,NA,NA,NA,rectangles,null,null,NA,NA,critical,t,c,d,240,164,164,240,227.1683,158.0083,trueblood,0.09,w,240,164,164,240,227.1683,158.0083,39360,39360,35894.4834,tc,null,null,null,null,null,null,"[1,2]"
NA,canvas-keyboard-response,75,99483,0.0-6.0-3.11,5022,NA,NA,NA,NA,clear_screen,null,null,NA,NA,critical,t,c,d,240,164,164,240,227.1683,158.0083,trueblood,0.09,w,240,164,164,240,227.1683,158.0083,39360,39360,35894.4834,tc,null,null,null,null,null,null,"[1,2]"
NA,canvas-keyboard-response,76,99996,0.0-6.0-4.11,5022,NA,NA,NA,NA,make choice,499,2,NA,NA,critical,t,c,d,240,164,164,240,227.1683,158.0083,trueblood,0.09,w,240,164,164,240,227.1683,158.0083,39360,39360,35894.4834,tc,null,null,null,null,null,null,"[1,2]"
NA,canvas-keyboard-response,77,100155,0.0-6.0-5.11,5022,NA,NA,NA,NA,clear_screen,null,null,NA,NA,critical,t,c,d,240,164,164,240,227.1683,158.0083,trueblood,0.09,w,240,164,164,240,227.1683,158.0083,39360,39360,35894.4834,tc,null,null,null,null,null,null,"[1,2]"
NA,canvas-keyboard-response,78,100366,0.0-6.0-0.12,5022,NA,NA,NA,NA,pre trial waiting period,null,null,NA,NA,catch,sh,l,sw,236,200,177,228,196,203,trueblood,null,null,null,null,null,null,null,null,null,null,null,NA,180,200,260,200,36000,52000,"[2,3]"
NA,canvas-keyboard-response,79,100525,0.0-6.0-1.12,5022,NA,NA,NA,NA,clear_screen,null,null,NA,NA,catch,sh,l,sw,236,200,177,228,196,203,trueblood,null,null,null,null,null,null,null,null,null,null,null,NA,180,200,260,200,36000,52000,"[2,3]"
NA,canvas-keyboard-response,80,101866,0.0-6.0-2.12,5022,NA,NA,NA,NA,rectangles,null,null,NA,NA,catch,sh,l,sw,236,200,177,228,196,203,trueblood,null,null,null,null,null,null,null,null,null,null,null,NA,180,200,260,200,36000,52000,"[2,3]"
NA,canvas-keyboard-response,81,102030,0.0-6.0-3.12,5022,NA,NA,NA,NA,clear_screen,null,null,NA,NA,catch,sh,l,sw,236,200,177,228,196,203,trueblood,null,null,null,null,null,null,null,null,null,null,null,NA,180,200,260,200,36000,52000,"[2,3]"
NA,canvas-keyboard-response,82,102932,0.0-6.0-4.12,5022,NA,NA,NA,NA,make choice,888,2,NA,NA,catch,sh,l,sw,236,200,177,228,196,203,trueblood,null,null,null,null,null,null,null,null,null,null,null,NA,180,200,260,200,36000,52000,"[2,3]"
NA,canvas-keyboard-response,83,103092,0.0-6.0-5.12,5022,NA,NA,NA,NA,clear_screen,null,null,NA,NA,catch,sh,l,sw,236,200,177,228,196,203,trueblood,null,null,null,null,null,null,null,null,null,null,null,NA,180,200,260,200,36000,52000,"[2,3]"
NA,canvas-keyboard-response,84,103298,0.0-6.0-0.13,5022,NA,NA,NA,NA,pre trial waiting period,null,null,NA,NA,critical,t,c,d,164,240,240,164,160.6713,232.8713,spektor,0.05,h,164,240,240,164,160.6713,232.8713,39360,39360,37415.7294,td,null,null,null,null,null,null,"[1,3]"
NA,canvas-keyboard-response,85,103457,0.0-6.0-1.13,5022,NA,NA,NA,NA,clear_screen,null,null,NA,NA,critical,t,c,d,164,240,240,164,160.6713,232.8713,spektor,0.05,h,164,240,240,164,160.6713,232.8713,39360,39360,37415.7294,td,null,null,null,null,null,null,"[1,3]"
NA,canvas-keyboard-response,86,104801,0.0-6.0-2.13,5022,NA,NA,NA,NA,rectangles,null,null,NA,NA,critical,t,c,d,164,240,240,164,160.6713,232.8713,spektor,0.05,h,164,240,240,164,160.6713,232.8713,39360,39360,37415.7294,td,null,null,null,null,null,null,"[1,3]"
NA,canvas-keyboard-response,87,104966,0.0-6.0-3.13,5022,NA,NA,NA,NA,clear_screen,null,null,NA,NA,critical,t,c,d,164,240,240,164,160.6713,232.8713,spektor,0.05,h,164,240,240,164,160.6713,232.8713,39360,39360,37415.7294,td,null,null,null,null,null,null,"[1,3]"
NA,canvas-keyboard-response,88,105775,0.0-6.0-4.13,5022,NA,NA,NA,NA,make choice,790,3,NA,NA,critical,t,c,d,164,240,240,164,160.6713,232.8713,spektor,0.05,h,164,240,240,164,160.6713,232.8713,39360,39360,37415.7294,td,null,null,null,null,null,null,"[1,3]"
NA,canvas-keyboard-response,89,105945,0.0-6.0-5.13,5022,NA,NA,NA,NA,clear_screen,null,null,NA,NA,critical,t,c,d,164,240,240,164,160.6713,232.8713,spektor,0.05,h,164,240,240,164,160.6713,232.8713,39360,39360,37415.7294,td,null,null,null,null,null,null,"[1,3]"
NA,canvas-keyboard-response,90,106160,0.0-6.0-0.14,5022,NA,NA,NA,NA,pre trial waiting period,null,null,NA,NA,critical,c,t,d,240,164,164,240,158.0083,227.1683,trueblood,0.09,h,164,240,240,164,158.0083,227.1683,39360,39360,35894.4834,dc,null,null,null,null,null,null,"[3,1]"
NA,canvas-keyboard-response,91,106320,0.0-6.0-1.14,5022,NA,NA,NA,NA,clear_screen,null,null,NA,NA,critical,c,t,d,240,164,164,240,158.0083,227.1683,trueblood,0.09,h,164,240,240,164,158.0083,227.1683,39360,39360,35894.4834,dc,null,null,null,null,null,null,"[3,1]"
NA,canvas-keyboard-response,92,107665,0.0-6.0-2.14,5022,NA,NA,NA,NA,rectangles,null,null,NA,NA,critical,c,t,d,240,164,164,240,158.0083,227.1683,trueblood,0.09,h,164,240,240,164,158.0083,227.1683,39360,39360,35894.4834,dc,null,null,null,null,null,null,"[3,1]"
NA,canvas-keyboard-response,93,107833,0.0-6.0-3.14,5022,NA,NA,NA,NA,clear_screen,null,null,NA,NA,critical,c,t,d,240,164,164,240,158.0083,227.1683,trueblood,0.09,h,164,240,240,164,158.0083,227.1683,39360,39360,35894.4834,dc,null,null,null,null,null,null,"[3,1]"
NA,canvas-keyboard-response,94,109294,0.0-6.0-4.14,5022,NA,NA,NA,NA,make choice,1444,3,NA,NA,critical,c,t,d,240,164,164,240,158.0083,227.1683,trueblood,0.09,h,164,240,240,164,158.0083,227.1683,39360,39360,35894.4834,dc,null,null,null,null,null,null,"[3,1]"
NA,canvas-keyboard-response,95,109462,0.0-6.0-5.14,5022,NA,NA,NA,NA,clear_screen,null,null,NA,NA,critical,c,t,d,240,164,164,240,158.0083,227.1683,trueblood,0.09,h,164,240,240,164,158.0083,227.1683,39360,39360,35894.4834,dc,null,null,null,null,null,null,"[3,1]"
NA,canvas-keyboard-response,96,109675,0.0-6.0-0.15,5022,NA,NA,NA,NA,pre trial waiting period,null,null,NA,NA,catch,l,sw,sh,240,211,217,209,176,157,trueblood,null,null,null,null,null,null,null,null,null,null,null,NA,180,200,260,200,36000,52000,"[1,3]"
NA,canvas-keyboard-response,97,109837,0.0-6.0-1.15,5022,NA,NA,NA,NA,clear_screen,null,null,NA,NA,catch,l,sw,sh,240,211,217,209,176,157,trueblood,null,null,null,null,null,null,null,null,null,null,null,NA,180,200,260,200,36000,52000,"[1,3]"
NA,canvas-keyboard-response,98,111181,0.0-6.0-2.15,5022,NA,NA,NA,NA,rectangles,null,null,NA,NA,catch,l,sw,sh,240,211,217,209,176,157,trueblood,null,null,null,null,null,null,null,null,null,null,null,NA,180,200,260,200,36000,52000,"[1,3]"
NA,canvas-keyboard-response,99,111348,0.0-6.0-3.15,5022,NA,NA,NA,NA,clear_screen,null,null,NA,NA,catch,l,sw,sh,240,211,217,209,176,157,trueblood,null,null,null,null,null,null,null,null,null,null,null,NA,180,200,260,200,36000,52000,"[1,3]"
NA,canvas-keyboard-response,100,112069,0.0-6.0-4.15,5022,NA,NA,NA,NA,make choice,705,1,NA,NA,catch,l,sw,sh,240,211,217,209,176,157,trueblood,null,null,null,null,null,null,null,null,null,null,null,NA,180,200,260,200,36000,52000,"[1,3]"
NA,canvas-keyboard-response,101,112237,0.0-6.0-5.15,5022,NA,NA,NA,NA,clear_screen,null,null,NA,NA,catch,l,sw,sh,240,211,217,209,176,157,trueblood,null,null,null,null,null,null,null,null,null,null,null,NA,180,200,260,200,36000,52000,"[1,3]"
NA,canvas-keyboard-response,102,112451,0.0-6.0-0.16,5022,NA,NA,NA,NA,pre trial waiting period,null,null,NA,NA,critical,d,c,t,237.1485,162.6685,164,240,240,164,spektor,0.02,w,240,164,164,240,237.1485,162.6685,39360,39360,38576.5967,dc,null,null,null,null,null,null,"[1,2]"
NA,canvas-keyboard-response,103,112613,0.0-6.0-1.16,5022,NA,NA,NA,NA,clear_screen,null,null,NA,NA,critical,d,c,t,237.1485,162.6685,164,240,240,164,spektor,0.02,w,240,164,164,240,237.1485,162.6685,39360,39360,38576.5967,dc,null,null,null,null,null,null,"[1,2]"
NA,canvas-keyboard-response,104,113955,0.0-6.0-2.16,5022,NA,NA,NA,NA,rectangles,null,null,NA,NA,critical,d,c,t,237.1485,162.6685,164,240,240,164,spektor,0.02,w,240,164,164,240,237.1485,162.6685,39360,39360,38576.5967,dc,null,null,null,null,null,null,"[1,2]"
NA,canvas-keyboard-response,105,114121,0.0-6.0-3.16,5022,NA,NA,NA,NA,clear_screen,null,null,NA,NA,critical,d,c,t,237.1485,162.6685,164,240,240,164,spektor,0.02,w,240,164,164,240,237.1485,162.6685,39360,39360,38576.5967,dc,null,null,null,null,null,null,"[1,2]"
NA,canvas-keyboard-response,106,115125,0.0-6.0-4.16,5022,NA,NA,NA,NA,make choice,986,2,NA,NA,critical,d,c,t,237.1485,162.6685,164,240,240,164,spektor,0.02,w,240,164,164,240,237.1485,162.6685,39360,39360,38576.5967,dc,null,null,null,null,null,null,"[1,2]"
NA,canvas-keyboard-response,107,115289,0.0-6.0-5.16,5022,NA,NA,NA,NA,clear_screen,null,null,NA,NA,critical,d,c,t,237.1485,162.6685,164,240,240,164,spektor,0.02,w,240,164,164,240,237.1485,162.6685,39360,39360,38576.5967,dc,null,null,null,null,null,null,"[1,2]"
NA,canvas-keyboard-response,108,115503,0.0-6.0-0.17,5022,NA,NA,NA,NA,pre trial waiting period,null,null,NA,NA,critical,d,c,t,158.0083,227.1683,240,164,164,240,trueblood,0.09,h,164,240,240,164,158.0083,227.1683,39360,39360,35894.4834,tc,null,null,null,null,null,null,"[3,2]"
NA,canvas-keyboard-response,109,115667,0.0-6.0-1.17,5022,NA,NA,NA,NA,clear_screen,null,null,NA,NA,critical,d,c,t,158.0083,227.1683,240,164,164,240,trueblood,0.09,h,164,240,240,164,158.0083,227.1683,39360,39360,35894.4834,tc,null,null,null,null,null,null,"[3,2]"
NA,canvas-keyboard-response,110,117008,0.0-6.0-2.17,5022,NA,NA,NA,NA,rectangles,null,null,NA,NA,critical,d,c,t,158.0083,227.1683,240,164,164,240,trueblood,0.09,h,164,240,240,164,158.0083,227.1683,39360,39360,35894.4834,tc,null,null,null,null,null,null,"[3,2]"
NA,canvas-keyboard-response,111,117175,0.0-6.0-3.17,5022,NA,NA,NA,NA,clear_screen,null,null,NA,NA,critical,d,c,t,158.0083,227.1683,240,164,164,240,trueblood,0.09,h,164,240,240,164,158.0083,227.1683,39360,39360,35894.4834,tc,null,null,null,null,null,null,"[3,2]"
NA,canvas-keyboard-response,112,117869,0.0-6.0-4.17,5022,NA,NA,NA,NA,make choice,676,3,NA,NA,critical,d,c,t,158.0083,227.1683,240,164,164,240,trueblood,0.09,h,164,240,240,164,158.0083,227.1683,39360,39360,35894.4834,tc,null,null,null,null,null,null,"[3,2]"
NA,canvas-keyboard-response,113,118033,0.0-6.0-5.17,5022,NA,NA,NA,NA,clear_screen,null,null,NA,NA,critical,d,c,t,158.0083,227.1683,240,164,164,240,trueblood,0.09,h,164,240,240,164,158.0083,227.1683,39360,39360,35894.4834,tc,null,null,null,null,null,null,"[3,2]"
NA,canvas-keyboard-response,114,118243,0.0-6.0-0.18,5022,NA,NA,NA,NA,pre trial waiting period,null,null,NA,NA,critical,t,c,d,240,164,164,240,220.0396,154.6796,trueblood,0.14,w,240,164,164,240,220.0396,154.6796,39360,39360,34035.6388,dc,null,null,null,null,null,null,"[3,2]"
NA,canvas-keyboard-response,115,118404,0.0-6.0-1.18,5022,NA,NA,NA,NA,clear_screen,null,null,NA,NA,critical,t,c,d,240,164,164,240,220.0396,154.6796,trueblood,0.14,w,240,164,164,240,220.0396,154.6796,39360,39360,34035.6388,dc,null,null,null,null,null,null,"[3,2]"
NA,canvas-keyboard-response,116,119746,0.0-6.0-2.18,5022,NA,NA,NA,NA,rectangles,null,null,NA,NA,critical,t,c,d,240,164,164,240,220.0396,154.6796,trueblood,0.14,w,240,164,164,240,220.0396,154.6796,39360,39360,34035.6388,dc,null,null,null,null,null,null,"[3,2]"
NA,canvas-keyboard-response,117,119912,0.0-6.0-3.18,5022,NA,NA,NA,NA,clear_screen,null,null,NA,NA,critical,t,c,d,240,164,164,240,220.0396,154.6796,trueblood,0.14,w,240,164,164,240,220.0396,154.6796,39360,39360,34035.6388,dc,null,null,null,null,null,null,"[3,2]"
NA,canvas-keyboard-response,118,120428,0.0-6.0-4.18,5022,NA,NA,NA,NA,make choice,500,2,NA,NA,critical,t,c,d,240,164,164,240,220.0396,154.6796,trueblood,0.14,w,240,164,164,240,220.0396,154.6796,39360,39360,34035.6388,dc,null,null,null,null,null,null,"[3,2]"
NA,canvas-keyboard-response,119,120589,0.0-6.0-5.18,5022,NA,NA,NA,NA,clear_screen,null,null,NA,NA,critical,t,c,d,240,164,164,240,220.0396,154.6796,trueblood,0.14,w,240,164,164,240,220.0396,154.6796,39360,39360,34035.6388,dc,null,null,null,null,null,null,"[3,2]"
NA,canvas-keyboard-response,120,120803,0.0-6.0-0.19,5022,NA,NA,NA,NA,pre trial waiting period,null,null,NA,NA,critical,c,d,t,164,240,220.0396,154.6796,240,164,trueblood,0.14,w,240,164,164,240,220.0396,154.6796,39360,39360,34035.6388,tc,null,null,null,null,null,null,"[3,1]"
NA,canvas-keyboard-response,121,120965,0.0-6.0-1.19,5022,NA,NA,NA,NA,clear_screen,null,null,NA,NA,critical,c,d,t,164,240,220.0396,154.6796,240,164,trueblood,0.14,w,240,164,164,240,220.0396,154.6796,39360,39360,34035.6388,tc,null,null,null,null,null,null,"[3,1]"
NA,canvas-keyboard-response,122,122307,0.0-6.0-2.19,5022,NA,NA,NA,NA,rectangles,null,null,NA,NA,critical,c,d,t,164,240,220.0396,154.6796,240,164,trueblood,0.14,w,240,164,164,240,220.0396,154.6796,39360,39360,34035.6388,tc,null,null,null,null,null,null,"[3,1]"
NA,canvas-keyboard-response,123,122473,0.0-6.0-3.19,5022,NA,NA,NA,NA,clear_screen,null,null,NA,NA,critical,c,d,t,164,240,220.0396,154.6796,240,164,trueblood,0.14,w,240,164,164,240,220.0396,154.6796,39360,39360,34035.6388,tc,null,null,null,null,null,null,"[3,1]"
NA,canvas-keyboard-response,124,123100,0.0-6.0-4.19,5022,NA,NA,NA,NA,make choice,611,3,NA,NA,critical,c,d,t,164,240,220.0396,154.6796,240,164,trueblood,0.14,w,240,164,164,240,220.0396,154.6796,39360,39360,34035.6388,tc,null,null,null,null,null,null,"[3,1]"
NA,canvas-keyboard-response,125,123264,0.0-6.0-5.19,5022,NA,NA,NA,NA,clear_screen,null,null,NA,NA,critical,c,d,t,164,240,220.0396,154.6796,240,164,trueblood,0.14,w,240,164,164,240,220.0396,154.6796,39360,39360,34035.6388,tc,null,null,null,null,null,null,"[3,1]"
NA,canvas-keyboard-response,126,123476,0.0-6.0-0.20,5022,NA,NA,NA,NA,pre trial waiting period,null,null,NA,NA,critical,c,t,d,240,164,164,240,164,240,spektor,0,h,164,240,240,164,164,240,39360,39360,39360,dc,null,null,null,null,null,null,"[3,1]"
NA,canvas-keyboard-response,127,123639,0.0-6.0-1.20,5022,NA,NA,NA,NA,clear_screen,null,null,NA,NA,critical,c,t,d,240,164,164,240,164,240,spektor,0,h,164,240,240,164,164,240,39360,39360,39360,dc,null,null,null,null,null,null,"[3,1]"
NA,canvas-keyboard-response,128,124980,0.0-6.0-2.20,5022,NA,NA,NA,NA,rectangles,null,null,NA,NA,critical,c,t,d,240,164,164,240,164,240,spektor,0,h,164,240,240,164,164,240,39360,39360,39360,dc,null,null,null,null,null,null,"[3,1]"
NA,canvas-keyboard-response,129,125147,0.0-6.0-3.20,5022,NA,NA,NA,NA,clear_screen,null,null,NA,NA,critical,c,t,d,240,164,164,240,164,240,spektor,0,h,164,240,240,164,164,240,39360,39360,39360,dc,null,null,null,null,null,null,"[3,1]"
NA,canvas-keyboard-response,130,125805,0.0-6.0-4.20,5022,NA,NA,NA,NA,make choice,641,3,NA,NA,critical,c,t,d,240,164,164,240,164,240,spektor,0,h,164,240,240,164,164,240,39360,39360,39360,dc,null,null,null,null,null,null,"[3,1]"
NA,canvas-keyboard-response,131,125970,0.0-6.0-5.20,5022,NA,NA,NA,NA,clear_screen,null,null,NA,NA,critical,c,t,d,240,164,164,240,164,240,spektor,0,h,164,240,240,164,164,240,39360,39360,39360,dc,null,null,null,null,null,null,"[3,1]"
NA,canvas-keyboard-response,132,126183,0.0-6.0-0.21,5022,NA,NA,NA,NA,pre trial waiting period,null,null,NA,NA,critical,d,t,c,237.1485,162.6685,240,164,164,240,trueblood,0.02,w,240,164,164,240,237.1485,162.6685,39360,39360,38576.5967,dc,null,null,null,null,null,null,"[1,3]"
NA,canvas-keyboard-response,133,126342,0.0-6.0-1.21,5022,NA,NA,NA,NA,clear_screen,null,null,NA,NA,critical,d,t,c,237.1485,162.6685,240,164,164,240,trueblood,0.02,w,240,164,164,240,237.1485,162.6685,39360,39360,38576.5967,dc,null,null,null,null,null,null,"[1,3]"
NA,canvas-keyboard-response,134,127683,0.0-6.0-2.21,5022,NA,NA,NA,NA,rectangles,null,null,NA,NA,critical,d,t,c,237.1485,162.6685,240,164,164,240,trueblood,0.02,w,240,164,164,240,237.1485,162.6685,39360,39360,38576.5967,dc,null,null,null,null,null,null,"[1,3]"
NA,canvas-keyboard-response,135,127850,0.0-6.0-3.21,5022,NA,NA,NA,NA,clear_screen,null,null,NA,NA,critical,d,t,c,237.1485,162.6685,240,164,164,240,trueblood,0.02,w,240,164,164,240,237.1485,162.6685,39360,39360,38576.5967,dc,null,null,null,null,null,null,"[1,3]"
NA,canvas-keyboard-response,136,128558,0.0-6.0-4.21,5022,NA,NA,NA,NA,make choice,692,3,NA,NA,critical,d,t,c,237.1485,162.6685,240,164,164,240,trueblood,0.02,w,240,164,164,240,237.1485,162.6685,39360,39360,38576.5967,dc,null,null,null,null,null,null,"[1,3]"
NA,canvas-keyboard-response,137,128723,0.0-6.0-5.21,5022,NA,NA,NA,NA,clear_screen,null,null,NA,NA,critical,d,t,c,237.1485,162.6685,240,164,164,240,trueblood,0.02,w,240,164,164,240,237.1485,162.6685,39360,39360,38576.5967,dc,null,null,null,null,null,null,"[1,3]"
NA,canvas-keyboard-response,138,128936,0.0-6.0-0.22,5022,NA,NA,NA,NA,pre trial waiting period,null,null,NA,NA,critical,d,c,t,160.6713,232.8713,240,164,164,240,trueblood,0.05,h,164,240,240,164,160.6713,232.8713,39360,39360,37415.7294,td,null,null,null,null,null,null,"[3,1]"
NA,canvas-keyboard-response,139,129100,0.0-6.0-1.22,5022,NA,NA,NA,NA,clear_screen,null,null,NA,NA,critical,d,c,t,160.6713,232.8713,240,164,164,240,trueblood,0.05,h,164,240,240,164,160.6713,232.8713,39360,39360,37415.7294,td,null,null,null,null,null,null,"[3,1]"
NA,canvas-keyboard-response,140,130438,0.0-6.0-2.22,5022,NA,NA,NA,NA,rectangles,null,null,NA,NA,critical,d,c,t,160.6713,232.8713,240,164,164,240,trueblood,0.05,h,164,240,240,164,160.6713,232.8713,39360,39360,37415.7294,td,null,null,null,null,null,null,"[3,1]"
NA,canvas-keyboard-response,141,130605,0.0-6.0-3.22,5022,NA,NA,NA,NA,clear_screen,null,null,NA,NA,critical,d,c,t,160.6713,232.8713,240,164,164,240,trueblood,0.05,h,164,240,240,164,160.6713,232.8713,39360,39360,37415.7294,td,null,null,null,null,null,null,"[3,1]"
NA,canvas-keyboard-response,142,132070,0.0-6.0-4.22,5022,NA,NA,NA,NA,make choice,1448,3,NA,NA,critical,d,c,t,160.6713,232.8713,240,164,164,240,trueblood,0.05,h,164,240,240,164,160.6713,232.8713,39360,39360,37415.7294,td,null,null,null,null,null,null,"[3,1]"
NA,canvas-keyboard-response,143,132235,0.0-6.0-5.22,5022,NA,NA,NA,NA,clear_screen,null,null,NA,NA,critical,d,c,t,160.6713,232.8713,240,164,164,240,trueblood,0.05,h,164,240,240,164,160.6713,232.8713,39360,39360,37415.7294,td,null,null,null,null,null,null,"[3,1]"
NA,canvas-keyboard-response,144,132445,0.0-6.0-0.23,5022,NA,NA,NA,NA,pre trial waiting period,null,null,NA,NA,critical,t,c,d,240,164,164,240,232.8713,160.6713,trueblood,0.05,w,240,164,164,240,232.8713,160.6713,39360,39360,37415.7294,td,null,null,null,null,null,null,"[1,3]"
NA,canvas-keyboard-response,145,132599,0.0-6.0-1.23,5022,NA,NA,NA,NA,clear_screen,null,null,NA,NA,critical,t,c,d,240,164,164,240,232.8713,160.6713,trueblood,0.05,w,240,164,164,240,232.8713,160.6713,39360,39360,37415.7294,td,null,null,null,null,null,null,"[1,3]"
NA,canvas-keyboard-response,146,133941,0.0-6.0-2.23,5022,NA,NA,NA,NA,rectangles,null,null,NA,NA,critical,t,c,d,240,164,164,240,232.8713,160.6713,trueblood,0.05,w,240,164,164,240,232.8713,160.6713,39360,39360,37415.7294,td,null,null,null,null,null,null,"[1,3]"
NA,canvas-keyboard-response,147,134108,0.0-6.0-3.23,5022,NA,NA,NA,NA,clear_screen,null,null,NA,NA,critical,t,c,d,240,164,164,240,232.8713,160.6713,trueblood,0.05,w,240,164,164,240,232.8713,160.6713,39360,39360,37415.7294,td,null,null,null,null,null,null,"[1,3]"
NA,canvas-keyboard-response,148,137158,0.0-6.0-4.23,5022,NA,NA,NA,NA,make choice,3032,3,NA,NA,critical,t,c,d,240,164,164,240,232.8713,160.6713,trueblood,0.05,w,240,164,164,240,232.8713,160.6713,39360,39360,37415.7294,td,null,null,null,null,null,null,"[1,3]"
NA,canvas-keyboard-response,149,137322,0.0-6.0-5.23,5022,NA,NA,NA,NA,clear_screen,null,null,NA,NA,critical,t,c,d,240,164,164,240,232.8713,160.6713,trueblood,0.05,w,240,164,164,240,232.8713,160.6713,39360,39360,37415.7294,td,null,null,null,null,null,null,"[1,3]"
NA,canvas-keyboard-response,150,137533,0.0-6.0-0.24,5022,NA,NA,NA,NA,pre trial waiting period,null,null,NA,NA,critical,c,d,t,240,164,164,240,164,240,spektor,0,h,164,240,240,164,164,240,39360,39360,39360,tc,null,null,null,null,null,null,"[3,1]"
NA,canvas-keyboard-response,151,137691,0.0-6.0-1.24,5022,NA,NA,NA,NA,clear_screen,null,null,NA,NA,critical,c,d,t,240,164,164,240,164,240,spektor,0,h,164,240,240,164,164,240,39360,39360,39360,tc,null,null,null,null,null,null,"[3,1]"
NA,canvas-keyboard-response,152,139035,0.0-6.0-2.24,5022,NA,NA,NA,NA,rectangles,null,null,NA,NA,critical,c,d,t,240,164,164,240,164,240,spektor,0,h,164,240,240,164,164,240,39360,39360,39360,tc,null,null,null,null,null,null,"[3,1]"
NA,canvas-keyboard-response,153,139209,0.0-6.0-3.24,5022,NA,NA,NA,NA,clear_screen,null,null,NA,NA,critical,c,d,t,240,164,164,240,164,240,spektor,0,h,164,240,240,164,164,240,39360,39360,39360,tc,null,null,null,null,null,null,"[3,1]"
NA,canvas-keyboard-response,154,140934,0.0-6.0-4.24,5022,NA,NA,NA,NA,make choice,1705,1,NA,NA,critical,c,d,t,240,164,164,240,164,240,spektor,0,h,164,240,240,164,164,240,39360,39360,39360,tc,null,null,null,null,null,null,"[3,1]"
NA,canvas-keyboard-response,155,141098,0.0-6.0-5.24,5022,NA,NA,NA,NA,clear_screen,null,null,NA,NA,critical,c,d,t,240,164,164,240,164,240,spektor,0,h,164,240,240,164,164,240,39360,39360,39360,tc,null,null,null,null,null,null,"[3,1]"
NA,canvas-keyboard-response,156,141310,0.0-6.0-0.25,5022,NA,NA,NA,NA,pre trial waiting period,null,null,NA,NA,catch,sw,l,sh,180,200,225,198,234,153,spektor,null,null,null,null,null,null,null,null,null,null,null,NA,180,200,260,200,36000,52000,"[2,3]"
NA,canvas-keyboard-response,157,141465,0.0-6.0-1.25,5022,NA,NA,NA,NA,clear_screen,null,null,NA,NA,catch,sw,l,sh,180,200,225,198,234,153,spektor,null,null,null,null,null,null,null,null,null,null,null,NA,180,200,260,200,36000,52000,"[2,3]"
NA,canvas-keyboard-response,158,142810,0.0-6.0-2.25,5022,NA,NA,NA,NA,rectangles,null,null,NA,NA,catch,sw,l,sh,180,200,225,198,234,153,spektor,null,null,null,null,null,null,null,null,null,null,null,NA,180,200,260,200,36000,52000,"[2,3]"
NA,canvas-keyboard-response,159,142977,0.0-6.0-3.25,5022,NA,NA,NA,NA,clear_screen,null,null,NA,NA,catch,sw,l,sh,180,200,225,198,234,153,spektor,null,null,null,null,null,null,null,null,null,null,null,NA,180,200,260,200,36000,52000,"[2,3]"
NA,canvas-keyboard-response,160,143815,0.0-6.0-4.25,5022,NA,NA,NA,NA,make choice,819,3,NA,NA,catch,sw,l,sh,180,200,225,198,234,153,spektor,null,null,null,null,null,null,null,null,null,null,null,NA,180,200,260,200,36000,52000,"[2,3]"
NA,canvas-keyboard-response,161,143979,0.0-6.0-5.25,5022,NA,NA,NA,NA,clear_screen,null,null,NA,NA,catch,sw,l,sh,180,200,225,198,234,153,spektor,null,null,null,null,null,null,null,null,null,null,null,NA,180,200,260,200,36000,52000,"[2,3]"
NA,canvas-keyboard-response,162,144193,0.0-6.0-0.26,5022,NA,NA,NA,NA,pre trial waiting period,null,null,NA,NA,critical,d,c,t,154.6796,220.0396,240,164,164,240,trueblood,0.14,h,164,240,240,164,154.6796,220.0396,39360,39360,34035.6388,tc,null,null,null,null,null,null,"[3,2]"
NA,canvas-keyboard-response,163,144357,0.0-6.0-1.26,5022,NA,NA,NA,NA,clear_screen,null,null,NA,NA,critical,d,c,t,154.6796,220.0396,240,164,164,240,trueblood,0.14,h,164,240,240,164,154.6796,220.0396,39360,39360,34035.6388,tc,null,null,null,null,null,null,"[3,2]"
NA,canvas-keyboard-response,164,145701,0.0-6.0-2.26,5022,NA,NA,NA,NA,rectangles,null,null,NA,NA,critical,d,c,t,154.6796,220.0396,240,164,164,240,trueblood,0.14,h,164,240,240,164,154.6796,220.0396,39360,39360,34035.6388,tc,null,null,null,null,null,null,"[3,2]"
NA,canvas-keyboard-response,165,145870,0.0-6.0-3.26,5022,NA,NA,NA,NA,clear_screen,null,null,NA,NA,critical,d,c,t,154.6796,220.0396,240,164,164,240,trueblood,0.14,h,164,240,240,164,154.6796,220.0396,39360,39360,34035.6388,tc,null,null,null,null,null,null,"[3,2]"
NA,canvas-keyboard-response,166,146396,0.0-6.0-4.26,5022,NA,NA,NA,NA,make choice,510,2,NA,NA,critical,d,c,t,154.6796,220.0396,240,164,164,240,trueblood,0.14,h,164,240,240,164,154.6796,220.0396,39360,39360,34035.6388,tc,null,null,null,null,null,null,"[3,2]"
NA,canvas-keyboard-response,167,146563,0.0-6.0-5.26,5022,NA,NA,NA,NA,clear_screen,null,null,NA,NA,critical,d,c,t,154.6796,220.0396,240,164,164,240,trueblood,0.14,h,164,240,240,164,154.6796,220.0396,39360,39360,34035.6388,tc,null,null,null,null,null,null,"[3,2]"
NA,canvas-keyboard-response,168,146778,0.0-6.0-0.27,5022,NA,NA,NA,NA,pre trial waiting period,null,null,NA,NA,catch,sw,sh,l,180,200,194,145,186,231,trueblood,null,null,null,null,null,null,null,null,null,null,null,NA,180,200,260,200,36000,52000,"[1,3]"
NA,canvas-keyboard-response,169,146937,0.0-6.0-1.27,5022,NA,NA,NA,NA,clear_screen,null,null,NA,NA,catch,sw,sh,l,180,200,194,145,186,231,trueblood,null,null,null,null,null,null,null,null,null,null,null,NA,180,200,260,200,36000,52000,"[1,3]"
NA,canvas-keyboard-response,170,148281,0.0-6.0-2.27,5022,NA,NA,NA,NA,rectangles,null,null,NA,NA,catch,sw,sh,l,180,200,194,145,186,231,trueblood,null,null,null,null,null,null,null,null,null,null,null,NA,180,200,260,200,36000,52000,"[1,3]"
NA,canvas-keyboard-response,171,148447,0.0-6.0-3.27,5022,NA,NA,NA,NA,clear_screen,null,null,NA,NA,catch,sw,sh,l,180,200,194,145,186,231,trueblood,null,null,null,null,null,null,null,null,null,null,null,NA,180,200,260,200,36000,52000,"[1,3]"
NA,canvas-keyboard-response,172,149062,0.0-6.0-4.27,5022,NA,NA,NA,NA,make choice,594,3,NA,NA,catch,sw,sh,l,180,200,194,145,186,231,trueblood,null,null,null,null,null,null,null,null,null,null,null,NA,180,200,260,200,36000,52000,"[1,3]"
NA,canvas-keyboard-response,173,149230,0.0-6.0-5.27,5022,NA,NA,NA,NA,clear_screen,null,null,NA,NA,catch,sw,sh,l,180,200,194,145,186,231,trueblood,null,null,null,null,null,null,null,null,null,null,null,NA,180,200,260,200,36000,52000,"[1,3]"
NA,canvas-keyboard-response,174,149442,0.0-6.0-0.28,5022,NA,NA,NA,NA,pre trial waiting period,null,null,NA,NA,critical,d,c,t,158.0083,227.1683,240,164,164,240,trueblood,0.09,h,164,240,240,164,158.0083,227.1683,39360,39360,35894.4834,td,null,null,null,null,null,null,"[3,1]"
NA,canvas-keyboard-response,175,149596,0.0-6.0-1.28,5022,NA,NA,NA,NA,clear_screen,null,null,NA,NA,critical,d,c,t,158.0083,227.1683,240,164,164,240,trueblood,0.09,h,164,240,240,164,158.0083,227.1683,39360,39360,35894.4834,td,null,null,null,null,null,null,"[3,1]"
NA,canvas-keyboard-response,176,150941,0.0-6.0-2.28,5022,NA,NA,NA,NA,rectangles,null,null,NA,NA,critical,d,c,t,158.0083,227.1683,240,164,164,240,trueblood,0.09,h,164,240,240,164,158.0083,227.1683,39360,39360,35894.4834,td,null,null,null,null,null,null,"[3,1]"
NA,canvas-keyboard-response,177,151108,0.0-6.0-3.28,5022,NA,NA,NA,NA,clear_screen,null,null,NA,NA,critical,d,c,t,158.0083,227.1683,240,164,164,240,trueblood,0.09,h,164,240,240,164,158.0083,227.1683,39360,39360,35894.4834,td,null,null,null,null,null,null,"[3,1]"
NA,canvas-keyboard-response,178,152350,0.0-6.0-4.28,5022,NA,NA,NA,NA,make choice,1223,3,NA,NA,critical,d,c,t,158.0083,227.1683,240,164,164,240,trueblood,0.09,h,164,240,240,164,158.0083,227.1683,39360,39360,35894.4834,td,null,null,null,null,null,null,"[3,1]"
NA,canvas-keyboard-response,179,152517,0.0-6.0-5.28,5022,NA,NA,NA,NA,clear_screen,null,null,NA,NA,critical,d,c,t,158.0083,227.1683,240,164,164,240,trueblood,0.09,h,164,240,240,164,158.0083,227.1683,39360,39360,35894.4834,td,null,null,null,null,null,null,"[3,1]"
NA,canvas-keyboard-response,180,152729,0.0-6.0-0.29,5022,NA,NA,NA,NA,pre trial waiting period,null,null,NA,NA,critical,d,t,c,220.0396,154.6796,240,164,164,240,spektor,0.14,w,240,164,164,240,220.0396,154.6796,39360,39360,34035.6388,td,null,null,null,null,null,null,"[2,1]"
NA,canvas-keyboard-response,181,152888,0.0-6.0-1.29,5022,NA,NA,NA,NA,clear_screen,null,null,NA,NA,critical,d,t,c,220.0396,154.6796,240,164,164,240,spektor,0.14,w,240,164,164,240,220.0396,154.6796,39360,39360,34035.6388,td,null,null,null,null,null,null,"[2,1]"
NA,canvas-keyboard-response,182,154233,0.0-6.0-2.29,5022,NA,NA,NA,NA,rectangles,null,null,NA,NA,critical,d,t,c,220.0396,154.6796,240,164,164,240,spektor,0.14,w,240,164,164,240,220.0396,154.6796,39360,39360,34035.6388,td,null,null,null,null,null,null,"[2,1]"
NA,canvas-keyboard-response,183,154401,0.0-6.0-3.29,5022,NA,NA,NA,NA,clear_screen,null,null,NA,NA,critical,d,t,c,220.0396,154.6796,240,164,164,240,spektor,0.14,w,240,164,164,240,220.0396,154.6796,39360,39360,34035.6388,td,null,null,null,null,null,null,"[2,1]"
NA,canvas-keyboard-response,184,155837,0.0-6.0-4.29,5022,NA,NA,NA,NA,make choice,1420,2,NA,NA,critical,d,t,c,220.0396,154.6796,240,164,164,240,spektor,0.14,w,240,164,164,240,220.0396,154.6796,39360,39360,34035.6388,td,null,null,null,null,null,null,"[2,1]"
NA,canvas-keyboard-response,185,156002,0.0-6.0-5.29,5022,NA,NA,NA,NA,clear_screen,null,null,NA,NA,critical,d,t,c,220.0396,154.6796,240,164,164,240,spektor,0.14,w,240,164,164,240,220.0396,154.6796,39360,39360,34035.6388,td,null,null,null,null,null,null,"[2,1]"
NA,canvas-keyboard-response,186,156215,0.0-6.0-0.30,5022,NA,NA,NA,NA,pre trial waiting period,null,null,NA,NA,critical,c,t,d,164,240,240,164,240,164,spektor,0,w,240,164,164,240,240,164,39360,39360,39360,dc,null,null,null,null,null,null,"[3,1]"
NA,canvas-keyboard-response,187,156377,0.0-6.0-1.30,5022,NA,NA,NA,NA,clear_screen,null,null,NA,NA,critical,c,t,d,164,240,240,164,240,164,spektor,0,w,240,164,164,240,240,164,39360,39360,39360,dc,null,null,null,null,null,null,"[3,1]"
NA,canvas-keyboard-response,188,157720,0.0-6.0-2.30,5022,NA,NA,NA,NA,rectangles,null,null,NA,NA,critical,c,t,d,164,240,240,164,240,164,spektor,0,w,240,164,164,240,240,164,39360,39360,39360,dc,null,null,null,null,null,null,"[3,1]"
NA,canvas-keyboard-response,189,157890,0.0-6.0-3.30,5022,NA,NA,NA,NA,clear_screen,null,null,NA,NA,critical,c,t,d,164,240,240,164,240,164,spektor,0,w,240,164,164,240,240,164,39360,39360,39360,dc,null,null,null,null,null,null,"[3,1]"
NA,canvas-keyboard-response,190,158518,0.0-6.0-4.30,5022,NA,NA,NA,NA,make choice,607,1,NA,NA,critical,c,t,d,164,240,240,164,240,164,spektor,0,w,240,164,164,240,240,164,39360,39360,39360,dc,null,null,null,null,null,null,"[3,1]"
NA,canvas-keyboard-response,191,158685,0.0-6.0-5.30,5022,NA,NA,NA,NA,clear_screen,null,null,NA,NA,critical,c,t,d,164,240,240,164,240,164,spektor,0,w,240,164,164,240,240,164,39360,39360,39360,dc,null,null,null,null,null,null,"[3,1]"
NA,canvas-keyboard-response,192,158901,0.0-6.0-0.31,5022,NA,NA,NA,NA,pre trial waiting period,null,null,NA,NA,critical,c,d,t,240,164,162.6685,237.1485,164,240,spektor,0.02,h,164,240,240,164,162.6685,237.1485,39360,39360,38576.5967,td,null,null,null,null,null,null,"[3,2]"
NA,canvas-keyboard-response,193,159062,0.0-6.0-1.31,5022,NA,NA,NA,NA,clear_screen,null,null,NA,NA,critical,c,d,t,240,164,162.6685,237.1485,164,240,spektor,0.02,h,164,240,240,164,162.6685,237.1485,39360,39360,38576.5967,td,null,null,null,null,null,null,"[3,2]"
NA,canvas-keyboard-response,194,160405,0.0-6.0-2.31,5022,NA,NA,NA,NA,rectangles,null,null,NA,NA,critical,c,d,t,240,164,162.6685,237.1485,164,240,spektor,0.02,h,164,240,240,164,162.6685,237.1485,39360,39360,38576.5967,td,null,null,null,null,null,null,"[3,2]"
NA,canvas-keyboard-response,195,160572,0.0-6.0-3.31,5022,NA,NA,NA,NA,clear_screen,null,null,NA,NA,critical,c,d,t,240,164,162.6685,237.1485,164,240,spektor,0.02,h,164,240,240,164,162.6685,237.1485,39360,39360,38576.5967,td,null,null,null,null,null,null,"[3,2]"
NA,canvas-keyboard-response,196,161430,0.0-6.0-4.31,5022,NA,NA,NA,NA,make choice,839,3,NA,NA,critical,c,d,t,240,164,162.6685,237.1485,164,240,spektor,0.02,h,164,240,240,164,162.6685,237.1485,39360,39360,38576.5967,td,null,null,null,null,null,null,"[3,2]"
NA,canvas-keyboard-response,197,161598,0.0-6.0-5.31,5022,NA,NA,NA,NA,clear_screen,null,null,NA,NA,critical,c,d,t,240,164,162.6685,237.1485,164,240,spektor,0.02,h,164,240,240,164,162.6685,237.1485,39360,39360,38576.5967,td,null,null,null,null,null,null,"[3,2]"
NA,canvas-keyboard-response,198,161813,0.0-6.0-0.32,5022,NA,NA,NA,NA,pre trial waiting period,null,null,NA,NA,catch,sw,l,sh,180,200,237,260,217,190,spektor,null,null,null,null,null,null,null,null,null,null,null,NA,180,200,260,200,36000,52000,"[2,3]"
NA,canvas-keyboard-response,199,161976,0.0-6.0-1.32,5022,NA,NA,NA,NA,clear_screen,null,null,NA,NA,catch,sw,l,sh,180,200,237,260,217,190,spektor,null,null,null,null,null,null,null,null,null,null,null,NA,180,200,260,200,36000,52000,"[2,3]"
NA,canvas-keyboard-response,200,163319,0.0-6.0-2.32,5022,NA,NA,NA,NA,rectangles,null,null,NA,NA,catch,sw,l,sh,180,200,237,260,217,190,spektor,null,null,null,null,null,null,null,null,null,null,null,NA,180,200,260,200,36000,52000,"[2,3]"
NA,canvas-keyboard-response,201,163494,0.0-6.0-3.32,5022,NA,NA,NA,NA,clear_screen,null,null,NA,NA,catch,sw,l,sh,180,200,237,260,217,190,spektor,null,null,null,null,null,null,null,null,null,null,null,NA,180,200,260,200,36000,52000,"[2,3]"
NA,canvas-keyboard-response,202,164438,0.0-6.0-4.32,5022,NA,NA,NA,NA,make choice,934,2,NA,NA,catch,sw,l,sh,180,200,237,260,217,190,spektor,null,null,null,null,null,null,null,null,null,null,null,NA,180,200,260,200,36000,52000,"[2,3]"
NA,canvas-keyboard-response,203,164603,0.0-6.0-5.32,5022,NA,NA,NA,NA,clear_screen,null,null,NA,NA,catch,sw,l,sh,180,200,237,260,217,190,spektor,null,null,null,null,null,null,null,null,null,null,null,NA,180,200,260,200,36000,52000,"[2,3]"
NA,canvas-keyboard-response,204,164818,0.0-6.0-0.33,5022,NA,NA,NA,NA,pre trial waiting period,null,null,NA,NA,critical,d,t,c,160.6713,232.8713,164,240,240,164,spektor,0.05,h,164,240,240,164,160.6713,232.8713,39360,39360,37415.7294,tc,null,null,null,null,null,null,"[2,3]"
NA,canvas-keyboard-response,205,164974,0.0-6.0-1.33,5022,NA,NA,NA,NA,clear_screen,null,null,NA,NA,critical,d,t,c,160.6713,232.8713,164,240,240,164,spektor,0.05,h,164,240,240,164,160.6713,232.8713,39360,39360,37415.7294,tc,null,null,null,null,null,null,"[2,3]"
NA,canvas-keyboard-response,206,166318,0.0-6.0-2.33,5022,NA,NA,NA,NA,rectangles,null,null,NA,NA,critical,d,t,c,160.6713,232.8713,164,240,240,164,spektor,0.05,h,164,240,240,164,160.6713,232.8713,39360,39360,37415.7294,tc,null,null,null,null,null,null,"[2,3]"
NA,canvas-keyboard-response,207,166486,0.0-6.0-3.33,5022,NA,NA,NA,NA,clear_screen,null,null,NA,NA,critical,d,t,c,160.6713,232.8713,164,240,240,164,spektor,0.05,h,164,240,240,164,160.6713,232.8713,39360,39360,37415.7294,tc,null,null,null,null,null,null,"[2,3]"
NA,canvas-keyboard-response,208,166981,0.0-6.0-4.33,5022,NA,NA,NA,NA,make choice,478,3,NA,NA,critical,d,t,c,160.6713,232.8713,164,240,240,164,spektor,0.05,h,164,240,240,164,160.6713,232.8713,39360,39360,37415.7294,tc,null,null,null,null,null,null,"[2,3]"
NA,canvas-keyboard-response,209,167141,0.0-6.0-5.33,5022,NA,NA,NA,NA,clear_screen,null,null,NA,NA,critical,d,t,c,160.6713,232.8713,164,240,240,164,spektor,0.05,h,164,240,240,164,160.6713,232.8713,39360,39360,37415.7294,tc,null,null,null,null,null,null,"[2,3]"
NA,canvas-keyboard-response,210,167355,0.0-6.0-0.34,5022,NA,NA,NA,NA,pre trial waiting period,null,null,NA,NA,critical,t,d,c,240,164,240,164,164,240,trueblood,0,w,240,164,164,240,240,164,39360,39360,39360,td,null,null,null,null,null,null,"[1,2]"
NA,canvas-keyboard-response,211,167510,0.0-6.0-1.34,5022,NA,NA,NA,NA,clear_screen,null,null,NA,NA,critical,t,d,c,240,164,240,164,164,240,trueblood,0,w,240,164,164,240,240,164,39360,39360,39360,td,null,null,null,null,null,null,"[1,2]"
NA,canvas-keyboard-response,212,168853,0.0-6.0-2.34,5022,NA,NA,NA,NA,rectangles,null,null,NA,NA,critical,t,d,c,240,164,240,164,164,240,trueblood,0,w,240,164,164,240,240,164,39360,39360,39360,td,null,null,null,null,null,null,"[1,2]"
NA,canvas-keyboard-response,213,169023,0.0-6.0-3.34,5022,NA,NA,NA,NA,clear_screen,null,null,NA,NA,critical,t,d,c,240,164,240,164,164,240,trueblood,0,w,240,164,164,240,240,164,39360,39360,39360,td,null,null,null,null,null,null,"[1,2]"
NA,canvas-keyboard-response,214,169678,0.0-6.0-4.34,5022,NA,NA,NA,NA,make choice,627,2,NA,NA,critical,t,d,c,240,164,240,164,164,240,trueblood,0,w,240,164,164,240,240,164,39360,39360,39360,td,null,null,null,null,null,null,"[1,2]"
NA,canvas-keyboard-response,215,169854,0.0-6.0-5.34,5022,NA,NA,NA,NA,clear_screen,null,null,NA,NA,critical,t,d,c,240,164,240,164,164,240,trueblood,0,w,240,164,164,240,240,164,39360,39360,39360,td,null,null,null,null,null,null,"[1,2]"
NA,canvas-keyboard-response,216,170070,0.0-6.0-0.35,5022,NA,NA,NA,NA,pre trial waiting period,null,null,NA,NA,critical,t,c,d,164,240,240,164,162.6685,237.1485,spektor,0.02,h,164,240,240,164,162.6685,237.1485,39360,39360,38576.5967,dc,null,null,null,null,null,null,"[3,2]"
NA,canvas-keyboard-response,217,170230,0.0-6.0-1.35,5022,NA,NA,NA,NA,clear_screen,null,null,NA,NA,critical,t,c,d,164,240,240,164,162.6685,237.1485,spektor,0.02,h,164,240,240,164,162.6685,237.1485,39360,39360,38576.5967,dc,null,null,null,null,null,null,"[3,2]"
NA,canvas-keyboard-response,218,171576,0.0-6.0-2.35,5022,NA,NA,NA,NA,rectangles,null,null,NA,NA,critical,t,c,d,164,240,240,164,162.6685,237.1485,spektor,0.02,h,164,240,240,164,162.6685,237.1485,39360,39360,38576.5967,dc,null,null,null,null,null,null,"[3,2]"
NA,canvas-keyboard-response,219,171742,0.0-6.0-3.35,5022,NA,NA,NA,NA,clear_screen,null,null,NA,NA,critical,t,c,d,164,240,240,164,162.6685,237.1485,spektor,0.02,h,164,240,240,164,162.6685,237.1485,39360,39360,38576.5967,dc,null,null,null,null,null,null,"[3,2]"
NA,canvas-keyboard-response,220,172350,0.0-6.0-4.35,5022,NA,NA,NA,NA,make choice,590,3,NA,NA,critical,t,c,d,164,240,240,164,162.6685,237.1485,spektor,0.02,h,164,240,240,164,162.6685,237.1485,39360,39360,38576.5967,dc,null,null,null,null,null,null,"[3,2]"
NA,canvas-keyboard-response,221,172518,0.0-6.0-5.35,5022,NA,NA,NA,NA,clear_screen,null,null,NA,NA,critical,t,c,d,164,240,240,164,162.6685,237.1485,spektor,0.02,h,164,240,240,164,162.6685,237.1485,39360,39360,38576.5967,dc,null,null,null,null,null,null,"[3,2]"
NA,canvas-keyboard-response,222,172731,0.0-6.0-0.36,5022,NA,NA,NA,NA,pre trial waiting period,null,null,NA,NA,catch,sh,l,sw,166,198,220,259,147,180,spektor,null,null,null,null,null,null,null,null,null,null,null,NA,180,200,260,200,36000,52000,"[1,2]"
NA,canvas-keyboard-response,223,172893,0.0-6.0-1.36,5022,NA,NA,NA,NA,clear_screen,null,null,NA,NA,catch,sh,l,sw,166,198,220,259,147,180,spektor,null,null,null,null,null,null,null,null,null,null,null,NA,180,200,260,200,36000,52000,"[1,2]"
NA,canvas-keyboard-response,224,174235,0.0-6.0-2.36,5022,NA,NA,NA,NA,rectangles,null,null,NA,NA,catch,sh,l,sw,166,198,220,259,147,180,spektor,null,null,null,null,null,null,null,null,null,null,null,NA,180,200,260,200,36000,52000,"[1,2]"
NA,canvas-keyboard-response,225,174409,0.0-6.0-3.36,5022,NA,NA,NA,NA,clear_screen,null,null,NA,NA,catch,sh,l,sw,166,198,220,259,147,180,spektor,null,null,null,null,null,null,null,null,null,null,null,NA,180,200,260,200,36000,52000,"[1,2]"
NA,canvas-keyboard-response,226,175294,0.0-6.0-4.36,5022,NA,NA,NA,NA,make choice,872,2,NA,NA,catch,sh,l,sw,166,198,220,259,147,180,spektor,null,null,null,null,null,null,null,null,null,null,null,NA,180,200,260,200,36000,52000,"[1,2]"
NA,canvas-keyboard-response,227,175460,0.0-6.0-5.36,5022,NA,NA,NA,NA,clear_screen,null,null,NA,NA,catch,sh,l,sw,166,198,220,259,147,180,spektor,null,null,null,null,null,null,null,null,null,null,null,NA,180,200,260,200,36000,52000,"[1,2]"
NA,canvas-keyboard-response,228,175672,0.0-6.0-0.37,5022,NA,NA,NA,NA,pre trial waiting period,null,null,NA,NA,critical,d,c,t,154.6796,220.0396,240,164,164,240,spektor,0.14,h,164,240,240,164,154.6796,220.0396,39360,39360,34035.6388,dc,null,null,null,null,null,null,"[1,2]"
NA,canvas-keyboard-response,229,175826,0.0-6.0-1.37,5022,NA,NA,NA,NA,clear_screen,null,null,NA,NA,critical,d,c,t,154.6796,220.0396,240,164,164,240,spektor,0.14,h,164,240,240,164,154.6796,220.0396,39360,39360,34035.6388,dc,null,null,null,null,null,null,"[1,2]"
NA,canvas-keyboard-response,230,177170,0.0-6.0-2.37,5022,NA,NA,NA,NA,rectangles,null,null,NA,NA,critical,d,c,t,154.6796,220.0396,240,164,164,240,spektor,0.14,h,164,240,240,164,154.6796,220.0396,39360,39360,34035.6388,dc,null,null,null,null,null,null,"[1,2]"
NA,canvas-keyboard-response,231,177337,0.0-6.0-3.37,5022,NA,NA,NA,NA,clear_screen,null,null,NA,NA,critical,d,c,t,154.6796,220.0396,240,164,164,240,spektor,0.14,h,164,240,240,164,154.6796,220.0396,39360,39360,34035.6388,dc,null,null,null,null,null,null,"[1,2]"
NA,canvas-keyboard-response,232,178647,0.0-6.0-4.37,5022,NA,NA,NA,NA,make choice,1293,1,NA,NA,critical,d,c,t,154.6796,220.0396,240,164,164,240,spektor,0.14,h,164,240,240,164,154.6796,220.0396,39360,39360,34035.6388,dc,null,null,null,null,null,null,"[1,2]"
NA,canvas-keyboard-response,233,178821,0.0-6.0-5.37,5022,NA,NA,NA,NA,clear_screen,null,null,NA,NA,critical,d,c,t,154.6796,220.0396,240,164,164,240,spektor,0.14,h,164,240,240,164,154.6796,220.0396,39360,39360,34035.6388,dc,null,null,null,null,null,null,"[1,2]"
NA,canvas-keyboard-response,234,179047,0.0-6.0-0.38,5022,NA,NA,NA,NA,pre trial waiting period,null,null,NA,NA,catch,sw,l,sh,180,200,288,177,185,179,trueblood,null,null,null,null,null,null,null,null,null,null,null,NA,180,200,260,200,36000,52000,"[2,3]"
NA,canvas-keyboard-response,235,179208,0.0-6.0-1.38,5022,NA,NA,NA,NA,clear_screen,null,null,NA,NA,catch,sw,l,sh,180,200,288,177,185,179,trueblood,null,null,null,null,null,null,null,null,null,null,null,NA,180,200,260,200,36000,52000,"[2,3]"
NA,canvas-keyboard-response,236,180555,0.0-6.0-2.38,5022,NA,NA,NA,NA,rectangles,null,null,NA,NA,catch,sw,l,sh,180,200,288,177,185,179,trueblood,null,null,null,null,null,null,null,null,null,null,null,NA,180,200,260,200,36000,52000,"[2,3]"
NA,canvas-keyboard-response,237,180724,0.0-6.0-3.38,5022,NA,NA,NA,NA,clear_screen,null,null,NA,NA,catch,sw,l,sh,180,200,288,177,185,179,trueblood,null,null,null,null,null,null,null,null,null,null,null,NA,180,200,260,200,36000,52000,"[2,3]"
NA,canvas-keyboard-response,238,181470,0.0-6.0-4.38,5022,NA,NA,NA,NA,make choice,727,2,NA,NA,catch,sw,l,sh,180,200,288,177,185,179,trueblood,null,null,null,null,null,null,null,null,null,null,null,NA,180,200,260,200,36000,52000,"[2,3]"
NA,canvas-keyboard-response,239,181639,0.0-6.0-5.38,5022,NA,NA,NA,NA,clear_screen,null,null,NA,NA,catch,sw,l,sh,180,200,288,177,185,179,trueblood,null,null,null,null,null,null,null,null,null,null,null,NA,180,200,260,200,36000,52000,"[2,3]"
NA,canvas-keyboard-response,240,181857,0.0-6.0-0.39,5022,NA,NA,NA,NA,pre trial waiting period,null,null,NA,NA,critical,t,d,c,164,240,160.6713,232.8713,240,164,spektor,0.05,h,164,240,240,164,160.6713,232.8713,39360,39360,37415.7294,dc,null,null,null,null,null,null,"[2,3]"
NA,canvas-keyboard-response,241,182016,0.0-6.0-1.39,5022,NA,NA,NA,NA,clear_screen,null,null,NA,NA,critical,t,d,c,164,240,160.6713,232.8713,240,164,spektor,0.05,h,164,240,240,164,160.6713,232.8713,39360,39360,37415.7294,dc,null,null,null,null,null,null,"[2,3]"
NA,canvas-keyboard-response,242,183362,0.0-6.0-2.39,5022,NA,NA,NA,NA,rectangles,null,null,NA,NA,critical,t,d,c,164,240,160.6713,232.8713,240,164,spektor,0.05,h,164,240,240,164,160.6713,232.8713,39360,39360,37415.7294,dc,null,null,null,null,null,null,"[2,3]"
NA,canvas-keyboard-response,243,183529,0.0-6.0-3.39,5022,NA,NA,NA,NA,clear_screen,null,null,NA,NA,critical,t,d,c,164,240,160.6713,232.8713,240,164,spektor,0.05,h,164,240,240,164,160.6713,232.8713,39360,39360,37415.7294,dc,null,null,null,null,null,null,"[2,3]"
NA,canvas-keyboard-response,244,184166,0.0-6.0-4.39,5022,NA,NA,NA,NA,make choice,618,3,NA,NA,critical,t,d,c,164,240,160.6713,232.8713,240,164,spektor,0.05,h,164,240,240,164,160.6713,232.8713,39360,39360,37415.7294,dc,null,null,null,null,null,null,"[2,3]"
NA,canvas-keyboard-response,245,184334,0.0-6.0-5.39,5022,NA,NA,NA,NA,clear_screen,null,null,NA,NA,critical,t,d,c,164,240,160.6713,232.8713,240,164,spektor,0.05,h,164,240,240,164,160.6713,232.8713,39360,39360,37415.7294,dc,null,null,null,null,null,null,"[2,3]"
NA,canvas-keyboard-response,246,184549,0.0-6.0-0.40,5022,NA,NA,NA,NA,pre trial waiting period,null,null,NA,NA,catch,l,sw,sh,287,197,218,220,216,151,spektor,null,null,null,null,null,null,null,null,null,null,null,NA,180,200,260,200,36000,52000,"[1,3]"
NA,canvas-keyboard-response,247,184704,0.0-6.0-1.40,5022,NA,NA,NA,NA,clear_screen,null,null,NA,NA,catch,l,sw,sh,287,197,218,220,216,151,spektor,null,null,null,null,null,null,null,null,null,null,null,NA,180,200,260,200,36000,52000,"[1,3]"
NA,canvas-keyboard-response,248,186051,0.0-6.0-2.40,5022,NA,NA,NA,NA,rectangles,null,null,NA,NA,catch,l,sw,sh,287,197,218,220,216,151,spektor,null,null,null,null,null,null,null,null,null,null,null,NA,180,200,260,200,36000,52000,"[1,3]"
NA,canvas-keyboard-response,249,186219,0.0-6.0-3.40,5022,NA,NA,NA,NA,clear_screen,null,null,NA,NA,catch,l,sw,sh,287,197,218,220,216,151,spektor,null,null,null,null,null,null,null,null,null,null,null,NA,180,200,260,200,36000,52000,"[1,3]"
NA,canvas-keyboard-response,250,186845,0.0-6.0-4.40,5022,NA,NA,NA,NA,make choice,605,1,NA,NA,catch,l,sw,sh,287,197,218,220,216,151,spektor,null,null,null,null,null,null,null,null,null,null,null,NA,180,200,260,200,36000,52000,"[1,3]"
NA,canvas-keyboard-response,251,187012,0.0-6.0-5.40,5022,NA,NA,NA,NA,clear_screen,null,null,NA,NA,catch,l,sw,sh,287,197,218,220,216,151,spektor,null,null,null,null,null,null,null,null,null,null,null,NA,180,200,260,200,36000,52000,"[1,3]"
NA,canvas-keyboard-response,252,187229,0.0-6.0-0.41,5022,NA,NA,NA,NA,pre trial waiting period,null,null,NA,NA,critical,d,t,c,158.0083,227.1683,164,240,240,164,spektor,0.09,h,164,240,240,164,158.0083,227.1683,39360,39360,35894.4834,tc,null,null,null,null,null,null,"[2,3]"
NA,canvas-keyboard-response,253,187383,0.0-6.0-1.41,5022,NA,NA,NA,NA,clear_screen,null,null,NA,NA,critical,d,t,c,158.0083,227.1683,164,240,240,164,spektor,0.09,h,164,240,240,164,158.0083,227.1683,39360,39360,35894.4834,tc,null,null,null,null,null,null,"[2,3]"
NA,canvas-keyboard-response,254,188727,0.0-6.0-2.41,5022,NA,NA,NA,NA,rectangles,null,null,NA,NA,critical,d,t,c,158.0083,227.1683,164,240,240,164,spektor,0.09,h,164,240,240,164,158.0083,227.1683,39360,39360,35894.4834,tc,null,null,null,null,null,null,"[2,3]"
NA,canvas-keyboard-response,255,188897,0.0-6.0-3.41,5022,NA,NA,NA,NA,clear_screen,null,null,NA,NA,critical,d,t,c,158.0083,227.1683,164,240,240,164,spektor,0.09,h,164,240,240,164,158.0083,227.1683,39360,39360,35894.4834,tc,null,null,null,null,null,null,"[2,3]"
NA,canvas-keyboard-response,256,189420,0.0-6.0-4.41,5022,NA,NA,NA,NA,make choice,504,3,NA,NA,critical,d,t,c,158.0083,227.1683,164,240,240,164,spektor,0.09,h,164,240,240,164,158.0083,227.1683,39360,39360,35894.4834,tc,null,null,null,null,null,null,"[2,3]"
NA,canvas-keyboard-response,257,189589,0.0-6.0-5.41,5022,NA,NA,NA,NA,clear_screen,null,null,NA,NA,critical,d,t,c,158.0083,227.1683,164,240,240,164,spektor,0.09,h,164,240,240,164,158.0083,227.1683,39360,39360,35894.4834,tc,null,null,null,null,null,null,"[2,3]"
NA,canvas-keyboard-response,258,189803,0.0-6.0-0.42,5022,NA,NA,NA,NA,pre trial waiting period,null,null,NA,NA,catch,sh,sw,l,200,181,212,173,188,245,trueblood,null,null,null,null,null,null,null,null,null,null,null,NA,180,200,260,200,36000,52000,"[1,3]"
NA,canvas-keyboard-response,259,189966,0.0-6.0-1.42,5022,NA,NA,NA,NA,clear_screen,null,null,NA,NA,catch,sh,sw,l,200,181,212,173,188,245,trueblood,null,null,null,null,null,null,null,null,null,null,null,NA,180,200,260,200,36000,52000,"[1,3]"
NA,canvas-keyboard-response,260,191314,0.0-6.0-2.42,5022,NA,NA,NA,NA,rectangles,null,null,NA,NA,catch,sh,sw,l,200,181,212,173,188,245,trueblood,null,null,null,null,null,null,null,null,null,null,null,NA,180,200,260,200,36000,52000,"[1,3]"
NA,canvas-keyboard-response,261,191481,0.0-6.0-3.42,5022,NA,NA,NA,NA,clear_screen,null,null,NA,NA,catch,sh,sw,l,200,181,212,173,188,245,trueblood,null,null,null,null,null,null,null,null,null,null,null,NA,180,200,260,200,36000,52000,"[1,3]"
NA,canvas-keyboard-response,262,191980,0.0-6.0-4.42,5022,NA,NA,NA,NA,make choice,480,3,NA,NA,catch,sh,sw,l,200,181,212,173,188,245,trueblood,null,null,null,null,null,null,null,null,null,null,null,NA,180,200,260,200,36000,52000,"[1,3]"
NA,canvas-keyboard-response,263,192141,0.0-6.0-5.42,5022,NA,NA,NA,NA,clear_screen,null,null,NA,NA,catch,sh,sw,l,200,181,212,173,188,245,trueblood,null,null,null,null,null,null,null,null,null,null,null,NA,180,200,260,200,36000,52000,"[1,3]"
NA,canvas-keyboard-response,264,192356,0.0-6.0-0.43,5022,NA,NA,NA,NA,pre trial waiting period,null,null,NA,NA,catch,sw,sh,l,180,200,167,166,251,174,trueblood,null,null,null,null,null,null,null,null,null,null,null,NA,180,200,260,200,36000,52000,"[2,3]"
NA,canvas-keyboard-response,265,192517,0.0-6.0-1.43,5022,NA,NA,NA,NA,clear_screen,null,null,NA,NA,catch,sw,sh,l,180,200,167,166,251,174,trueblood,null,null,null,null,null,null,null,null,null,null,null,NA,180,200,260,200,36000,52000,"[2,3]"
NA,canvas-keyboard-response,266,193863,0.0-6.0-2.43,5022,NA,NA,NA,NA,rectangles,null,null,NA,NA,catch,sw,sh,l,180,200,167,166,251,174,trueblood,null,null,null,null,null,null,null,null,null,null,null,NA,180,200,260,200,36000,52000,"[2,3]"
NA,canvas-keyboard-response,267,194033,0.0-6.0-3.43,5022,NA,NA,NA,NA,clear_screen,null,null,NA,NA,catch,sw,sh,l,180,200,167,166,251,174,trueblood,null,null,null,null,null,null,null,null,null,null,null,NA,180,200,260,200,36000,52000,"[2,3]"
NA,canvas-keyboard-response,268,194710,0.0-6.0-4.43,5022,NA,NA,NA,NA,make choice,658,3,NA,NA,catch,sw,sh,l,180,200,167,166,251,174,trueblood,null,null,null,null,null,null,null,null,null,null,null,NA,180,200,260,200,36000,52000,"[2,3]"
NA,canvas-keyboard-response,269,194880,0.0-6.0-5.43,5022,NA,NA,NA,NA,clear_screen,null,null,NA,NA,catch,sw,sh,l,180,200,167,166,251,174,trueblood,null,null,null,null,null,null,null,null,null,null,null,NA,180,200,260,200,36000,52000,"[2,3]"
NA,canvas-keyboard-response,270,195099,0.0-6.0-0.44,5022,NA,NA,NA,NA,pre trial waiting period,null,null,NA,NA,catch,sh,l,sw,178,146,200,279,216,166,trueblood,null,null,null,null,null,null,null,null,null,null,null,NA,180,200,260,200,36000,52000,"[2,3]"
NA,canvas-keyboard-response,271,195258,0.0-6.0-1.44,5022,NA,NA,NA,NA,clear_screen,null,null,NA,NA,catch,sh,l,sw,178,146,200,279,216,166,trueblood,null,null,null,null,null,null,null,null,null,null,null,NA,180,200,260,200,36000,52000,"[2,3]"
NA,canvas-keyboard-response,272,196602,0.0-6.0-2.44,5022,NA,NA,NA,NA,rectangles,null,null,NA,NA,catch,sh,l,sw,178,146,200,279,216,166,trueblood,null,null,null,null,null,null,null,null,null,null,null,NA,180,200,260,200,36000,52000,"[2,3]"
NA,canvas-keyboard-response,273,196771,0.0-6.0-3.44,5022,NA,NA,NA,NA,clear_screen,null,null,NA,NA,catch,sh,l,sw,178,146,200,279,216,166,trueblood,null,null,null,null,null,null,null,null,null,null,null,NA,180,200,260,200,36000,52000,"[2,3]"
NA,canvas-keyboard-response,274,197438,0.0-6.0-4.44,5022,NA,NA,NA,NA,make choice,647,2,NA,NA,catch,sh,l,sw,178,146,200,279,216,166,trueblood,null,null,null,null,null,null,null,null,null,null,null,NA,180,200,260,200,36000,52000,"[2,3]"
NA,canvas-keyboard-response,275,197607,0.0-6.0-5.44,5022,NA,NA,NA,NA,clear_screen,null,null,NA,NA,catch,sh,l,sw,178,146,200,279,216,166,trueblood,null,null,null,null,null,null,null,null,null,null,null,NA,180,200,260,200,36000,52000,"[2,3]"
NA,canvas-keyboard-response,276,197823,0.0-6.0-0.45,5022,NA,NA,NA,NA,pre trial waiting period,null,null,NA,NA,critical,c,t,d,240,164,164,240,154.6796,220.0396,trueblood,0.14,h,164,240,240,164,154.6796,220.0396,39360,39360,34035.6388,dc,null,null,null,null,null,null,"[3,1]"
NA,canvas-keyboard-response,277,197978,0.0-6.0-1.45,5022,NA,NA,NA,NA,clear_screen,null,null,NA,NA,critical,c,t,d,240,164,164,240,154.6796,220.0396,trueblood,0.14,h,164,240,240,164,154.6796,220.0396,39360,39360,34035.6388,dc,null,null,null,null,null,null,"[3,1]"
NA,canvas-keyboard-response,278,199324,0.0-6.0-2.45,5022,NA,NA,NA,NA,rectangles,null,null,NA,NA,critical,c,t,d,240,164,164,240,154.6796,220.0396,trueblood,0.14,h,164,240,240,164,154.6796,220.0396,39360,39360,34035.6388,dc,null,null,null,null,null,null,"[3,1]"
NA,canvas-keyboard-response,279,199493,0.0-6.0-3.45,5022,NA,NA,NA,NA,clear_screen,null,null,NA,NA,critical,c,t,d,240,164,164,240,154.6796,220.0396,trueblood,0.14,h,164,240,240,164,154.6796,220.0396,39360,39360,34035.6388,dc,null,null,null,null,null,null,"[3,1]"
NA,canvas-keyboard-response,280,200694,0.0-6.0-4.45,5022,NA,NA,NA,NA,make choice,1181,1,NA,NA,critical,c,t,d,240,164,164,240,154.6796,220.0396,trueblood,0.14,h,164,240,240,164,154.6796,220.0396,39360,39360,34035.6388,dc,null,null,null,null,null,null,"[3,1]"
NA,canvas-keyboard-response,281,200865,0.0-6.0-5.45,5022,NA,NA,NA,NA,clear_screen,null,null,NA,NA,critical,c,t,d,240,164,164,240,154.6796,220.0396,trueblood,0.14,h,164,240,240,164,154.6796,220.0396,39360,39360,34035.6388,dc,null,null,null,null,null,null,"[3,1]"
NA,canvas-keyboard-response,282,201080,0.0-6.0-0.46,5022,NA,NA,NA,NA,pre trial waiting period,null,null,NA,NA,catch,sw,l,sh,180,200,258,169,165,143,spektor,null,null,null,null,null,null,null,null,null,null,null,NA,180,200,260,200,36000,52000,"[2,3]"
NA,canvas-keyboard-response,283,201234,0.0-6.0-1.46,5022,NA,NA,NA,NA,clear_screen,null,null,NA,NA,catch,sw,l,sh,180,200,258,169,165,143,spektor,null,null,null,null,null,null,null,null,null,null,null,NA,180,200,260,200,36000,52000,"[2,3]"
NA,canvas-keyboard-response,284,202580,0.0-6.0-2.46,5022,NA,NA,NA,NA,rectangles,null,null,NA,NA,catch,sw,l,sh,180,200,258,169,165,143,spektor,null,null,null,null,null,null,null,null,null,null,null,NA,180,200,260,200,36000,52000,"[2,3]"
NA,canvas-keyboard-response,285,202750,0.0-6.0-3.46,5022,NA,NA,NA,NA,clear_screen,null,null,NA,NA,catch,sw,l,sh,180,200,258,169,165,143,spektor,null,null,null,null,null,null,null,null,null,null,null,NA,180,200,260,200,36000,52000,"[2,3]"
NA,canvas-keyboard-response,286,203342,0.0-6.0-4.46,5022,NA,NA,NA,NA,make choice,572,2,NA,NA,catch,sw,l,sh,180,200,258,169,165,143,spektor,null,null,null,null,null,null,null,null,null,null,null,NA,180,200,260,200,36000,52000,"[2,3]"
NA,canvas-keyboard-response,287,203510,0.0-6.0-5.46,5022,NA,NA,NA,NA,clear_screen,null,null,NA,NA,catch,sw,l,sh,180,200,258,169,165,143,spektor,null,null,null,null,null,null,null,null,null,null,null,NA,180,200,260,200,36000,52000,"[2,3]"
NA,canvas-keyboard-response,288,203727,0.0-6.0-0.47,5022,NA,NA,NA,NA,pre trial waiting period,null,null,NA,NA,catch,l,sw,sh,169,268,205,167,208,201,trueblood,null,null,null,null,null,null,null,null,null,null,null,NA,180,200,260,200,36000,52000,"[1,3]"
NA,canvas-keyboard-response,289,203880,0.0-6.0-1.47,5022,NA,NA,NA,NA,clear_screen,null,null,NA,NA,catch,l,sw,sh,169,268,205,167,208,201,trueblood,null,null,null,null,null,null,null,null,null,null,null,NA,180,200,260,200,36000,52000,"[1,3]"
NA,canvas-keyboard-response,290,205225,0.0-6.0-2.47,5022,NA,NA,NA,NA,rectangles,null,null,NA,NA,catch,l,sw,sh,169,268,205,167,208,201,trueblood,null,null,null,null,null,null,null,null,null,null,null,NA,180,200,260,200,36000,52000,"[1,3]"
NA,canvas-keyboard-response,291,205392,0.0-6.0-3.47,5022,NA,NA,NA,NA,clear_screen,null,null,NA,NA,catch,l,sw,sh,169,268,205,167,208,201,trueblood,null,null,null,null,null,null,null,null,null,null,null,NA,180,200,260,200,36000,52000,"[1,3]"
NA,canvas-keyboard-response,292,205853,0.0-6.0-4.47,5022,NA,NA,NA,NA,make choice,439,3,NA,NA,catch,l,sw,sh,169,268,205,167,208,201,trueblood,null,null,null,null,null,null,null,null,null,null,null,NA,180,200,260,200,36000,52000,"[1,3]"
NA,canvas-keyboard-response,293,206024,0.0-6.0-5.47,5022,NA,NA,NA,NA,clear_screen,null,null,NA,NA,catch,l,sw,sh,169,268,205,167,208,201,trueblood,null,null,null,null,null,null,null,null,null,null,null,NA,180,200,260,200,36000,52000,"[1,3]"
NA,canvas-keyboard-response,294,206239,0.0-6.0-0.48,5022,NA,NA,NA,NA,pre trial waiting period,null,null,NA,NA,critical,d,c,t,237.1485,162.6685,164,240,240,164,trueblood,0.02,w,240,164,164,240,237.1485,162.6685,39360,39360,38576.5967,tc,null,null,null,null,null,null,"[3,2]"
NA,canvas-keyboard-response,295,206393,0.0-6.0-1.48,5022,NA,NA,NA,NA,clear_screen,null,null,NA,NA,critical,d,c,t,237.1485,162.6685,164,240,240,164,trueblood,0.02,w,240,164,164,240,237.1485,162.6685,39360,39360,38576.5967,tc,null,null,null,null,null,null,"[3,2]"
NA,canvas-keyboard-response,296,207738,0.0-6.0-2.48,5022,NA,NA,NA,NA,rectangles,null,null,NA,NA,critical,d,c,t,237.1485,162.6685,164,240,240,164,trueblood,0.02,w,240,164,164,240,237.1485,162.6685,39360,39360,38576.5967,tc,null,null,null,null,null,null,"[3,2]"
NA,canvas-keyboard-response,297,207910,0.0-6.0-3.48,5022,NA,NA,NA,NA,clear_screen,null,null,NA,NA,critical,d,c,t,237.1485,162.6685,164,240,240,164,trueblood,0.02,w,240,164,164,240,237.1485,162.6685,39360,39360,38576.5967,tc,null,null,null,null,null,null,"[3,2]"
NA,canvas-keyboard-response,298,209781,0.0-6.0-4.48,5022,NA,NA,NA,NA,make choice,1851,3,NA,NA,critical,d,c,t,237.1485,162.6685,164,240,240,164,trueblood,0.02,w,240,164,164,240,237.1485,162.6685,39360,39360,38576.5967,tc,null,null,null,null,null,null,"[3,2]"
NA,canvas-keyboard-response,299,209948,0.0-6.0-5.48,5022,NA,NA,NA,NA,clear_screen,null,null,NA,NA,critical,d,c,t,237.1485,162.6685,164,240,240,164,trueblood,0.02,w,240,164,164,240,237.1485,162.6685,39360,39360,38576.5967,tc,null,null,null,null,null,null,"[3,2]"
NA,canvas-keyboard-response,300,210167,0.0-6.0-0.49,5022,NA,NA,NA,NA,pre trial waiting period,null,null,NA,NA,catch,l,sh,sw,182,294,207,152,197,180,spektor,null,null,null,null,null,null,null,null,null,null,null,NA,180,200,260,200,36000,52000,"[1,3]"
NA,canvas-keyboard-response,301,210327,0.0-6.0-1.49,5022,NA,NA,NA,NA,clear_screen,null,null,NA,NA,catch,l,sh,sw,182,294,207,152,197,180,spektor,null,null,null,null,null,null,null,null,null,null,null,NA,180,200,260,200,36000,52000,"[1,3]"
NA,canvas-keyboard-response,302,211673,0.0-6.0-2.49,5022,NA,NA,NA,NA,rectangles,null,null,NA,NA,catch,l,sh,sw,182,294,207,152,197,180,spektor,null,null,null,null,null,null,null,null,null,null,null,NA,180,200,260,200,36000,52000,"[1,3]"
NA,canvas-keyboard-response,303,211844,0.0-6.0-3.49,5022,NA,NA,NA,NA,clear_screen,null,null,NA,NA,catch,l,sh,sw,182,294,207,152,197,180,spektor,null,null,null,null,null,null,null,null,null,null,null,NA,180,200,260,200,36000,52000,"[1,3]"
NA,canvas-keyboard-response,304,212470,0.0-6.0-4.49,5022,NA,NA,NA,NA,make choice,603,1,NA,NA,catch,l,sh,sw,182,294,207,152,197,180,spektor,null,null,null,null,null,null,null,null,null,null,null,NA,180,200,260,200,36000,52000,"[1,3]"
NA,canvas-keyboard-response,305,212649,0.0-6.0-5.49,5022,NA,NA,NA,NA,clear_screen,null,null,NA,NA,catch,l,sh,sw,182,294,207,152,197,180,spektor,null,null,null,null,null,null,null,null,null,null,null,NA,180,200,260,200,36000,52000,"[1,3]"
NA,canvas-keyboard-response,306,212878,0.0-6.0-0.50,5022,NA,NA,NA,NA,pre trial waiting period,null,null,NA,NA,critical,t,c,d,240,164,164,240,240,164,spektor,0,w,240,164,164,240,240,164,39360,39360,39360,tc,null,null,null,null,null,null,"[1,2]"
NA,canvas-keyboard-response,307,213039,0.0-6.0-1.50,5022,NA,NA,NA,NA,clear_screen,null,null,NA,NA,critical,t,c,d,240,164,164,240,240,164,spektor,0,w,240,164,164,240,240,164,39360,39360,39360,tc,null,null,null,null,null,null,"[1,2]"
NA,canvas-keyboard-response,308,214385,0.0-6.0-2.50,5022,NA,NA,NA,NA,rectangles,null,null,NA,NA,critical,t,c,d,240,164,164,240,240,164,spektor,0,w,240,164,164,240,240,164,39360,39360,39360,tc,null,null,null,null,null,null,"[1,2]"
NA,canvas-keyboard-response,309,214557,0.0-6.0-3.50,5022,NA,NA,NA,NA,clear_screen,null,null,NA,NA,critical,t,c,d,240,164,164,240,240,164,spektor,0,w,240,164,164,240,240,164,39360,39360,39360,tc,null,null,null,null,null,null,"[1,2]"
NA,canvas-keyboard-response,310,215438,0.0-6.0-4.50,5022,NA,NA,NA,NA,make choice,858,2,NA,NA,critical,t,c,d,240,164,164,240,240,164,spektor,0,w,240,164,164,240,240,164,39360,39360,39360,tc,null,null,null,null,null,null,"[1,2]"
NA,canvas-keyboard-response,311,215609,0.0-6.0-5.50,5022,NA,NA,NA,NA,clear_screen,null,null,NA,NA,critical,t,c,d,240,164,164,240,240,164,spektor,0,w,240,164,164,240,240,164,39360,39360,39360,tc,null,null,null,null,null,null,"[1,2]"
NA,canvas-keyboard-response,312,215827,0.0-6.0-0.51,5022,NA,NA,NA,NA,pre trial waiting period,null,null,NA,NA,catch,sh,l,sw,196,200,163,238,175,178,spektor,null,null,null,null,null,null,null,null,null,null,null,NA,180,200,260,200,36000,52000,"[2,3]"
NA,canvas-keyboard-response,313,215984,0.0-6.0-1.51,5022,NA,NA,NA,NA,clear_screen,null,null,NA,NA,catch,sh,l,sw,196,200,163,238,175,178,spektor,null,null,null,null,null,null,null,null,null,null,null,NA,180,200,260,200,36000,52000,"[2,3]"
NA,canvas-keyboard-response,314,217332,0.0-6.0-2.51,5022,NA,NA,NA,NA,rectangles,null,null,NA,NA,catch,sh,l,sw,196,200,163,238,175,178,spektor,null,null,null,null,null,null,null,null,null,null,null,NA,180,200,260,200,36000,52000,"[2,3]"
NA,canvas-keyboard-response,315,217501,0.0-6.0-3.51,5022,NA,NA,NA,NA,clear_screen,null,null,NA,NA,catch,sh,l,sw,196,200,163,238,175,178,spektor,null,null,null,null,null,null,null,null,null,null,null,NA,180,200,260,200,36000,52000,"[2,3]"
NA,canvas-keyboard-response,316,218029,0.0-6.0-4.51,5022,NA,NA,NA,NA,make choice,505,2,NA,NA,catch,sh,l,sw,196,200,163,238,175,178,spektor,null,null,null,null,null,null,null,null,null,null,null,NA,180,200,260,200,36000,52000,"[2,3]"
NA,canvas-keyboard-response,317,218196,0.0-6.0-5.51,5022,NA,NA,NA,NA,clear_screen,null,null,NA,NA,catch,sh,l,sw,196,200,163,238,175,178,spektor,null,null,null,null,null,null,null,null,null,null,null,NA,180,200,260,200,36000,52000,"[2,3]"
NA,canvas-keyboard-response,318,218416,0.0-6.0-0.52,5022,NA,NA,NA,NA,pre trial waiting period,null,null,NA,NA,critical,c,d,t,164,240,227.1683,158.0083,240,164,trueblood,0.09,w,240,164,164,240,227.1683,158.0083,39360,39360,35894.4834,dc,null,null,null,null,null,null,"[2,1]"
NA,canvas-keyboard-response,319,218577,0.0-6.0-1.52,5022,NA,NA,NA,NA,clear_screen,null,null,NA,NA,critical,c,d,t,164,240,227.1683,158.0083,240,164,trueblood,0.09,w,240,164,164,240,227.1683,158.0083,39360,39360,35894.4834,dc,null,null,null,null,null,null,"[2,1]"
NA,canvas-keyboard-response,320,219924,0.0-6.0-2.52,5022,NA,NA,NA,NA,rectangles,null,null,NA,NA,critical,c,d,t,164,240,227.1683,158.0083,240,164,trueblood,0.09,w,240,164,164,240,227.1683,158.0083,39360,39360,35894.4834,dc,null,null,null,null,null,null,"[2,1]"
NA,canvas-keyboard-response,321,220095,0.0-6.0-3.52,5022,NA,NA,NA,NA,clear_screen,null,null,NA,NA,critical,c,d,t,164,240,227.1683,158.0083,240,164,trueblood,0.09,w,240,164,164,240,227.1683,158.0083,39360,39360,35894.4834,dc,null,null,null,null,null,null,"[2,1]"
NA,canvas-keyboard-response,322,221046,0.0-6.0-4.52,5022,NA,NA,NA,NA,make choice,931,1,NA,NA,critical,c,d,t,164,240,227.1683,158.0083,240,164,trueblood,0.09,w,240,164,164,240,227.1683,158.0083,39360,39360,35894.4834,dc,null,null,null,null,null,null,"[2,1]"
NA,canvas-keyboard-response,323,221217,0.0-6.0-5.52,5022,NA,NA,NA,NA,clear_screen,null,null,NA,NA,critical,c,d,t,164,240,227.1683,158.0083,240,164,trueblood,0.09,w,240,164,164,240,227.1683,158.0083,39360,39360,35894.4834,dc,null,null,null,null,null,null,"[2,1]"
NA,canvas-keyboard-response,324,221432,0.0-6.0-0.53,5022,NA,NA,NA,NA,pre trial waiting period,null,null,NA,NA,critical,t,c,d,240,164,164,240,227.1683,158.0083,spektor,0.09,w,240,164,164,240,227.1683,158.0083,39360,39360,35894.4834,tc,null,null,null,null,null,null,"[1,2]"
NA,canvas-keyboard-response,325,221593,0.0-6.0-1.53,5022,NA,NA,NA,NA,clear_screen,null,null,NA,NA,critical,t,c,d,240,164,164,240,227.1683,158.0083,spektor,0.09,w,240,164,164,240,227.1683,158.0083,39360,39360,35894.4834,tc,null,null,null,null,null,null,"[1,2]"
NA,canvas-keyboard-response,326,222941,0.0-6.0-2.53,5022,NA,NA,NA,NA,rectangles,null,null,NA,NA,critical,t,c,d,240,164,164,240,227.1683,158.0083,spektor,0.09,w,240,164,164,240,227.1683,158.0083,39360,39360,35894.4834,tc,null,null,null,null,null,null,"[1,2]"
NA,canvas-keyboard-response,327,223110,0.0-6.0-3.53,5022,NA,NA,NA,NA,clear_screen,null,null,NA,NA,critical,t,c,d,240,164,164,240,227.1683,158.0083,spektor,0.09,w,240,164,164,240,227.1683,158.0083,39360,39360,35894.4834,tc,null,null,null,null,null,null,"[1,2]"
NA,canvas-keyboard-response,328,223612,0.0-6.0-4.53,5022,NA,NA,NA,NA,make choice,480,1,NA,NA,critical,t,c,d,240,164,164,240,227.1683,158.0083,spektor,0.09,w,240,164,164,240,227.1683,158.0083,39360,39360,35894.4834,tc,null,null,null,null,null,null,"[1,2]"
NA,canvas-keyboard-response,329,223779,0.0-6.0-5.53,5022,NA,NA,NA,NA,clear_screen,null,null,NA,NA,critical,t,c,d,240,164,164,240,227.1683,158.0083,spektor,0.09,w,240,164,164,240,227.1683,158.0083,39360,39360,35894.4834,tc,null,null,null,null,null,null,"[1,2]"
NA,canvas-keyboard-response,330,223996,0.0-6.0-0.54,5022,NA,NA,NA,NA,pre trial waiting period,null,null,NA,NA,critical,t,d,c,240,164,237.1485,162.6685,164,240,spektor,0.02,w,240,164,164,240,237.1485,162.6685,39360,39360,38576.5967,td,null,null,null,null,null,null,"[1,2]"
NA,canvas-keyboard-response,331,224156,0.0-6.0-1.54,5022,NA,NA,NA,NA,clear_screen,null,null,NA,NA,critical,t,d,c,240,164,237.1485,162.6685,164,240,spektor,0.02,w,240,164,164,240,237.1485,162.6685,39360,39360,38576.5967,td,null,null,null,null,null,null,"[1,2]"
NA,canvas-keyboard-response,332,225504,0.0-6.0-2.54,5022,NA,NA,NA,NA,rectangles,null,null,NA,NA,critical,t,d,c,240,164,237.1485,162.6685,164,240,spektor,0.02,w,240,164,164,240,237.1485,162.6685,39360,39360,38576.5967,td,null,null,null,null,null,null,"[1,2]"
NA,canvas-keyboard-response,333,225677,0.0-6.0-3.54,5022,NA,NA,NA,NA,clear_screen,null,null,NA,NA,critical,t,d,c,240,164,237.1485,162.6685,164,240,spektor,0.02,w,240,164,164,240,237.1485,162.6685,39360,39360,38576.5967,td,null,null,null,null,null,null,"[1,2]"
NA,canvas-keyboard-response,334,226790,0.0-6.0-4.54,5022,NA,NA,NA,NA,make choice,1091,2,NA,NA,critical,t,d,c,240,164,237.1485,162.6685,164,240,spektor,0.02,w,240,164,164,240,237.1485,162.6685,39360,39360,38576.5967,td,null,null,null,null,null,null,"[1,2]"
NA,canvas-keyboard-response,335,226961,0.0-6.0-5.54,5022,NA,NA,NA,NA,clear_screen,null,null,NA,NA,critical,t,d,c,240,164,237.1485,162.6685,164,240,spektor,0.02,w,240,164,164,240,237.1485,162.6685,39360,39360,38576.5967,td,null,null,null,null,null,null,"[1,2]"
NA,canvas-keyboard-response,336,227181,0.0-6.0-0.55,5022,NA,NA,NA,NA,pre trial waiting period,null,null,NA,NA,critical,c,t,d,240,164,164,240,162.6685,237.1485,trueblood,0.02,h,164,240,240,164,162.6685,237.1485,39360,39360,38576.5967,td,null,null,null,null,null,null,"[2,3]"
NA,canvas-keyboard-response,337,227341,0.0-6.0-1.55,5022,NA,NA,NA,NA,clear_screen,null,null,NA,NA,critical,c,t,d,240,164,164,240,162.6685,237.1485,trueblood,0.02,h,164,240,240,164,162.6685,237.1485,39360,39360,38576.5967,td,null,null,null,null,null,null,"[2,3]"
NA,canvas-keyboard-response,338,228689,0.0-6.0-2.55,5022,NA,NA,NA,NA,rectangles,null,null,NA,NA,critical,c,t,d,240,164,164,240,162.6685,237.1485,trueblood,0.02,h,164,240,240,164,162.6685,237.1485,39360,39360,38576.5967,td,null,null,null,null,null,null,"[2,3]"
NA,canvas-keyboard-response,339,228858,0.0-6.0-3.55,5022,NA,NA,NA,NA,clear_screen,null,null,NA,NA,critical,c,t,d,240,164,164,240,162.6685,237.1485,trueblood,0.02,h,164,240,240,164,162.6685,237.1485,39360,39360,38576.5967,td,null,null,null,null,null,null,"[2,3]"
NA,canvas-keyboard-response,340,229654,0.0-6.0-4.55,5022,NA,NA,NA,NA,make choice,776,3,NA,NA,critical,c,t,d,240,164,164,240,162.6685,237.1485,trueblood,0.02,h,164,240,240,164,162.6685,237.1485,39360,39360,38576.5967,td,null,null,null,null,null,null,"[2,3]"
NA,canvas-keyboard-response,341,229822,0.0-6.0-5.55,5022,NA,NA,NA,NA,clear_screen,null,null,NA,NA,critical,c,t,d,240,164,164,240,162.6685,237.1485,trueblood,0.02,h,164,240,240,164,162.6685,237.1485,39360,39360,38576.5967,td,null,null,null,null,null,null,"[2,3]"
NA,canvas-keyboard-response,342,230041,0.0-6.0-0.56,5022,NA,NA,NA,NA,pre trial waiting period,null,null,NA,NA,critical,t,d,c,164,240,162.6685,237.1485,240,164,spektor,0.02,h,164,240,240,164,162.6685,237.1485,39360,39360,38576.5967,tc,null,null,null,null,null,null,"[1,3]"
NA,canvas-keyboard-response,343,230200,0.0-6.0-1.56,5022,NA,NA,NA,NA,clear_screen,null,null,NA,NA,critical,t,d,c,164,240,162.6685,237.1485,240,164,spektor,0.02,h,164,240,240,164,162.6685,237.1485,39360,39360,38576.5967,tc,null,null,null,null,null,null,"[1,3]"
NA,canvas-keyboard-response,344,231546,0.0-6.0-2.56,5022,NA,NA,NA,NA,rectangles,null,null,NA,NA,critical,t,d,c,164,240,162.6685,237.1485,240,164,spektor,0.02,h,164,240,240,164,162.6685,237.1485,39360,39360,38576.5967,tc,null,null,null,null,null,null,"[1,3]"
NA,canvas-keyboard-response,345,231716,0.0-6.0-3.56,5022,NA,NA,NA,NA,clear_screen,null,null,NA,NA,critical,t,d,c,164,240,162.6685,237.1485,240,164,spektor,0.02,h,164,240,240,164,162.6685,237.1485,39360,39360,38576.5967,tc,null,null,null,null,null,null,"[1,3]"
NA,canvas-keyboard-response,346,232726,0.0-6.0-4.56,5022,NA,NA,NA,NA,make choice,989,3,NA,NA,critical,t,d,c,164,240,162.6685,237.1485,240,164,spektor,0.02,h,164,240,240,164,162.6685,237.1485,39360,39360,38576.5967,tc,null,null,null,null,null,null,"[1,3]"
NA,canvas-keyboard-response,347,232895,0.0-6.0-5.56,5022,NA,NA,NA,NA,clear_screen,null,null,NA,NA,critical,t,d,c,164,240,162.6685,237.1485,240,164,spektor,0.02,h,164,240,240,164,162.6685,237.1485,39360,39360,38576.5967,tc,null,null,null,null,null,null,"[1,3]"
NA,canvas-keyboard-response,348,233113,0.0-6.0-0.57,5022,NA,NA,NA,NA,pre trial waiting period,null,null,NA,NA,critical,t,d,c,240,164,232.8713,160.6713,164,240,spektor,0.05,w,240,164,164,240,232.8713,160.6713,39360,39360,37415.7294,dc,null,null,null,null,null,null,"[2,3]"
NA,canvas-keyboard-response,349,233276,0.0-6.0-1.57,5022,NA,NA,NA,NA,clear_screen,null,null,NA,NA,critical,t,d,c,240,164,232.8713,160.6713,164,240,spektor,0.05,w,240,164,164,240,232.8713,160.6713,39360,39360,37415.7294,dc,null,null,null,null,null,null,"[2,3]"
NA,canvas-keyboard-response,350,234625,0.0-6.0-2.57,5022,NA,NA,NA,NA,rectangles,null,null,NA,NA,critical,t,d,c,240,164,232.8713,160.6713,164,240,spektor,0.05,w,240,164,164,240,232.8713,160.6713,39360,39360,37415.7294,dc,null,null,null,null,null,null,"[2,3]"
NA,canvas-keyboard-response,351,234795,0.0-6.0-3.57,5022,NA,NA,NA,NA,clear_screen,null,null,NA,NA,critical,t,d,c,240,164,232.8713,160.6713,164,240,spektor,0.05,w,240,164,164,240,232.8713,160.6713,39360,39360,37415.7294,dc,null,null,null,null,null,null,"[2,3]"
NA,canvas-keyboard-response,352,235470,0.0-6.0-4.57,5022,NA,NA,NA,NA,make choice,655,3,NA,NA,critical,t,d,c,240,164,232.8713,160.6713,164,240,spektor,0.05,w,240,164,164,240,232.8713,160.6713,39360,39360,37415.7294,dc,null,null,null,null,null,null,"[2,3]"
NA,canvas-keyboard-response,353,235639,0.0-6.0-5.57,5022,NA,NA,NA,NA,clear_screen,null,null,NA,NA,critical,t,d,c,240,164,232.8713,160.6713,164,240,spektor,0.05,w,240,164,164,240,232.8713,160.6713,39360,39360,37415.7294,dc,null,null,null,null,null,null,"[2,3]"
NA,canvas-keyboard-response,354,235857,0.0-6.0-0.58,5022,NA,NA,NA,NA,pre trial waiting period,null,null,NA,NA,critical,t,d,c,240,164,237.1485,162.6685,164,240,spektor,0.02,w,240,164,164,240,237.1485,162.6685,39360,39360,38576.5967,tc,null,null,null,null,null,null,"[1,3]"
NA,canvas-keyboard-response,355,236019,0.0-6.0-1.58,5022,NA,NA,NA,NA,clear_screen,null,null,NA,NA,critical,t,d,c,240,164,237.1485,162.6685,164,240,spektor,0.02,w,240,164,164,240,237.1485,162.6685,39360,39360,38576.5967,tc,null,null,null,null,null,null,"[1,3]"
NA,canvas-keyboard-response,356,237366,0.0-6.0-2.58,5022,NA,NA,NA,NA,rectangles,null,null,NA,NA,critical,t,d,c,240,164,237.1485,162.6685,164,240,spektor,0.02,w,240,164,164,240,237.1485,162.6685,39360,39360,38576.5967,tc,null,null,null,null,null,null,"[1,3]"
NA,canvas-keyboard-response,357,237539,0.0-6.0-3.58,5022,NA,NA,NA,NA,clear_screen,null,null,NA,NA,critical,t,d,c,240,164,237.1485,162.6685,164,240,spektor,0.02,w,240,164,164,240,237.1485,162.6685,39360,39360,38576.5967,tc,null,null,null,null,null,null,"[1,3]"
NA,canvas-keyboard-response,358,238100,0.0-6.0-4.58,5022,NA,NA,NA,NA,make choice,542,3,NA,NA,critical,t,d,c,240,164,237.1485,162.6685,164,240,spektor,0.02,w,240,164,164,240,237.1485,162.6685,39360,39360,38576.5967,tc,null,null,null,null,null,null,"[1,3]"
NA,canvas-keyboard-response,359,238272,0.0-6.0-5.58,5022,NA,NA,NA,NA,clear_screen,null,null,NA,NA,critical,t,d,c,240,164,237.1485,162.6685,164,240,spektor,0.02,w,240,164,164,240,237.1485,162.6685,39360,39360,38576.5967,tc,null,null,null,null,null,null,"[1,3]"
NA,canvas-keyboard-response,360,238492,0.0-6.0-0.59,5022,NA,NA,NA,NA,pre trial waiting period,null,null,NA,NA,critical,c,d,t,240,164,154.6796,220.0396,164,240,spektor,0.14,h,164,240,240,164,154.6796,220.0396,39360,39360,34035.6388,tc,null,null,null,null,null,null,"[3,1]"
NA,canvas-keyboard-response,361,238653,0.0-6.0-1.59,5022,NA,NA,NA,NA,clear_screen,null,null,NA,NA,critical,c,d,t,240,164,154.6796,220.0396,164,240,spektor,0.14,h,164,240,240,164,154.6796,220.0396,39360,39360,34035.6388,tc,null,null,null,null,null,null,"[3,1]"
NA,canvas-keyboard-response,362,240001,0.0-6.0-2.59,5022,NA,NA,NA,NA,rectangles,null,null,NA,NA,critical,c,d,t,240,164,154.6796,220.0396,164,240,spektor,0.14,h,164,240,240,164,154.6796,220.0396,39360,39360,34035.6388,tc,null,null,null,null,null,null,"[3,1]"
NA,canvas-keyboard-response,363,240174,0.0-6.0-3.59,5022,NA,NA,NA,NA,clear_screen,null,null,NA,NA,critical,c,d,t,240,164,154.6796,220.0396,164,240,spektor,0.14,h,164,240,240,164,154.6796,220.0396,39360,39360,34035.6388,tc,null,null,null,null,null,null,"[3,1]"
NA,canvas-keyboard-response,364,240822,0.0-6.0-4.59,5022,NA,NA,NA,NA,make choice,625,3,NA,NA,critical,c,d,t,240,164,154.6796,220.0396,164,240,spektor,0.14,h,164,240,240,164,154.6796,220.0396,39360,39360,34035.6388,tc,null,null,null,null,null,null,"[3,1]"
NA,canvas-keyboard-response,365,240992,0.0-6.0-5.59,5022,NA,NA,NA,NA,clear_screen,null,null,NA,NA,critical,c,d,t,240,164,154.6796,220.0396,164,240,spektor,0.14,h,164,240,240,164,154.6796,220.0396,39360,39360,34035.6388,tc,null,null,null,null,null,null,"[3,1]"
NA,canvas-keyboard-response,366,241212,0.0-6.0-0.60,5022,NA,NA,NA,NA,pre trial waiting period,null,null,NA,NA,catch,sh,sw,l,212,178,141,200,228,226,trueblood,null,null,null,null,null,null,null,null,null,null,null,NA,180,200,260,200,36000,52000,"[1,3]"
NA,canvas-keyboard-response,367,241373,0.0-6.0-1.60,5022,NA,NA,NA,NA,clear_screen,null,null,NA,NA,catch,sh,sw,l,212,178,141,200,228,226,trueblood,null,null,null,null,null,null,null,null,null,null,null,NA,180,200,260,200,36000,52000,"[1,3]"
NA,canvas-keyboard-response,368,242719,0.0-6.0-2.60,5022,NA,NA,NA,NA,rectangles,null,null,NA,NA,catch,sh,sw,l,212,178,141,200,228,226,trueblood,null,null,null,null,null,null,null,null,null,null,null,NA,180,200,260,200,36000,52000,"[1,3]"
NA,canvas-keyboard-response,369,242892,0.0-6.0-3.60,5022,NA,NA,NA,NA,clear_screen,null,null,NA,NA,catch,sh,sw,l,212,178,141,200,228,226,trueblood,null,null,null,null,null,null,null,null,null,null,null,NA,180,200,260,200,36000,52000,"[1,3]"
NA,canvas-keyboard-response,370,243478,0.0-6.0-4.60,5022,NA,NA,NA,NA,make choice,561,3,NA,NA,catch,sh,sw,l,212,178,141,200,228,226,trueblood,null,null,null,null,null,null,null,null,null,null,null,NA,180,200,260,200,36000,52000,"[1,3]"
NA,canvas-keyboard-response,371,243656,0.0-6.0-5.60,5022,NA,NA,NA,NA,clear_screen,null,null,NA,NA,catch,sh,sw,l,212,178,141,200,228,226,trueblood,null,null,null,null,null,null,null,null,null,null,null,NA,180,200,260,200,36000,52000,"[1,3]"
NA,canvas-keyboard-response,372,243886,0.0-6.0-0.61,5022,NA,NA,NA,NA,pre trial waiting period,null,null,NA,NA,critical,d,t,c,160.6713,232.8713,164,240,240,164,trueblood,0.05,h,164,240,240,164,160.6713,232.8713,39360,39360,37415.7294,tc,null,null,null,null,null,null,"[2,3]"
NA,canvas-keyboard-response,373,244046,0.0-6.0-1.61,5022,NA,NA,NA,NA,clear_screen,null,null,NA,NA,critical,d,t,c,160.6713,232.8713,164,240,240,164,trueblood,0.05,h,164,240,240,164,160.6713,232.8713,39360,39360,37415.7294,tc,null,null,null,null,null,null,"[2,3]"
NA,canvas-keyboard-response,374,245385,0.0-6.0-2.61,5022,NA,NA,NA,NA,rectangles,null,null,NA,NA,critical,d,t,c,160.6713,232.8713,164,240,240,164,trueblood,0.05,h,164,240,240,164,160.6713,232.8713,39360,39360,37415.7294,tc,null,null,null,null,null,null,"[2,3]"
NA,canvas-keyboard-response,375,245559,0.0-6.0-3.61,5022,NA,NA,NA,NA,clear_screen,null,null,NA,NA,critical,d,t,c,160.6713,232.8713,164,240,240,164,trueblood,0.05,h,164,240,240,164,160.6713,232.8713,39360,39360,37415.7294,tc,null,null,null,null,null,null,"[2,3]"
NA,canvas-keyboard-response,376,246059,0.0-6.0-4.61,5022,NA,NA,NA,NA,make choice,476,2,NA,NA,critical,d,t,c,160.6713,232.8713,164,240,240,164,trueblood,0.05,h,164,240,240,164,160.6713,232.8713,39360,39360,37415.7294,tc,null,null,null,null,null,null,"[2,3]"
NA,canvas-keyboard-response,377,246224,0.0-6.0-5.61,5022,NA,NA,NA,NA,clear_screen,null,null,NA,NA,critical,d,t,c,160.6713,232.8713,164,240,240,164,trueblood,0.05,h,164,240,240,164,160.6713,232.8713,39360,39360,37415.7294,tc,null,null,null,null,null,null,"[2,3]"
NA,canvas-keyboard-response,378,246446,0.0-6.0-0.62,5022,NA,NA,NA,NA,pre trial waiting period,null,null,NA,NA,critical,t,d,c,164,240,160.6713,232.8713,240,164,trueblood,0.05,h,164,240,240,164,160.6713,232.8713,39360,39360,37415.7294,dc,null,null,null,null,null,null,"[2,3]"
NA,canvas-keyboard-response,379,246604,0.0-6.0-1.62,5022,NA,NA,NA,NA,clear_screen,null,null,NA,NA,critical,t,d,c,164,240,160.6713,232.8713,240,164,trueblood,0.05,h,164,240,240,164,160.6713,232.8713,39360,39360,37415.7294,dc,null,null,null,null,null,null,"[2,3]"
NA,canvas-keyboard-response,380,247954,0.0-6.0-2.62,5022,NA,NA,NA,NA,rectangles,null,null,NA,NA,critical,t,d,c,164,240,160.6713,232.8713,240,164,trueblood,0.05,h,164,240,240,164,160.6713,232.8713,39360,39360,37415.7294,dc,null,null,null,null,null,null,"[2,3]"
NA,canvas-keyboard-response,381,248127,0.0-6.0-3.62,5022,NA,NA,NA,NA,clear_screen,null,null,NA,NA,critical,t,d,c,164,240,160.6713,232.8713,240,164,trueblood,0.05,h,164,240,240,164,160.6713,232.8713,39360,39360,37415.7294,dc,null,null,null,null,null,null,"[2,3]"
NA,canvas-keyboard-response,382,249030,0.0-6.0-4.62,5022,NA,NA,NA,NA,make choice,878,3,NA,NA,critical,t,d,c,164,240,160.6713,232.8713,240,164,trueblood,0.05,h,164,240,240,164,160.6713,232.8713,39360,39360,37415.7294,dc,null,null,null,null,null,null,"[2,3]"
NA,canvas-keyboard-response,383,249199,0.0-6.0-5.62,5022,NA,NA,NA,NA,clear_screen,null,null,NA,NA,critical,t,d,c,164,240,160.6713,232.8713,240,164,trueblood,0.05,h,164,240,240,164,160.6713,232.8713,39360,39360,37415.7294,dc,null,null,null,null,null,null,"[2,3]"
NA,canvas-keyboard-response,384,249418,0.0-6.0-0.63,5022,NA,NA,NA,NA,pre trial waiting period,null,null,NA,NA,critical,c,d,t,240,164,162.6685,237.1485,164,240,trueblood,0.02,h,164,240,240,164,162.6685,237.1485,39360,39360,38576.5967,dc,null,null,null,null,null,null,"[2,1]"
NA,canvas-keyboard-response,385,249581,0.0-6.0-1.63,5022,NA,NA,NA,NA,clear_screen,null,null,NA,NA,critical,c,d,t,240,164,162.6685,237.1485,164,240,trueblood,0.02,h,164,240,240,164,162.6685,237.1485,39360,39360,38576.5967,dc,null,null,null,null,null,null,"[2,1]"
NA,canvas-keyboard-response,386,250929,0.0-6.0-2.63,5022,NA,NA,NA,NA,rectangles,null,null,NA,NA,critical,c,d,t,240,164,162.6685,237.1485,164,240,trueblood,0.02,h,164,240,240,164,162.6685,237.1485,39360,39360,38576.5967,dc,null,null,null,null,null,null,"[2,1]"
NA,canvas-keyboard-response,387,251105,0.0-6.0-3.63,5022,NA,NA,NA,NA,clear_screen,null,null,NA,NA,critical,c,d,t,240,164,162.6685,237.1485,164,240,trueblood,0.02,h,164,240,240,164,162.6685,237.1485,39360,39360,38576.5967,dc,null,null,null,null,null,null,"[2,1]"
NA,canvas-keyboard-response,388,251628,0.0-6.0-4.63,5022,NA,NA,NA,NA,make choice,499,2,NA,NA,critical,c,d,t,240,164,162.6685,237.1485,164,240,trueblood,0.02,h,164,240,240,164,162.6685,237.1485,39360,39360,38576.5967,dc,null,null,null,null,null,null,"[2,1]"
NA,canvas-keyboard-response,389,251796,0.0-6.0-5.63,5022,NA,NA,NA,NA,clear_screen,null,null,NA,NA,critical,c,d,t,240,164,162.6685,237.1485,164,240,trueblood,0.02,h,164,240,240,164,162.6685,237.1485,39360,39360,38576.5967,dc,null,null,null,null,null,null,"[2,1]"
NA,canvas-keyboard-response,390,252017,0.0-6.0-0.64,5022,NA,NA,NA,NA,pre trial waiting period,null,null,NA,NA,critical,d,c,t,232.8713,160.6713,164,240,240,164,spektor,0.05,w,240,164,164,240,232.8713,160.6713,39360,39360,37415.7294,tc,null,null,null,null,null,null,"[3,2]"
NA,canvas-keyboard-response,391,252178,0.0-6.0-1.64,5022,NA,NA,NA,NA,clear_screen,null,null,NA,NA,critical,d,c,t,232.8713,160.6713,164,240,240,164,spektor,0.05,w,240,164,164,240,232.8713,160.6713,39360,39360,37415.7294,tc,null,null,null,null,null,null,"[3,2]"
NA,canvas-keyboard-response,392,253526,0.0-6.0-2.64,5022,NA,NA,NA,NA,rectangles,null,null,NA,NA,critical,d,c,t,232.8713,160.6713,164,240,240,164,spektor,0.05,w,240,164,164,240,232.8713,160.6713,39360,39360,37415.7294,tc,null,null,null,null,null,null,"[3,2]"
NA,canvas-keyboard-response,393,253698,0.0-6.0-3.64,5022,NA,NA,NA,NA,clear_screen,null,null,NA,NA,critical,d,c,t,232.8713,160.6713,164,240,240,164,spektor,0.05,w,240,164,164,240,232.8713,160.6713,39360,39360,37415.7294,tc,null,null,null,null,null,null,"[3,2]"
NA,canvas-keyboard-response,394,254316,0.0-6.0-4.64,5022,NA,NA,NA,NA,make choice,597,3,NA,NA,critical,d,c,t,232.8713,160.6713,164,240,240,164,spektor,0.05,w,240,164,164,240,232.8713,160.6713,39360,39360,37415.7294,tc,null,null,null,null,null,null,"[3,2]"
NA,canvas-keyboard-response,395,254489,0.0-6.0-5.64,5022,NA,NA,NA,NA,clear_screen,null,null,NA,NA,critical,d,c,t,232.8713,160.6713,164,240,240,164,spektor,0.05,w,240,164,164,240,232.8713,160.6713,39360,39360,37415.7294,tc,null,null,null,null,null,null,"[3,2]"
