success,trial_type,trial_index,time_elapsed,internal_node_id,sub_n,timeout,failed_images,failed_audio,failed_video,screen_id,rt,response,stimulus,view_history,trial,r1,r2,r3,w1,h1,w2,h2,w3,h3,display,tdd,tdo,tw,th,cw,ch,dw,dh,ta,ca,da,probe,csls,csss,clls,clss,sa,la,probe_rects
TRUE,fullscreen,0,3319,0.0-0.0,5013,NA,NA,NA,NA,NA,NA,NA,NA,NA,NA,NA,NA,NA,NA,NA,NA,NA,NA,NA,NA,NA,NA,NA,NA,NA,NA,NA,NA,NA,NA,NA,NA,NA,NA,NA,NA,NA,NA,NA
TRUE,preload,1,3337,0.0-1.0,5013,FALSE,NA,NA,NA,img preload,NA,NA,NA,NA,NA,NA,NA,NA,NA,NA,NA,NA,NA,NA,NA,NA,NA,NA,NA,NA,NA,NA,NA,NA,NA,NA,NA,NA,NA,NA,NA,NA,NA,NA
NA,survey-html-form,2,9998,0.0-2.0,5013,NA,NA,NA,NA,enter-sub-number,6656,"{""response"":""05""}",NA,NA,NA,NA,NA,NA,NA,NA,NA,NA,NA,NA,NA,NA,NA,NA,NA,NA,NA,NA,NA,NA,NA,NA,NA,NA,NA,NA,NA,NA,NA,NA
NA,image-button-response,3,77321,0.0-3.0,5013,NA,NA,NA,NA,NA,67256,0,consent.png,NA,NA,NA,NA,NA,NA,NA,NA,NA,NA,NA,NA,NA,NA,NA,NA,NA,NA,NA,NA,NA,NA,NA,NA,NA,NA,NA,NA,NA,NA,NA
NA,html-button-response,4,85191,0.0-4.0,5013,NA,NA,NA,NA,intro mssg,7863,0,"<div style= ""font-size:25px;"" <p> <strong> Welcome! </strong><br> <p style=""color:#8B0000; font-size:25px;""><strong> Please do NOT exit full screen until you are done with the experiment. </strong> </p><p style=""font-size:25px;color:#8B0000;""> <strong> Your data will be lost <br> if you try to go back or refresh the page after the experiment starts. Feel free to click ""previous"" during the instructions, however.</strong> </p><br><p> <strong> Thanks in advance for your contribution to our research! </strong></p>",NA,NA,NA,NA,NA,NA,NA,NA,NA,NA,NA,NA,NA,NA,NA,NA,NA,NA,NA,NA,NA,NA,NA,NA,NA,NA,NA,NA,NA,NA,NA
NA,instructions,5,124647,0.0-5.0,5013,NA,NA,NA,NA,instructions,39452,NA,NA,NA,NA,NA,NA,NA,NA,NA,NA,NA,NA,NA,NA,NA,NA,NA,NA,NA,NA,NA,NA,NA,NA,NA,NA,NA,NA,NA,NA,NA,NA,NA
NA,canvas-keyboard-response,6,124851,0.0-6.0-0.0,5013,NA,NA,NA,NA,pre trial waiting period,null,null,NA,NA,catch,sh,l,sw,198,199,215,286,159,168,trueblood,null,null,null,null,null,null,null,null,null,null,null,NA,180,200,260,200,36000,52000,"[1,2]"
NA,canvas-keyboard-response,7,125013,0.0-6.0-1.0,5013,NA,NA,NA,NA,clear_screen,null,null,NA,NA,catch,sh,l,sw,198,199,215,286,159,168,trueblood,null,null,null,null,null,null,null,null,null,null,null,NA,180,200,260,200,36000,52000,"[1,2]"
NA,canvas-keyboard-response,8,126357,0.0-6.0-2.0,5013,NA,NA,NA,NA,rectangles,null,null,NA,NA,catch,sh,l,sw,198,199,215,286,159,168,trueblood,null,null,null,null,null,null,null,null,null,null,null,NA,180,200,260,200,36000,52000,"[1,2]"
NA,canvas-keyboard-response,9,126521,0.0-6.0-3.0,5013,NA,NA,NA,NA,clear_screen,null,null,NA,NA,catch,sh,l,sw,198,199,215,286,159,168,trueblood,null,null,null,null,null,null,null,null,null,null,null,NA,180,200,260,200,36000,52000,"[1,2]"
NA,canvas-keyboard-response,10,128847,0.0-6.0-4.0,5013,NA,NA,NA,NA,make choice,2311,2,NA,NA,catch,sh,l,sw,198,199,215,286,159,168,trueblood,null,null,null,null,null,null,null,null,null,null,null,NA,180,200,260,200,36000,52000,"[1,2]"
NA,canvas-keyboard-response,11,129012,0.0-6.0-5.0,5013,NA,NA,NA,NA,clear_screen,null,null,NA,NA,catch,sh,l,sw,198,199,215,286,159,168,trueblood,null,null,null,null,null,null,null,null,null,null,null,NA,180,200,260,200,36000,52000,"[1,2]"
NA,canvas-keyboard-response,12,129216,0.0-6.0-0.1,5013,NA,NA,NA,NA,pre trial waiting period,null,null,NA,NA,critical,c,t,d,164,240,240,164,227.1683,158.0083,spektor,0.09,w,240,164,164,240,227.1683,158.0083,39360,39360,35894.4834,tc,null,null,null,null,null,null,"[2,1]"
NA,canvas-keyboard-response,13,129378,0.0-6.0-1.1,5013,NA,NA,NA,NA,clear_screen,null,null,NA,NA,critical,c,t,d,164,240,240,164,227.1683,158.0083,spektor,0.09,w,240,164,164,240,227.1683,158.0083,39360,39360,35894.4834,tc,null,null,null,null,null,null,"[2,1]"
NA,canvas-keyboard-response,14,130716,0.0-6.0-2.1,5013,NA,NA,NA,NA,rectangles,null,null,NA,NA,critical,c,t,d,164,240,240,164,227.1683,158.0083,spektor,0.09,w,240,164,164,240,227.1683,158.0083,39360,39360,35894.4834,tc,null,null,null,null,null,null,"[2,1]"
NA,canvas-keyboard-response,15,130876,0.0-6.0-3.1,5013,NA,NA,NA,NA,clear_screen,null,null,NA,NA,critical,c,t,d,164,240,240,164,227.1683,158.0083,spektor,0.09,w,240,164,164,240,227.1683,158.0083,39360,39360,35894.4834,tc,null,null,null,null,null,null,"[2,1]"
NA,canvas-keyboard-response,16,132382,0.0-6.0-4.1,5013,NA,NA,NA,NA,make choice,1494,1,NA,NA,critical,c,t,d,164,240,240,164,227.1683,158.0083,spektor,0.09,w,240,164,164,240,227.1683,158.0083,39360,39360,35894.4834,tc,null,null,null,null,null,null,"[2,1]"
NA,canvas-keyboard-response,17,132545,0.0-6.0-5.1,5013,NA,NA,NA,NA,clear_screen,null,null,NA,NA,critical,c,t,d,164,240,240,164,227.1683,158.0083,spektor,0.09,w,240,164,164,240,227.1683,158.0083,39360,39360,35894.4834,tc,null,null,null,null,null,null,"[2,1]"
NA,canvas-keyboard-response,18,132757,0.0-6.0-0.2,5013,NA,NA,NA,NA,pre trial waiting period,null,null,NA,NA,critical,c,t,d,240,164,164,240,154.6796,220.0396,trueblood,0.14,h,164,240,240,164,154.6796,220.0396,39360,39360,34035.6388,td,null,null,null,null,null,null,"[2,3]"
NA,canvas-keyboard-response,19,132913,0.0-6.0-1.2,5013,NA,NA,NA,NA,clear_screen,null,null,NA,NA,critical,c,t,d,240,164,164,240,154.6796,220.0396,trueblood,0.14,h,164,240,240,164,154.6796,220.0396,39360,39360,34035.6388,td,null,null,null,null,null,null,"[2,3]"
NA,canvas-keyboard-response,20,134255,0.0-6.0-2.2,5013,NA,NA,NA,NA,rectangles,null,null,NA,NA,critical,c,t,d,240,164,164,240,154.6796,220.0396,trueblood,0.14,h,164,240,240,164,154.6796,220.0396,39360,39360,34035.6388,td,null,null,null,null,null,null,"[2,3]"
NA,canvas-keyboard-response,21,134421,0.0-6.0-3.2,5013,NA,NA,NA,NA,clear_screen,null,null,NA,NA,critical,c,t,d,240,164,164,240,154.6796,220.0396,trueblood,0.14,h,164,240,240,164,154.6796,220.0396,39360,39360,34035.6388,td,null,null,null,null,null,null,"[2,3]"
NA,canvas-keyboard-response,22,137975,0.0-6.0-4.2,5013,NA,NA,NA,NA,make choice,3542,3,NA,NA,critical,c,t,d,240,164,164,240,154.6796,220.0396,trueblood,0.14,h,164,240,240,164,154.6796,220.0396,39360,39360,34035.6388,td,null,null,null,null,null,null,"[2,3]"
NA,canvas-keyboard-response,23,138137,0.0-6.0-5.2,5013,NA,NA,NA,NA,clear_screen,null,null,NA,NA,critical,c,t,d,240,164,164,240,154.6796,220.0396,trueblood,0.14,h,164,240,240,164,154.6796,220.0396,39360,39360,34035.6388,td,null,null,null,null,null,null,"[2,3]"
NA,canvas-keyboard-response,24,138345,0.0-6.0-0.3,5013,NA,NA,NA,NA,pre trial waiting period,null,null,NA,NA,critical,c,t,d,164,240,240,164,232.8713,160.6713,trueblood,0.05,w,240,164,164,240,232.8713,160.6713,39360,39360,37415.7294,td,null,null,null,null,null,null,"[2,3]"
NA,canvas-keyboard-response,25,138504,0.0-6.0-1.3,5013,NA,NA,NA,NA,clear_screen,null,null,NA,NA,critical,c,t,d,164,240,240,164,232.8713,160.6713,trueblood,0.05,w,240,164,164,240,232.8713,160.6713,39360,39360,37415.7294,td,null,null,null,null,null,null,"[2,3]"
NA,canvas-keyboard-response,26,139844,0.0-6.0-2.3,5013,NA,NA,NA,NA,rectangles,null,null,NA,NA,critical,c,t,d,164,240,240,164,232.8713,160.6713,trueblood,0.05,w,240,164,164,240,232.8713,160.6713,39360,39360,37415.7294,td,null,null,null,null,null,null,"[2,3]"
NA,canvas-keyboard-response,27,140006,0.0-6.0-3.3,5013,NA,NA,NA,NA,clear_screen,null,null,NA,NA,critical,c,t,d,164,240,240,164,232.8713,160.6713,trueblood,0.05,w,240,164,164,240,232.8713,160.6713,39360,39360,37415.7294,td,null,null,null,null,null,null,"[2,3]"
NA,canvas-keyboard-response,28,141926,0.0-6.0-4.3,5013,NA,NA,NA,NA,make choice,1906,3,NA,NA,critical,c,t,d,164,240,240,164,232.8713,160.6713,trueblood,0.05,w,240,164,164,240,232.8713,160.6713,39360,39360,37415.7294,td,null,null,null,null,null,null,"[2,3]"
NA,canvas-keyboard-response,29,142088,0.0-6.0-5.3,5013,NA,NA,NA,NA,clear_screen,null,null,NA,NA,critical,c,t,d,164,240,240,164,232.8713,160.6713,trueblood,0.05,w,240,164,164,240,232.8713,160.6713,39360,39360,37415.7294,td,null,null,null,null,null,null,"[2,3]"
NA,canvas-keyboard-response,30,142297,0.0-6.0-0.4,5013,NA,NA,NA,NA,pre trial waiting period,null,null,NA,NA,catch,l,sh,sw,240,208,196,217,156,215,trueblood,null,null,null,null,null,null,null,null,null,null,null,NA,180,200,260,200,36000,52000,"[1,2]"
NA,canvas-keyboard-response,31,142457,0.0-6.0-1.4,5013,NA,NA,NA,NA,clear_screen,null,null,NA,NA,catch,l,sh,sw,240,208,196,217,156,215,trueblood,null,null,null,null,null,null,null,null,null,null,null,NA,180,200,260,200,36000,52000,"[1,2]"
NA,canvas-keyboard-response,32,143798,0.0-6.0-2.4,5013,NA,NA,NA,NA,rectangles,null,null,NA,NA,catch,l,sh,sw,240,208,196,217,156,215,trueblood,null,null,null,null,null,null,null,null,null,null,null,NA,180,200,260,200,36000,52000,"[1,2]"
NA,canvas-keyboard-response,33,143961,0.0-6.0-3.4,5013,NA,NA,NA,NA,clear_screen,null,null,NA,NA,catch,l,sh,sw,240,208,196,217,156,215,trueblood,null,null,null,null,null,null,null,null,null,null,null,NA,180,200,260,200,36000,52000,"[1,2]"
NA,canvas-keyboard-response,34,144943,0.0-6.0-4.4,5013,NA,NA,NA,NA,make choice,971,1,NA,NA,catch,l,sh,sw,240,208,196,217,156,215,trueblood,null,null,null,null,null,null,null,null,null,null,null,NA,180,200,260,200,36000,52000,"[1,2]"
NA,canvas-keyboard-response,35,145103,0.0-6.0-5.4,5013,NA,NA,NA,NA,clear_screen,null,null,NA,NA,catch,l,sh,sw,240,208,196,217,156,215,trueblood,null,null,null,null,null,null,null,null,null,null,null,NA,180,200,260,200,36000,52000,"[1,2]"
NA,canvas-keyboard-response,36,145308,0.0-6.0-0.5,5013,NA,NA,NA,NA,pre trial waiting period,null,null,NA,NA,critical,c,d,t,240,164,162.6685,237.1485,164,240,trueblood,0.02,h,164,240,240,164,162.6685,237.1485,39360,39360,38576.5967,tc,null,null,null,null,null,null,"[3,1]"
NA,canvas-keyboard-response,37,145468,0.0-6.0-1.5,5013,NA,NA,NA,NA,clear_screen,null,null,NA,NA,critical,c,d,t,240,164,162.6685,237.1485,164,240,trueblood,0.02,h,164,240,240,164,162.6685,237.1485,39360,39360,38576.5967,tc,null,null,null,null,null,null,"[3,1]"
NA,canvas-keyboard-response,38,146805,0.0-6.0-2.5,5013,NA,NA,NA,NA,rectangles,null,null,NA,NA,critical,c,d,t,240,164,162.6685,237.1485,164,240,trueblood,0.02,h,164,240,240,164,162.6685,237.1485,39360,39360,38576.5967,tc,null,null,null,null,null,null,"[3,1]"
NA,canvas-keyboard-response,39,146972,0.0-6.0-3.5,5013,NA,NA,NA,NA,clear_screen,null,null,NA,NA,critical,c,d,t,240,164,162.6685,237.1485,164,240,trueblood,0.02,h,164,240,240,164,162.6685,237.1485,39360,39360,38576.5967,tc,null,null,null,null,null,null,"[3,1]"
NA,canvas-keyboard-response,40,148038,0.0-6.0-4.5,5013,NA,NA,NA,NA,make choice,1053,1,NA,NA,critical,c,d,t,240,164,162.6685,237.1485,164,240,trueblood,0.02,h,164,240,240,164,162.6685,237.1485,39360,39360,38576.5967,tc,null,null,null,null,null,null,"[3,1]"
NA,canvas-keyboard-response,41,148209,0.0-6.0-5.5,5013,NA,NA,NA,NA,clear_screen,null,null,NA,NA,critical,c,d,t,240,164,162.6685,237.1485,164,240,trueblood,0.02,h,164,240,240,164,162.6685,237.1485,39360,39360,38576.5967,tc,null,null,null,null,null,null,"[3,1]"
NA,canvas-keyboard-response,42,148411,0.0-6.0-0.6,5013,NA,NA,NA,NA,pre trial waiting period,null,null,NA,NA,critical,c,d,t,240,164,164,240,164,240,trueblood,0,h,164,240,240,164,164,240,39360,39360,39360,tc,null,null,null,null,null,null,"[3,1]"
NA,canvas-keyboard-response,43,148570,0.0-6.0-1.6,5013,NA,NA,NA,NA,clear_screen,null,null,NA,NA,critical,c,d,t,240,164,164,240,164,240,trueblood,0,h,164,240,240,164,164,240,39360,39360,39360,tc,null,null,null,null,null,null,"[3,1]"
NA,canvas-keyboard-response,44,149908,0.0-6.0-2.6,5013,NA,NA,NA,NA,rectangles,null,null,NA,NA,critical,c,d,t,240,164,164,240,164,240,trueblood,0,h,164,240,240,164,164,240,39360,39360,39360,tc,null,null,null,null,null,null,"[3,1]"
NA,canvas-keyboard-response,45,150069,0.0-6.0-3.6,5013,NA,NA,NA,NA,clear_screen,null,null,NA,NA,critical,c,d,t,240,164,164,240,164,240,trueblood,0,h,164,240,240,164,164,240,39360,39360,39360,tc,null,null,null,null,null,null,"[3,1]"
NA,canvas-keyboard-response,46,151806,0.0-6.0-4.6,5013,NA,NA,NA,NA,make choice,1722,3,NA,NA,critical,c,d,t,240,164,164,240,164,240,trueblood,0,h,164,240,240,164,164,240,39360,39360,39360,tc,null,null,null,null,null,null,"[3,1]"
NA,canvas-keyboard-response,47,151968,0.0-6.0-5.6,5013,NA,NA,NA,NA,clear_screen,null,null,NA,NA,critical,c,d,t,240,164,164,240,164,240,trueblood,0,h,164,240,240,164,164,240,39360,39360,39360,tc,null,null,null,null,null,null,"[3,1]"
NA,canvas-keyboard-response,48,152174,0.0-6.0-0.7,5013,NA,NA,NA,NA,pre trial waiting period,null,null,NA,NA,critical,t,d,c,164,240,158.0083,227.1683,240,164,trueblood,0.09,h,164,240,240,164,158.0083,227.1683,39360,39360,35894.4834,tc,null,null,null,null,null,null,"[1,3]"
NA,canvas-keyboard-response,49,152332,0.0-6.0-1.7,5013,NA,NA,NA,NA,clear_screen,null,null,NA,NA,critical,t,d,c,164,240,158.0083,227.1683,240,164,trueblood,0.09,h,164,240,240,164,158.0083,227.1683,39360,39360,35894.4834,tc,null,null,null,null,null,null,"[1,3]"
NA,canvas-keyboard-response,50,153675,0.0-6.0-2.7,5013,NA,NA,NA,NA,rectangles,null,null,NA,NA,critical,t,d,c,164,240,158.0083,227.1683,240,164,trueblood,0.09,h,164,240,240,164,158.0083,227.1683,39360,39360,35894.4834,tc,null,null,null,null,null,null,"[1,3]"
NA,canvas-keyboard-response,51,153840,0.0-6.0-3.7,5013,NA,NA,NA,NA,clear_screen,null,null,NA,NA,critical,t,d,c,164,240,158.0083,227.1683,240,164,trueblood,0.09,h,164,240,240,164,158.0083,227.1683,39360,39360,35894.4834,tc,null,null,null,null,null,null,"[1,3]"
NA,canvas-keyboard-response,52,155423,0.0-6.0-4.7,5013,NA,NA,NA,NA,make choice,1567,1,NA,NA,critical,t,d,c,164,240,158.0083,227.1683,240,164,trueblood,0.09,h,164,240,240,164,158.0083,227.1683,39360,39360,35894.4834,tc,null,null,null,null,null,null,"[1,3]"
NA,canvas-keyboard-response,53,155586,0.0-6.0-5.7,5013,NA,NA,NA,NA,clear_screen,null,null,NA,NA,critical,t,d,c,164,240,158.0083,227.1683,240,164,trueblood,0.09,h,164,240,240,164,158.0083,227.1683,39360,39360,35894.4834,tc,null,null,null,null,null,null,"[1,3]"
NA,canvas-keyboard-response,54,155794,0.0-6.0-0.8,5013,NA,NA,NA,NA,pre trial waiting period,null,null,NA,NA,critical,c,t,d,164,240,240,164,237.1485,162.6685,trueblood,0.02,w,240,164,164,240,237.1485,162.6685,39360,39360,38576.5967,tc,null,null,null,null,null,null,"[2,1]"
NA,canvas-keyboard-response,55,155955,0.0-6.0-1.8,5013,NA,NA,NA,NA,clear_screen,null,null,NA,NA,critical,c,t,d,164,240,240,164,237.1485,162.6685,trueblood,0.02,w,240,164,164,240,237.1485,162.6685,39360,39360,38576.5967,tc,null,null,null,null,null,null,"[2,1]"
NA,canvas-keyboard-response,56,157295,0.0-6.0-2.8,5013,NA,NA,NA,NA,rectangles,null,null,NA,NA,critical,c,t,d,164,240,240,164,237.1485,162.6685,trueblood,0.02,w,240,164,164,240,237.1485,162.6685,39360,39360,38576.5967,tc,null,null,null,null,null,null,"[2,1]"
NA,canvas-keyboard-response,57,157461,0.0-6.0-3.8,5013,NA,NA,NA,NA,clear_screen,null,null,NA,NA,critical,c,t,d,164,240,240,164,237.1485,162.6685,trueblood,0.02,w,240,164,164,240,237.1485,162.6685,39360,39360,38576.5967,tc,null,null,null,null,null,null,"[2,1]"
NA,canvas-keyboard-response,58,158271,0.0-6.0-4.8,5013,NA,NA,NA,NA,make choice,797,1,NA,NA,critical,c,t,d,164,240,240,164,237.1485,162.6685,trueblood,0.02,w,240,164,164,240,237.1485,162.6685,39360,39360,38576.5967,tc,null,null,null,null,null,null,"[2,1]"
NA,canvas-keyboard-response,59,158433,0.0-6.0-5.8,5013,NA,NA,NA,NA,clear_screen,null,null,NA,NA,critical,c,t,d,164,240,240,164,237.1485,162.6685,trueblood,0.02,w,240,164,164,240,237.1485,162.6685,39360,39360,38576.5967,tc,null,null,null,null,null,null,"[2,1]"
NA,canvas-keyboard-response,60,158642,0.0-6.0-0.9,5013,NA,NA,NA,NA,pre trial waiting period,null,null,NA,NA,catch,sh,sw,l,214,199,151,235,173,286,spektor,null,null,null,null,null,null,null,null,null,null,null,NA,180,200,260,200,36000,52000,"[2,3]"
NA,canvas-keyboard-response,61,158802,0.0-6.0-1.9,5013,NA,NA,NA,NA,clear_screen,null,null,NA,NA,catch,sh,sw,l,214,199,151,235,173,286,spektor,null,null,null,null,null,null,null,null,null,null,null,NA,180,200,260,200,36000,52000,"[2,3]"
NA,canvas-keyboard-response,62,160141,0.0-6.0-2.9,5013,NA,NA,NA,NA,rectangles,null,null,NA,NA,catch,sh,sw,l,214,199,151,235,173,286,spektor,null,null,null,null,null,null,null,null,null,null,null,NA,180,200,260,200,36000,52000,"[2,3]"
NA,canvas-keyboard-response,63,160303,0.0-6.0-3.9,5013,NA,NA,NA,NA,clear_screen,null,null,NA,NA,catch,sh,sw,l,214,199,151,235,173,286,spektor,null,null,null,null,null,null,null,null,null,null,null,NA,180,200,260,200,36000,52000,"[2,3]"
NA,canvas-keyboard-response,64,160918,0.0-6.0-4.9,5013,NA,NA,NA,NA,make choice,601,3,NA,NA,catch,sh,sw,l,214,199,151,235,173,286,spektor,null,null,null,null,null,null,null,null,null,null,null,NA,180,200,260,200,36000,52000,"[2,3]"
NA,canvas-keyboard-response,65,161084,0.0-6.0-5.9,5013,NA,NA,NA,NA,clear_screen,null,null,NA,NA,catch,sh,sw,l,214,199,151,235,173,286,spektor,null,null,null,null,null,null,null,null,null,null,null,NA,180,200,260,200,36000,52000,"[2,3]"
NA,canvas-keyboard-response,66,161292,0.0-6.0-0.10,5013,NA,NA,NA,NA,pre trial waiting period,null,null,NA,NA,critical,c,t,d,164,240,240,164,220.0396,154.6796,trueblood,0.14,w,240,164,164,240,220.0396,154.6796,39360,39360,34035.6388,td,null,null,null,null,null,null,"[2,3]"
NA,canvas-keyboard-response,67,161455,0.0-6.0-1.10,5013,NA,NA,NA,NA,clear_screen,null,null,NA,NA,critical,c,t,d,164,240,240,164,220.0396,154.6796,trueblood,0.14,w,240,164,164,240,220.0396,154.6796,39360,39360,34035.6388,td,null,null,null,null,null,null,"[2,3]"
NA,canvas-keyboard-response,68,162794,0.0-6.0-2.10,5013,NA,NA,NA,NA,rectangles,null,null,NA,NA,critical,c,t,d,164,240,240,164,220.0396,154.6796,trueblood,0.14,w,240,164,164,240,220.0396,154.6796,39360,39360,34035.6388,td,null,null,null,null,null,null,"[2,3]"
NA,canvas-keyboard-response,69,162956,0.0-6.0-3.10,5013,NA,NA,NA,NA,clear_screen,null,null,NA,NA,critical,c,t,d,164,240,240,164,220.0396,154.6796,trueblood,0.14,w,240,164,164,240,220.0396,154.6796,39360,39360,34035.6388,td,null,null,null,null,null,null,"[2,3]"
NA,canvas-keyboard-response,70,164654,0.0-6.0-4.10,5013,NA,NA,NA,NA,make choice,1686,2,NA,NA,critical,c,t,d,164,240,240,164,220.0396,154.6796,trueblood,0.14,w,240,164,164,240,220.0396,154.6796,39360,39360,34035.6388,td,null,null,null,null,null,null,"[2,3]"
NA,canvas-keyboard-response,71,164818,0.0-6.0-5.10,5013,NA,NA,NA,NA,clear_screen,null,null,NA,NA,critical,c,t,d,164,240,240,164,220.0396,154.6796,trueblood,0.14,w,240,164,164,240,220.0396,154.6796,39360,39360,34035.6388,td,null,null,null,null,null,null,"[2,3]"
NA,canvas-keyboard-response,72,165032,0.0-6.0-0.11,5013,NA,NA,NA,NA,pre trial waiting period,null,null,NA,NA,critical,d,c,t,240,164,164,240,240,164,spektor,0,w,240,164,164,240,240,164,39360,39360,39360,td,null,null,null,null,null,null,"[3,1]"
NA,canvas-keyboard-response,73,165193,0.0-6.0-1.11,5013,NA,NA,NA,NA,clear_screen,null,null,NA,NA,critical,d,c,t,240,164,164,240,240,164,spektor,0,w,240,164,164,240,240,164,39360,39360,39360,td,null,null,null,null,null,null,"[3,1]"
NA,canvas-keyboard-response,74,166536,0.0-6.0-2.11,5013,NA,NA,NA,NA,rectangles,null,null,NA,NA,critical,d,c,t,240,164,164,240,240,164,spektor,0,w,240,164,164,240,240,164,39360,39360,39360,td,null,null,null,null,null,null,"[3,1]"
NA,canvas-keyboard-response,75,166699,0.0-6.0-3.11,5013,NA,NA,NA,NA,clear_screen,null,null,NA,NA,critical,d,c,t,240,164,164,240,240,164,spektor,0,w,240,164,164,240,240,164,39360,39360,39360,td,null,null,null,null,null,null,"[3,1]"
NA,canvas-keyboard-response,76,167687,0.0-6.0-4.11,5013,NA,NA,NA,NA,make choice,976,1,NA,NA,critical,d,c,t,240,164,164,240,240,164,spektor,0,w,240,164,164,240,240,164,39360,39360,39360,td,null,null,null,null,null,null,"[3,1]"
NA,canvas-keyboard-response,77,167852,0.0-6.0-5.11,5013,NA,NA,NA,NA,clear_screen,null,null,NA,NA,critical,d,c,t,240,164,164,240,240,164,spektor,0,w,240,164,164,240,240,164,39360,39360,39360,td,null,null,null,null,null,null,"[3,1]"
NA,canvas-keyboard-response,78,168060,0.0-6.0-0.12,5013,NA,NA,NA,NA,pre trial waiting period,null,null,NA,NA,critical,c,d,t,240,164,164,240,164,240,spektor,0,h,164,240,240,164,164,240,39360,39360,39360,td,null,null,null,null,null,null,"[3,2]"
NA,canvas-keyboard-response,79,168219,0.0-6.0-1.12,5013,NA,NA,NA,NA,clear_screen,null,null,NA,NA,critical,c,d,t,240,164,164,240,164,240,spektor,0,h,164,240,240,164,164,240,39360,39360,39360,td,null,null,null,null,null,null,"[3,2]"
NA,canvas-keyboard-response,80,169561,0.0-6.0-2.12,5013,NA,NA,NA,NA,rectangles,null,null,NA,NA,critical,c,d,t,240,164,164,240,164,240,spektor,0,h,164,240,240,164,164,240,39360,39360,39360,td,null,null,null,null,null,null,"[3,2]"
NA,canvas-keyboard-response,81,169726,0.0-6.0-3.12,5013,NA,NA,NA,NA,clear_screen,null,null,NA,NA,critical,c,d,t,240,164,164,240,164,240,spektor,0,h,164,240,240,164,164,240,39360,39360,39360,td,null,null,null,null,null,null,"[3,2]"
NA,canvas-keyboard-response,82,172639,0.0-6.0-4.12,5013,NA,NA,NA,NA,make choice,2892,3,NA,NA,critical,c,d,t,240,164,164,240,164,240,spektor,0,h,164,240,240,164,164,240,39360,39360,39360,td,null,null,null,null,null,null,"[3,2]"
NA,canvas-keyboard-response,83,172806,0.0-6.0-5.12,5013,NA,NA,NA,NA,clear_screen,null,null,NA,NA,critical,c,d,t,240,164,164,240,164,240,spektor,0,h,164,240,240,164,164,240,39360,39360,39360,td,null,null,null,null,null,null,"[3,2]"
NA,canvas-keyboard-response,84,173019,0.0-6.0-0.13,5013,NA,NA,NA,NA,pre trial waiting period,null,null,NA,NA,catch,sw,sh,l,180,200,195,216,231,253,spektor,null,null,null,null,null,null,null,null,null,null,null,NA,180,200,260,200,36000,52000,"[2,3]"
NA,canvas-keyboard-response,85,173177,0.0-6.0-1.13,5013,NA,NA,NA,NA,clear_screen,null,null,NA,NA,catch,sw,sh,l,180,200,195,216,231,253,spektor,null,null,null,null,null,null,null,null,null,null,null,NA,180,200,260,200,36000,52000,"[2,3]"
NA,canvas-keyboard-response,86,174521,0.0-6.0-2.13,5013,NA,NA,NA,NA,rectangles,null,null,NA,NA,catch,sw,sh,l,180,200,195,216,231,253,spektor,null,null,null,null,null,null,null,null,null,null,null,NA,180,200,260,200,36000,52000,"[2,3]"
NA,canvas-keyboard-response,87,174688,0.0-6.0-3.13,5013,NA,NA,NA,NA,clear_screen,null,null,NA,NA,catch,sw,sh,l,180,200,195,216,231,253,spektor,null,null,null,null,null,null,null,null,null,null,null,NA,180,200,260,200,36000,52000,"[2,3]"
NA,canvas-keyboard-response,88,175439,0.0-6.0-4.13,5013,NA,NA,NA,NA,make choice,735,3,NA,NA,catch,sw,sh,l,180,200,195,216,231,253,spektor,null,null,null,null,null,null,null,null,null,null,null,NA,180,200,260,200,36000,52000,"[2,3]"
NA,canvas-keyboard-response,89,175601,0.0-6.0-5.13,5013,NA,NA,NA,NA,clear_screen,null,null,NA,NA,catch,sw,sh,l,180,200,195,216,231,253,spektor,null,null,null,null,null,null,null,null,null,null,null,NA,180,200,260,200,36000,52000,"[2,3]"
NA,canvas-keyboard-response,90,175812,0.0-6.0-0.14,5013,NA,NA,NA,NA,pre trial waiting period,null,null,NA,NA,catch,sw,l,sh,180,200,229,231,202,178,trueblood,null,null,null,null,null,null,null,null,null,null,null,NA,180,200,260,200,36000,52000,"[2,3]"
NA,canvas-keyboard-response,91,175972,0.0-6.0-1.14,5013,NA,NA,NA,NA,clear_screen,null,null,NA,NA,catch,sw,l,sh,180,200,229,231,202,178,trueblood,null,null,null,null,null,null,null,null,null,null,null,NA,180,200,260,200,36000,52000,"[2,3]"
NA,canvas-keyboard-response,92,177312,0.0-6.0-2.14,5013,NA,NA,NA,NA,rectangles,null,null,NA,NA,catch,sw,l,sh,180,200,229,231,202,178,trueblood,null,null,null,null,null,null,null,null,null,null,null,NA,180,200,260,200,36000,52000,"[2,3]"
NA,canvas-keyboard-response,93,177478,0.0-6.0-3.14,5013,NA,NA,NA,NA,clear_screen,null,null,NA,NA,catch,sw,l,sh,180,200,229,231,202,178,trueblood,null,null,null,null,null,null,null,null,null,null,null,NA,180,200,260,200,36000,52000,"[2,3]"
NA,canvas-keyboard-response,94,178046,0.0-6.0-4.14,5013,NA,NA,NA,NA,make choice,551,2,NA,NA,catch,sw,l,sh,180,200,229,231,202,178,trueblood,null,null,null,null,null,null,null,null,null,null,null,NA,180,200,260,200,36000,52000,"[2,3]"
NA,canvas-keyboard-response,95,178211,0.0-6.0-5.14,5013,NA,NA,NA,NA,clear_screen,null,null,NA,NA,catch,sw,l,sh,180,200,229,231,202,178,trueblood,null,null,null,null,null,null,null,null,null,null,null,NA,180,200,260,200,36000,52000,"[2,3]"
NA,canvas-keyboard-response,96,178424,0.0-6.0-0.15,5013,NA,NA,NA,NA,pre trial waiting period,null,null,NA,NA,critical,c,t,d,240,164,164,240,162.6685,237.1485,spektor,0.02,h,164,240,240,164,162.6685,237.1485,39360,39360,38576.5967,tc,null,null,null,null,null,null,"[2,1]"
NA,canvas-keyboard-response,97,178582,0.0-6.0-1.15,5013,NA,NA,NA,NA,clear_screen,null,null,NA,NA,critical,c,t,d,240,164,164,240,162.6685,237.1485,spektor,0.02,h,164,240,240,164,162.6685,237.1485,39360,39360,38576.5967,tc,null,null,null,null,null,null,"[2,1]"
NA,canvas-keyboard-response,98,179922,0.0-6.0-2.15,5013,NA,NA,NA,NA,rectangles,null,null,NA,NA,critical,c,t,d,240,164,164,240,162.6685,237.1485,spektor,0.02,h,164,240,240,164,162.6685,237.1485,39360,39360,38576.5967,tc,null,null,null,null,null,null,"[2,1]"
NA,canvas-keyboard-response,99,180086,0.0-6.0-3.15,5013,NA,NA,NA,NA,clear_screen,null,null,NA,NA,critical,c,t,d,240,164,164,240,162.6685,237.1485,spektor,0.02,h,164,240,240,164,162.6685,237.1485,39360,39360,38576.5967,tc,null,null,null,null,null,null,"[2,1]"
NA,canvas-keyboard-response,100,180559,0.0-6.0-4.15,5013,NA,NA,NA,NA,make choice,458,1,NA,NA,critical,c,t,d,240,164,164,240,162.6685,237.1485,spektor,0.02,h,164,240,240,164,162.6685,237.1485,39360,39360,38576.5967,tc,null,null,null,null,null,null,"[2,1]"
NA,canvas-keyboard-response,101,180721,0.0-6.0-5.15,5013,NA,NA,NA,NA,clear_screen,null,null,NA,NA,critical,c,t,d,240,164,164,240,162.6685,237.1485,spektor,0.02,h,164,240,240,164,162.6685,237.1485,39360,39360,38576.5967,tc,null,null,null,null,null,null,"[2,1]"
NA,canvas-keyboard-response,102,180931,0.0-6.0-0.16,5013,NA,NA,NA,NA,pre trial waiting period,null,null,NA,NA,critical,c,t,d,240,164,164,240,158.0083,227.1683,spektor,0.09,h,164,240,240,164,158.0083,227.1683,39360,39360,35894.4834,dc,null,null,null,null,null,null,"[3,1]"
NA,canvas-keyboard-response,103,181090,0.0-6.0-1.16,5013,NA,NA,NA,NA,clear_screen,null,null,NA,NA,critical,c,t,d,240,164,164,240,158.0083,227.1683,spektor,0.09,h,164,240,240,164,158.0083,227.1683,39360,39360,35894.4834,dc,null,null,null,null,null,null,"[3,1]"
NA,canvas-keyboard-response,104,182430,0.0-6.0-2.16,5013,NA,NA,NA,NA,rectangles,null,null,NA,NA,critical,c,t,d,240,164,164,240,158.0083,227.1683,spektor,0.09,h,164,240,240,164,158.0083,227.1683,39360,39360,35894.4834,dc,null,null,null,null,null,null,"[3,1]"
NA,canvas-keyboard-response,105,182595,0.0-6.0-3.16,5013,NA,NA,NA,NA,clear_screen,null,null,NA,NA,critical,c,t,d,240,164,164,240,158.0083,227.1683,spektor,0.09,h,164,240,240,164,158.0083,227.1683,39360,39360,35894.4834,dc,null,null,null,null,null,null,"[3,1]"
NA,canvas-keyboard-response,106,183191,0.0-6.0-4.16,5013,NA,NA,NA,NA,make choice,582,1,NA,NA,critical,c,t,d,240,164,164,240,158.0083,227.1683,spektor,0.09,h,164,240,240,164,158.0083,227.1683,39360,39360,35894.4834,dc,null,null,null,null,null,null,"[3,1]"
NA,canvas-keyboard-response,107,183354,0.0-6.0-5.16,5013,NA,NA,NA,NA,clear_screen,null,null,NA,NA,critical,c,t,d,240,164,164,240,158.0083,227.1683,spektor,0.09,h,164,240,240,164,158.0083,227.1683,39360,39360,35894.4834,dc,null,null,null,null,null,null,"[3,1]"
NA,canvas-keyboard-response,108,183565,0.0-6.0-0.17,5013,NA,NA,NA,NA,pre trial waiting period,null,null,NA,NA,critical,t,c,d,240,164,164,240,227.1683,158.0083,trueblood,0.09,w,240,164,164,240,227.1683,158.0083,39360,39360,35894.4834,td,null,null,null,null,null,null,"[1,3]"
NA,canvas-keyboard-response,109,183725,0.0-6.0-1.17,5013,NA,NA,NA,NA,clear_screen,null,null,NA,NA,critical,t,c,d,240,164,164,240,227.1683,158.0083,trueblood,0.09,w,240,164,164,240,227.1683,158.0083,39360,39360,35894.4834,td,null,null,null,null,null,null,"[1,3]"
NA,canvas-keyboard-response,110,185067,0.0-6.0-2.17,5013,NA,NA,NA,NA,rectangles,null,null,NA,NA,critical,t,c,d,240,164,164,240,227.1683,158.0083,trueblood,0.09,w,240,164,164,240,227.1683,158.0083,39360,39360,35894.4834,td,null,null,null,null,null,null,"[1,3]"
NA,canvas-keyboard-response,111,185231,0.0-6.0-3.17,5013,NA,NA,NA,NA,clear_screen,null,null,NA,NA,critical,t,c,d,240,164,164,240,227.1683,158.0083,trueblood,0.09,w,240,164,164,240,227.1683,158.0083,39360,39360,35894.4834,td,null,null,null,null,null,null,"[1,3]"
NA,canvas-keyboard-response,112,186382,0.0-6.0-4.17,5013,NA,NA,NA,NA,make choice,1138,1,NA,NA,critical,t,c,d,240,164,164,240,227.1683,158.0083,trueblood,0.09,w,240,164,164,240,227.1683,158.0083,39360,39360,35894.4834,td,null,null,null,null,null,null,"[1,3]"
NA,canvas-keyboard-response,113,186546,0.0-6.0-5.17,5013,NA,NA,NA,NA,clear_screen,null,null,NA,NA,critical,t,c,d,240,164,164,240,227.1683,158.0083,trueblood,0.09,w,240,164,164,240,227.1683,158.0083,39360,39360,35894.4834,td,null,null,null,null,null,null,"[1,3]"
NA,canvas-keyboard-response,114,186756,0.0-6.0-0.18,5013,NA,NA,NA,NA,pre trial waiting period,null,null,NA,NA,critical,t,c,d,240,164,164,240,232.8713,160.6713,trueblood,0.05,w,240,164,164,240,232.8713,160.6713,39360,39360,37415.7294,dc,null,null,null,null,null,null,"[3,2]"
NA,canvas-keyboard-response,115,186916,0.0-6.0-1.18,5013,NA,NA,NA,NA,clear_screen,null,null,NA,NA,critical,t,c,d,240,164,164,240,232.8713,160.6713,trueblood,0.05,w,240,164,164,240,232.8713,160.6713,39360,39360,37415.7294,dc,null,null,null,null,null,null,"[3,2]"
NA,canvas-keyboard-response,116,188257,0.0-6.0-2.18,5013,NA,NA,NA,NA,rectangles,null,null,NA,NA,critical,t,c,d,240,164,164,240,232.8713,160.6713,trueblood,0.05,w,240,164,164,240,232.8713,160.6713,39360,39360,37415.7294,dc,null,null,null,null,null,null,"[3,2]"
NA,canvas-keyboard-response,117,188422,0.0-6.0-3.18,5013,NA,NA,NA,NA,clear_screen,null,null,NA,NA,critical,t,c,d,240,164,164,240,232.8713,160.6713,trueblood,0.05,w,240,164,164,240,232.8713,160.6713,39360,39360,37415.7294,dc,null,null,null,null,null,null,"[3,2]"
NA,canvas-keyboard-response,118,189126,0.0-6.0-4.18,5013,NA,NA,NA,NA,make choice,688,2,NA,NA,critical,t,c,d,240,164,164,240,232.8713,160.6713,trueblood,0.05,w,240,164,164,240,232.8713,160.6713,39360,39360,37415.7294,dc,null,null,null,null,null,null,"[3,2]"
NA,canvas-keyboard-response,119,189283,0.0-6.0-5.18,5013,NA,NA,NA,NA,clear_screen,null,null,NA,NA,critical,t,c,d,240,164,164,240,232.8713,160.6713,trueblood,0.05,w,240,164,164,240,232.8713,160.6713,39360,39360,37415.7294,dc,null,null,null,null,null,null,"[3,2]"
NA,canvas-keyboard-response,120,189493,0.0-6.0-0.19,5013,NA,NA,NA,NA,pre trial waiting period,null,null,NA,NA,critical,d,t,c,240,164,240,164,164,240,spektor,0,w,240,164,164,240,240,164,39360,39360,39360,tc,null,null,null,null,null,null,"[2,3]"
NA,canvas-keyboard-response,121,189651,0.0-6.0-1.19,5013,NA,NA,NA,NA,clear_screen,null,null,NA,NA,critical,d,t,c,240,164,240,164,164,240,spektor,0,w,240,164,164,240,240,164,39360,39360,39360,tc,null,null,null,null,null,null,"[2,3]"
NA,canvas-keyboard-response,122,190994,0.0-6.0-2.19,5013,NA,NA,NA,NA,rectangles,null,null,NA,NA,critical,d,t,c,240,164,240,164,164,240,spektor,0,w,240,164,164,240,240,164,39360,39360,39360,tc,null,null,null,null,null,null,"[2,3]"
NA,canvas-keyboard-response,123,191158,0.0-6.0-3.19,5013,NA,NA,NA,NA,clear_screen,null,null,NA,NA,critical,d,t,c,240,164,240,164,164,240,spektor,0,w,240,164,164,240,240,164,39360,39360,39360,tc,null,null,null,null,null,null,"[2,3]"
NA,canvas-keyboard-response,124,191783,0.0-6.0-4.19,5013,NA,NA,NA,NA,make choice,614,3,NA,NA,critical,d,t,c,240,164,240,164,164,240,spektor,0,w,240,164,164,240,240,164,39360,39360,39360,tc,null,null,null,null,null,null,"[2,3]"
NA,canvas-keyboard-response,125,191948,0.0-6.0-5.19,5013,NA,NA,NA,NA,clear_screen,null,null,NA,NA,critical,d,t,c,240,164,240,164,164,240,spektor,0,w,240,164,164,240,240,164,39360,39360,39360,tc,null,null,null,null,null,null,"[2,3]"
NA,canvas-keyboard-response,126,192161,0.0-6.0-0.20,5013,NA,NA,NA,NA,pre trial waiting period,null,null,NA,NA,critical,c,d,t,240,164,160.6713,232.8713,164,240,spektor,0.05,h,164,240,240,164,160.6713,232.8713,39360,39360,37415.7294,dc,null,null,null,null,null,null,"[2,1]"
NA,canvas-keyboard-response,127,192319,0.0-6.0-1.20,5013,NA,NA,NA,NA,clear_screen,null,null,NA,NA,critical,c,d,t,240,164,160.6713,232.8713,164,240,spektor,0.05,h,164,240,240,164,160.6713,232.8713,39360,39360,37415.7294,dc,null,null,null,null,null,null,"[2,1]"
NA,canvas-keyboard-response,128,193665,0.0-6.0-2.20,5013,NA,NA,NA,NA,rectangles,null,null,NA,NA,critical,c,d,t,240,164,160.6713,232.8713,164,240,spektor,0.05,h,164,240,240,164,160.6713,232.8713,39360,39360,37415.7294,dc,null,null,null,null,null,null,"[2,1]"
NA,canvas-keyboard-response,129,193829,0.0-6.0-3.20,5013,NA,NA,NA,NA,clear_screen,null,null,NA,NA,critical,c,d,t,240,164,160.6713,232.8713,164,240,spektor,0.05,h,164,240,240,164,160.6713,232.8713,39360,39360,37415.7294,dc,null,null,null,null,null,null,"[2,1]"
NA,canvas-keyboard-response,130,194374,0.0-6.0-4.20,5013,NA,NA,NA,NA,make choice,529,1,NA,NA,critical,c,d,t,240,164,160.6713,232.8713,164,240,spektor,0.05,h,164,240,240,164,160.6713,232.8713,39360,39360,37415.7294,dc,null,null,null,null,null,null,"[2,1]"
NA,canvas-keyboard-response,131,194537,0.0-6.0-5.20,5013,NA,NA,NA,NA,clear_screen,null,null,NA,NA,critical,c,d,t,240,164,160.6713,232.8713,164,240,spektor,0.05,h,164,240,240,164,160.6713,232.8713,39360,39360,37415.7294,dc,null,null,null,null,null,null,"[2,1]"
NA,canvas-keyboard-response,132,194747,0.0-6.0-0.21,5013,NA,NA,NA,NA,pre trial waiting period,null,null,NA,NA,critical,t,c,d,240,164,164,240,227.1683,158.0083,spektor,0.09,w,240,164,164,240,227.1683,158.0083,39360,39360,35894.4834,dc,null,null,null,null,null,null,"[3,2]"
NA,canvas-keyboard-response,133,194908,0.0-6.0-1.21,5013,NA,NA,NA,NA,clear_screen,null,null,NA,NA,critical,t,c,d,240,164,164,240,227.1683,158.0083,spektor,0.09,w,240,164,164,240,227.1683,158.0083,39360,39360,35894.4834,dc,null,null,null,null,null,null,"[3,2]"
NA,canvas-keyboard-response,134,196249,0.0-6.0-2.21,5013,NA,NA,NA,NA,rectangles,null,null,NA,NA,critical,t,c,d,240,164,164,240,227.1683,158.0083,spektor,0.09,w,240,164,164,240,227.1683,158.0083,39360,39360,35894.4834,dc,null,null,null,null,null,null,"[3,2]"
NA,canvas-keyboard-response,135,196416,0.0-6.0-3.21,5013,NA,NA,NA,NA,clear_screen,null,null,NA,NA,critical,t,c,d,240,164,164,240,227.1683,158.0083,spektor,0.09,w,240,164,164,240,227.1683,158.0083,39360,39360,35894.4834,dc,null,null,null,null,null,null,"[3,2]"
NA,canvas-keyboard-response,136,197189,0.0-6.0-4.21,5013,NA,NA,NA,NA,make choice,760,2,NA,NA,critical,t,c,d,240,164,164,240,227.1683,158.0083,spektor,0.09,w,240,164,164,240,227.1683,158.0083,39360,39360,35894.4834,dc,null,null,null,null,null,null,"[3,2]"
NA,canvas-keyboard-response,137,197347,0.0-6.0-5.21,5013,NA,NA,NA,NA,clear_screen,null,null,NA,NA,critical,t,c,d,240,164,164,240,227.1683,158.0083,spektor,0.09,w,240,164,164,240,227.1683,158.0083,39360,39360,35894.4834,dc,null,null,null,null,null,null,"[3,2]"
NA,canvas-keyboard-response,138,197562,0.0-6.0-0.22,5013,NA,NA,NA,NA,pre trial waiting period,null,null,NA,NA,critical,c,d,t,164,240,240,164,240,164,trueblood,0,w,240,164,164,240,240,164,39360,39360,39360,dc,null,null,null,null,null,null,"[2,1]"
NA,canvas-keyboard-response,139,197723,0.0-6.0-1.22,5013,NA,NA,NA,NA,clear_screen,null,null,NA,NA,critical,c,d,t,164,240,240,164,240,164,trueblood,0,w,240,164,164,240,240,164,39360,39360,39360,dc,null,null,null,null,null,null,"[2,1]"
NA,canvas-keyboard-response,140,199064,0.0-6.0-2.22,5013,NA,NA,NA,NA,rectangles,null,null,NA,NA,critical,c,d,t,164,240,240,164,240,164,trueblood,0,w,240,164,164,240,240,164,39360,39360,39360,dc,null,null,null,null,null,null,"[2,1]"
NA,canvas-keyboard-response,141,199231,0.0-6.0-3.22,5013,NA,NA,NA,NA,clear_screen,null,null,NA,NA,critical,c,d,t,164,240,240,164,240,164,trueblood,0,w,240,164,164,240,240,164,39360,39360,39360,dc,null,null,null,null,null,null,"[2,1]"
NA,canvas-keyboard-response,142,199782,0.0-6.0-4.22,5013,NA,NA,NA,NA,make choice,538,1,NA,NA,critical,c,d,t,164,240,240,164,240,164,trueblood,0,w,240,164,164,240,240,164,39360,39360,39360,dc,null,null,null,null,null,null,"[2,1]"
NA,canvas-keyboard-response,143,199949,0.0-6.0-5.22,5013,NA,NA,NA,NA,clear_screen,null,null,NA,NA,critical,c,d,t,164,240,240,164,240,164,trueblood,0,w,240,164,164,240,240,164,39360,39360,39360,dc,null,null,null,null,null,null,"[2,1]"
NA,canvas-keyboard-response,144,200162,0.0-6.0-0.23,5013,NA,NA,NA,NA,pre trial waiting period,null,null,NA,NA,catch,sh,l,sw,207,211,262,178,218,171,trueblood,null,null,null,null,null,null,null,null,null,null,null,NA,180,200,260,200,36000,52000,"[1,2]"
NA,canvas-keyboard-response,145,200317,0.0-6.0-1.23,5013,NA,NA,NA,NA,clear_screen,null,null,NA,NA,catch,sh,l,sw,207,211,262,178,218,171,trueblood,null,null,null,null,null,null,null,null,null,null,null,NA,180,200,260,200,36000,52000,"[1,2]"
NA,canvas-keyboard-response,146,201660,0.0-6.0-2.23,5013,NA,NA,NA,NA,rectangles,null,null,NA,NA,catch,sh,l,sw,207,211,262,178,218,171,trueblood,null,null,null,null,null,null,null,null,null,null,null,NA,180,200,260,200,36000,52000,"[1,2]"
NA,canvas-keyboard-response,147,201825,0.0-6.0-3.23,5013,NA,NA,NA,NA,clear_screen,null,null,NA,NA,catch,sh,l,sw,207,211,262,178,218,171,trueblood,null,null,null,null,null,null,null,null,null,null,null,NA,180,200,260,200,36000,52000,"[1,2]"
NA,canvas-keyboard-response,148,202439,0.0-6.0-4.23,5013,NA,NA,NA,NA,make choice,597,2,NA,NA,catch,sh,l,sw,207,211,262,178,218,171,trueblood,null,null,null,null,null,null,null,null,null,null,null,NA,180,200,260,200,36000,52000,"[1,2]"
NA,canvas-keyboard-response,149,202605,0.0-6.0-5.23,5013,NA,NA,NA,NA,clear_screen,null,null,NA,NA,catch,sh,l,sw,207,211,262,178,218,171,trueblood,null,null,null,null,null,null,null,null,null,null,null,NA,180,200,260,200,36000,52000,"[1,2]"
NA,canvas-keyboard-response,150,202817,0.0-6.0-0.24,5013,NA,NA,NA,NA,pre trial waiting period,null,null,NA,NA,critical,c,t,d,240,164,164,240,160.6713,232.8713,spektor,0.05,h,164,240,240,164,160.6713,232.8713,39360,39360,37415.7294,td,null,null,null,null,null,null,"[2,3]"
NA,canvas-keyboard-response,151,202976,0.0-6.0-1.24,5013,NA,NA,NA,NA,clear_screen,null,null,NA,NA,critical,c,t,d,240,164,164,240,160.6713,232.8713,spektor,0.05,h,164,240,240,164,160.6713,232.8713,39360,39360,37415.7294,td,null,null,null,null,null,null,"[2,3]"
NA,canvas-keyboard-response,152,204318,0.0-6.0-2.24,5013,NA,NA,NA,NA,rectangles,null,null,NA,NA,critical,c,t,d,240,164,164,240,160.6713,232.8713,spektor,0.05,h,164,240,240,164,160.6713,232.8713,39360,39360,37415.7294,td,null,null,null,null,null,null,"[2,3]"
NA,canvas-keyboard-response,153,204484,0.0-6.0-3.24,5013,NA,NA,NA,NA,clear_screen,null,null,NA,NA,critical,c,t,d,240,164,164,240,160.6713,232.8713,spektor,0.05,h,164,240,240,164,160.6713,232.8713,39360,39360,37415.7294,td,null,null,null,null,null,null,"[2,3]"
NA,canvas-keyboard-response,154,205254,0.0-6.0-4.24,5013,NA,NA,NA,NA,make choice,750,2,NA,NA,critical,c,t,d,240,164,164,240,160.6713,232.8713,spektor,0.05,h,164,240,240,164,160.6713,232.8713,39360,39360,37415.7294,td,null,null,null,null,null,null,"[2,3]"
NA,canvas-keyboard-response,155,205419,0.0-6.0-5.24,5013,NA,NA,NA,NA,clear_screen,null,null,NA,NA,critical,c,t,d,240,164,164,240,160.6713,232.8713,spektor,0.05,h,164,240,240,164,160.6713,232.8713,39360,39360,37415.7294,td,null,null,null,null,null,null,"[2,3]"
NA,canvas-keyboard-response,156,205634,0.0-6.0-0.25,5013,NA,NA,NA,NA,pre trial waiting period,null,null,NA,NA,critical,t,d,c,164,240,160.6713,232.8713,240,164,trueblood,0.05,h,164,240,240,164,160.6713,232.8713,39360,39360,37415.7294,dc,null,null,null,null,null,null,"[2,3]"
NA,canvas-keyboard-response,157,205795,0.0-6.0-1.25,5013,NA,NA,NA,NA,clear_screen,null,null,NA,NA,critical,t,d,c,164,240,160.6713,232.8713,240,164,trueblood,0.05,h,164,240,240,164,160.6713,232.8713,39360,39360,37415.7294,dc,null,null,null,null,null,null,"[2,3]"
NA,canvas-keyboard-response,158,207136,0.0-6.0-2.25,5013,NA,NA,NA,NA,rectangles,null,null,NA,NA,critical,t,d,c,164,240,160.6713,232.8713,240,164,trueblood,0.05,h,164,240,240,164,160.6713,232.8713,39360,39360,37415.7294,dc,null,null,null,null,null,null,"[2,3]"
NA,canvas-keyboard-response,159,207303,0.0-6.0-3.25,5013,NA,NA,NA,NA,clear_screen,null,null,NA,NA,critical,t,d,c,164,240,160.6713,232.8713,240,164,trueblood,0.05,h,164,240,240,164,160.6713,232.8713,39360,39360,37415.7294,dc,null,null,null,null,null,null,"[2,3]"
NA,canvas-keyboard-response,160,209800,0.0-6.0-4.25,5013,NA,NA,NA,NA,make choice,2480,3,NA,NA,critical,t,d,c,164,240,160.6713,232.8713,240,164,trueblood,0.05,h,164,240,240,164,160.6713,232.8713,39360,39360,37415.7294,dc,null,null,null,null,null,null,"[2,3]"
NA,canvas-keyboard-response,161,209976,0.0-6.0-5.25,5013,NA,NA,NA,NA,clear_screen,null,null,NA,NA,critical,t,d,c,164,240,160.6713,232.8713,240,164,trueblood,0.05,h,164,240,240,164,160.6713,232.8713,39360,39360,37415.7294,dc,null,null,null,null,null,null,"[2,3]"
NA,canvas-keyboard-response,162,210196,0.0-6.0-0.26,5013,NA,NA,NA,NA,pre trial waiting period,null,null,NA,NA,critical,d,c,t,237.1485,162.6685,164,240,240,164,trueblood,0.02,w,240,164,164,240,237.1485,162.6685,39360,39360,38576.5967,td,null,null,null,null,null,null,"[3,1]"
NA,canvas-keyboard-response,163,210360,0.0-6.0-1.26,5013,NA,NA,NA,NA,clear_screen,null,null,NA,NA,critical,d,c,t,237.1485,162.6685,164,240,240,164,trueblood,0.02,w,240,164,164,240,237.1485,162.6685,39360,39360,38576.5967,td,null,null,null,null,null,null,"[3,1]"
NA,canvas-keyboard-response,164,211710,0.0-6.0-2.26,5013,NA,NA,NA,NA,rectangles,null,null,NA,NA,critical,d,c,t,237.1485,162.6685,164,240,240,164,trueblood,0.02,w,240,164,164,240,237.1485,162.6685,39360,39360,38576.5967,td,null,null,null,null,null,null,"[3,1]"
NA,canvas-keyboard-response,165,211878,0.0-6.0-3.26,5013,NA,NA,NA,NA,clear_screen,null,null,NA,NA,critical,d,c,t,237.1485,162.6685,164,240,240,164,trueblood,0.02,w,240,164,164,240,237.1485,162.6685,39360,39360,38576.5967,td,null,null,null,null,null,null,"[3,1]"
NA,canvas-keyboard-response,166,213246,0.0-6.0-4.26,5013,NA,NA,NA,NA,make choice,1353,1,NA,NA,critical,d,c,t,237.1485,162.6685,164,240,240,164,trueblood,0.02,w,240,164,164,240,237.1485,162.6685,39360,39360,38576.5967,td,null,null,null,null,null,null,"[3,1]"
NA,canvas-keyboard-response,167,213412,0.0-6.0-5.26,5013,NA,NA,NA,NA,clear_screen,null,null,NA,NA,critical,d,c,t,237.1485,162.6685,164,240,240,164,trueblood,0.02,w,240,164,164,240,237.1485,162.6685,39360,39360,38576.5967,td,null,null,null,null,null,null,"[3,1]"
NA,canvas-keyboard-response,168,213626,0.0-6.0-0.27,5013,NA,NA,NA,NA,pre trial waiting period,null,null,NA,NA,critical,d,t,c,232.8713,160.6713,240,164,164,240,spektor,0.05,w,240,164,164,240,232.8713,160.6713,39360,39360,37415.7294,td,null,null,null,null,null,null,"[2,1]"
NA,canvas-keyboard-response,169,213781,0.0-6.0-1.27,5013,NA,NA,NA,NA,clear_screen,null,null,NA,NA,critical,d,t,c,232.8713,160.6713,240,164,164,240,spektor,0.05,w,240,164,164,240,232.8713,160.6713,39360,39360,37415.7294,td,null,null,null,null,null,null,"[2,1]"
NA,canvas-keyboard-response,170,215124,0.0-6.0-2.27,5013,NA,NA,NA,NA,rectangles,null,null,NA,NA,critical,d,t,c,232.8713,160.6713,240,164,164,240,spektor,0.05,w,240,164,164,240,232.8713,160.6713,39360,39360,37415.7294,td,null,null,null,null,null,null,"[2,1]"
NA,canvas-keyboard-response,171,215293,0.0-6.0-3.27,5013,NA,NA,NA,NA,clear_screen,null,null,NA,NA,critical,d,t,c,232.8713,160.6713,240,164,164,240,spektor,0.05,w,240,164,164,240,232.8713,160.6713,39360,39360,37415.7294,td,null,null,null,null,null,null,"[2,1]"
NA,canvas-keyboard-response,172,216303,0.0-6.0-4.27,5013,NA,NA,NA,NA,make choice,992,1,NA,NA,critical,d,t,c,232.8713,160.6713,240,164,164,240,spektor,0.05,w,240,164,164,240,232.8713,160.6713,39360,39360,37415.7294,td,null,null,null,null,null,null,"[2,1]"
NA,canvas-keyboard-response,173,216468,0.0-6.0-5.27,5013,NA,NA,NA,NA,clear_screen,null,null,NA,NA,critical,d,t,c,232.8713,160.6713,240,164,164,240,spektor,0.05,w,240,164,164,240,232.8713,160.6713,39360,39360,37415.7294,td,null,null,null,null,null,null,"[2,1]"
NA,canvas-keyboard-response,174,216683,0.0-6.0-0.28,5013,NA,NA,NA,NA,pre trial waiting period,null,null,NA,NA,critical,d,c,t,162.6685,237.1485,240,164,164,240,spektor,0.02,h,164,240,240,164,162.6685,237.1485,39360,39360,38576.5967,td,null,null,null,null,null,null,"[3,1]"
NA,canvas-keyboard-response,175,216843,0.0-6.0-1.28,5013,NA,NA,NA,NA,clear_screen,null,null,NA,NA,critical,d,c,t,162.6685,237.1485,240,164,164,240,spektor,0.02,h,164,240,240,164,162.6685,237.1485,39360,39360,38576.5967,td,null,null,null,null,null,null,"[3,1]"
NA,canvas-keyboard-response,176,218185,0.0-6.0-2.28,5013,NA,NA,NA,NA,rectangles,null,null,NA,NA,critical,d,c,t,162.6685,237.1485,240,164,164,240,spektor,0.02,h,164,240,240,164,162.6685,237.1485,39360,39360,38576.5967,td,null,null,null,null,null,null,"[3,1]"
NA,canvas-keyboard-response,177,218354,0.0-6.0-3.28,5013,NA,NA,NA,NA,clear_screen,null,null,NA,NA,critical,d,c,t,162.6685,237.1485,240,164,164,240,spektor,0.02,h,164,240,240,164,162.6685,237.1485,39360,39360,38576.5967,td,null,null,null,null,null,null,"[3,1]"
NA,canvas-keyboard-response,178,219159,0.0-6.0-4.28,5013,NA,NA,NA,NA,make choice,789,1,NA,NA,critical,d,c,t,162.6685,237.1485,240,164,164,240,spektor,0.02,h,164,240,240,164,162.6685,237.1485,39360,39360,38576.5967,td,null,null,null,null,null,null,"[3,1]"
NA,canvas-keyboard-response,179,219323,0.0-6.0-5.28,5013,NA,NA,NA,NA,clear_screen,null,null,NA,NA,critical,d,c,t,162.6685,237.1485,240,164,164,240,spektor,0.02,h,164,240,240,164,162.6685,237.1485,39360,39360,38576.5967,td,null,null,null,null,null,null,"[3,1]"
NA,canvas-keyboard-response,180,219537,0.0-6.0-0.29,5013,NA,NA,NA,NA,pre trial waiting period,null,null,NA,NA,catch,sh,sw,l,167,178,169,164,220,179,spektor,null,null,null,null,null,null,null,null,null,null,null,NA,180,200,260,200,36000,52000,"[1,3]"
NA,canvas-keyboard-response,181,219700,0.0-6.0-1.29,5013,NA,NA,NA,NA,clear_screen,null,null,NA,NA,catch,sh,sw,l,167,178,169,164,220,179,spektor,null,null,null,null,null,null,null,null,null,null,null,NA,180,200,260,200,36000,52000,"[1,3]"
NA,canvas-keyboard-response,182,221041,0.0-6.0-2.29,5013,NA,NA,NA,NA,rectangles,null,null,NA,NA,catch,sh,sw,l,167,178,169,164,220,179,spektor,null,null,null,null,null,null,null,null,null,null,null,NA,180,200,260,200,36000,52000,"[1,3]"
NA,canvas-keyboard-response,183,221207,0.0-6.0-3.29,5013,NA,NA,NA,NA,clear_screen,null,null,NA,NA,catch,sh,sw,l,167,178,169,164,220,179,spektor,null,null,null,null,null,null,null,null,null,null,null,NA,180,200,260,200,36000,52000,"[1,3]"
NA,canvas-keyboard-response,184,222295,0.0-6.0-4.29,5013,NA,NA,NA,NA,make choice,1076,3,NA,NA,catch,sh,sw,l,167,178,169,164,220,179,spektor,null,null,null,null,null,null,null,null,null,null,null,NA,180,200,260,200,36000,52000,"[1,3]"
NA,canvas-keyboard-response,185,222460,0.0-6.0-5.29,5013,NA,NA,NA,NA,clear_screen,null,null,NA,NA,catch,sh,sw,l,167,178,169,164,220,179,spektor,null,null,null,null,null,null,null,null,null,null,null,NA,180,200,260,200,36000,52000,"[1,3]"
NA,canvas-keyboard-response,186,222675,0.0-6.0-0.30,5013,NA,NA,NA,NA,pre trial waiting period,null,null,NA,NA,critical,c,d,t,240,164,164,240,164,240,spektor,0,h,164,240,240,164,164,240,39360,39360,39360,tc,null,null,null,null,null,null,"[3,1]"
NA,canvas-keyboard-response,187,222834,0.0-6.0-1.30,5013,NA,NA,NA,NA,clear_screen,null,null,NA,NA,critical,c,d,t,240,164,164,240,164,240,spektor,0,h,164,240,240,164,164,240,39360,39360,39360,tc,null,null,null,null,null,null,"[3,1]"
NA,canvas-keyboard-response,188,224177,0.0-6.0-2.30,5013,NA,NA,NA,NA,rectangles,null,null,NA,NA,critical,c,d,t,240,164,164,240,164,240,spektor,0,h,164,240,240,164,164,240,39360,39360,39360,tc,null,null,null,null,null,null,"[3,1]"
NA,canvas-keyboard-response,189,224345,0.0-6.0-3.30,5013,NA,NA,NA,NA,clear_screen,null,null,NA,NA,critical,c,d,t,240,164,164,240,164,240,spektor,0,h,164,240,240,164,164,240,39360,39360,39360,tc,null,null,null,null,null,null,"[3,1]"
NA,canvas-keyboard-response,190,225063,0.0-6.0-4.30,5013,NA,NA,NA,NA,make choice,702,1,NA,NA,critical,c,d,t,240,164,164,240,164,240,spektor,0,h,164,240,240,164,164,240,39360,39360,39360,tc,null,null,null,null,null,null,"[3,1]"
NA,canvas-keyboard-response,191,225228,0.0-6.0-5.30,5013,NA,NA,NA,NA,clear_screen,null,null,NA,NA,critical,c,d,t,240,164,164,240,164,240,spektor,0,h,164,240,240,164,164,240,39360,39360,39360,tc,null,null,null,null,null,null,"[3,1]"
NA,canvas-keyboard-response,192,225446,0.0-6.0-0.31,5013,NA,NA,NA,NA,pre trial waiting period,null,null,NA,NA,critical,c,d,t,240,164,162.6685,237.1485,164,240,trueblood,0.02,h,164,240,240,164,162.6685,237.1485,39360,39360,38576.5967,td,null,null,null,null,null,null,"[3,2]"
NA,canvas-keyboard-response,193,225605,0.0-6.0-1.31,5013,NA,NA,NA,NA,clear_screen,null,null,NA,NA,critical,c,d,t,240,164,162.6685,237.1485,164,240,trueblood,0.02,h,164,240,240,164,162.6685,237.1485,39360,39360,38576.5967,td,null,null,null,null,null,null,"[3,2]"
NA,canvas-keyboard-response,194,226948,0.0-6.0-2.31,5013,NA,NA,NA,NA,rectangles,null,null,NA,NA,critical,c,d,t,240,164,162.6685,237.1485,164,240,trueblood,0.02,h,164,240,240,164,162.6685,237.1485,39360,39360,38576.5967,td,null,null,null,null,null,null,"[3,2]"
NA,canvas-keyboard-response,195,227117,0.0-6.0-3.31,5013,NA,NA,NA,NA,clear_screen,null,null,NA,NA,critical,c,d,t,240,164,162.6685,237.1485,164,240,trueblood,0.02,h,164,240,240,164,162.6685,237.1485,39360,39360,38576.5967,td,null,null,null,null,null,null,"[3,2]"
NA,canvas-keyboard-response,196,227966,0.0-6.0-4.31,5013,NA,NA,NA,NA,make choice,829,2,NA,NA,critical,c,d,t,240,164,162.6685,237.1485,164,240,trueblood,0.02,h,164,240,240,164,162.6685,237.1485,39360,39360,38576.5967,td,null,null,null,null,null,null,"[3,2]"
NA,canvas-keyboard-response,197,228135,0.0-6.0-5.31,5013,NA,NA,NA,NA,clear_screen,null,null,NA,NA,critical,c,d,t,240,164,162.6685,237.1485,164,240,trueblood,0.02,h,164,240,240,164,162.6685,237.1485,39360,39360,38576.5967,td,null,null,null,null,null,null,"[3,2]"
NA,canvas-keyboard-response,198,228351,0.0-6.0-0.32,5013,NA,NA,NA,NA,pre trial waiting period,null,null,NA,NA,catch,sw,sh,l,180,200,222,156,259,198,spektor,null,null,null,null,null,null,null,null,null,null,null,NA,180,200,260,200,36000,52000,"[1,3]"
NA,canvas-keyboard-response,199,228511,0.0-6.0-1.32,5013,NA,NA,NA,NA,clear_screen,null,null,NA,NA,catch,sw,sh,l,180,200,222,156,259,198,spektor,null,null,null,null,null,null,null,null,null,null,null,NA,180,200,260,200,36000,52000,"[1,3]"
NA,canvas-keyboard-response,200,229856,0.0-6.0-2.32,5013,NA,NA,NA,NA,rectangles,null,null,NA,NA,catch,sw,sh,l,180,200,222,156,259,198,spektor,null,null,null,null,null,null,null,null,null,null,null,NA,180,200,260,200,36000,52000,"[1,3]"
NA,canvas-keyboard-response,201,230024,0.0-6.0-3.32,5013,NA,NA,NA,NA,clear_screen,null,null,NA,NA,catch,sw,sh,l,180,200,222,156,259,198,spektor,null,null,null,null,null,null,null,null,null,null,null,NA,180,200,260,200,36000,52000,"[1,3]"
NA,canvas-keyboard-response,202,230462,0.0-6.0-4.32,5013,NA,NA,NA,NA,make choice,421,3,NA,NA,catch,sw,sh,l,180,200,222,156,259,198,spektor,null,null,null,null,null,null,null,null,null,null,null,NA,180,200,260,200,36000,52000,"[1,3]"
NA,canvas-keyboard-response,203,230629,0.0-6.0-5.32,5013,NA,NA,NA,NA,clear_screen,null,null,NA,NA,catch,sw,sh,l,180,200,222,156,259,198,spektor,null,null,null,null,null,null,null,null,null,null,null,NA,180,200,260,200,36000,52000,"[1,3]"
NA,canvas-keyboard-response,204,230843,0.0-6.0-0.33,5013,NA,NA,NA,NA,pre trial waiting period,null,null,NA,NA,critical,d,t,c,164,240,164,240,240,164,trueblood,0,h,164,240,240,164,164,240,39360,39360,39360,dc,null,null,null,null,null,null,"[1,3]"
NA,canvas-keyboard-response,205,231001,0.0-6.0-1.33,5013,NA,NA,NA,NA,clear_screen,null,null,NA,NA,critical,d,t,c,164,240,164,240,240,164,trueblood,0,h,164,240,240,164,164,240,39360,39360,39360,dc,null,null,null,null,null,null,"[1,3]"
NA,canvas-keyboard-response,206,232344,0.0-6.0-2.33,5013,NA,NA,NA,NA,rectangles,null,null,NA,NA,critical,d,t,c,164,240,164,240,240,164,trueblood,0,h,164,240,240,164,164,240,39360,39360,39360,dc,null,null,null,null,null,null,"[1,3]"
NA,canvas-keyboard-response,207,232510,0.0-6.0-3.33,5013,NA,NA,NA,NA,clear_screen,null,null,NA,NA,critical,d,t,c,164,240,164,240,240,164,trueblood,0,h,164,240,240,164,164,240,39360,39360,39360,dc,null,null,null,null,null,null,"[1,3]"
NA,canvas-keyboard-response,208,233166,0.0-6.0-4.33,5013,NA,NA,NA,NA,make choice,636,3,NA,NA,critical,d,t,c,164,240,164,240,240,164,trueblood,0,h,164,240,240,164,164,240,39360,39360,39360,dc,null,null,null,null,null,null,"[1,3]"
NA,canvas-keyboard-response,209,233333,0.0-6.0-5.33,5013,NA,NA,NA,NA,clear_screen,null,null,NA,NA,critical,d,t,c,164,240,164,240,240,164,trueblood,0,h,164,240,240,164,164,240,39360,39360,39360,dc,null,null,null,null,null,null,"[1,3]"
NA,canvas-keyboard-response,210,233548,0.0-6.0-0.34,5013,NA,NA,NA,NA,pre trial waiting period,null,null,NA,NA,critical,t,c,d,164,240,240,164,154.6796,220.0396,trueblood,0.14,h,164,240,240,164,154.6796,220.0396,39360,39360,34035.6388,dc,null,null,null,null,null,null,"[3,2]"
NA,canvas-keyboard-response,211,233709,0.0-6.0-1.34,5013,NA,NA,NA,NA,clear_screen,null,null,NA,NA,critical,t,c,d,164,240,240,164,154.6796,220.0396,trueblood,0.14,h,164,240,240,164,154.6796,220.0396,39360,39360,34035.6388,dc,null,null,null,null,null,null,"[3,2]"
NA,canvas-keyboard-response,212,235053,0.0-6.0-2.34,5013,NA,NA,NA,NA,rectangles,null,null,NA,NA,critical,t,c,d,164,240,240,164,154.6796,220.0396,trueblood,0.14,h,164,240,240,164,154.6796,220.0396,39360,39360,34035.6388,dc,null,null,null,null,null,null,"[3,2]"
NA,canvas-keyboard-response,213,235221,0.0-6.0-3.34,5013,NA,NA,NA,NA,clear_screen,null,null,NA,NA,critical,t,c,d,164,240,240,164,154.6796,220.0396,trueblood,0.14,h,164,240,240,164,154.6796,220.0396,39360,39360,34035.6388,dc,null,null,null,null,null,null,"[3,2]"
NA,canvas-keyboard-response,214,236087,0.0-6.0-4.34,5013,NA,NA,NA,NA,make choice,847,2,NA,NA,critical,t,c,d,164,240,240,164,154.6796,220.0396,trueblood,0.14,h,164,240,240,164,154.6796,220.0396,39360,39360,34035.6388,dc,null,null,null,null,null,null,"[3,2]"
NA,canvas-keyboard-response,215,236254,0.0-6.0-5.34,5013,NA,NA,NA,NA,clear_screen,null,null,NA,NA,critical,t,c,d,164,240,240,164,154.6796,220.0396,trueblood,0.14,h,164,240,240,164,154.6796,220.0396,39360,39360,34035.6388,dc,null,null,null,null,null,null,"[3,2]"
NA,canvas-keyboard-response,216,236468,0.0-6.0-0.35,5013,NA,NA,NA,NA,pre trial waiting period,null,null,NA,NA,critical,d,t,c,154.6796,220.0396,164,240,240,164,spektor,0.14,h,164,240,240,164,154.6796,220.0396,39360,39360,34035.6388,dc,null,null,null,null,null,null,"[1,3]"
NA,canvas-keyboard-response,217,236621,0.0-6.0-1.35,5013,NA,NA,NA,NA,clear_screen,null,null,NA,NA,critical,d,t,c,154.6796,220.0396,164,240,240,164,spektor,0.14,h,164,240,240,164,154.6796,220.0396,39360,39360,34035.6388,dc,null,null,null,null,null,null,"[1,3]"
NA,canvas-keyboard-response,218,237964,0.0-6.0-2.35,5013,NA,NA,NA,NA,rectangles,null,null,NA,NA,critical,d,t,c,154.6796,220.0396,164,240,240,164,spektor,0.14,h,164,240,240,164,154.6796,220.0396,39360,39360,34035.6388,dc,null,null,null,null,null,null,"[1,3]"
NA,canvas-keyboard-response,219,238130,0.0-6.0-3.35,5013,NA,NA,NA,NA,clear_screen,null,null,NA,NA,critical,d,t,c,154.6796,220.0396,164,240,240,164,spektor,0.14,h,164,240,240,164,154.6796,220.0396,39360,39360,34035.6388,dc,null,null,null,null,null,null,"[1,3]"
NA,canvas-keyboard-response,220,238637,0.0-6.0-4.35,5013,NA,NA,NA,NA,make choice,486,3,NA,NA,critical,d,t,c,154.6796,220.0396,164,240,240,164,spektor,0.14,h,164,240,240,164,154.6796,220.0396,39360,39360,34035.6388,dc,null,null,null,null,null,null,"[1,3]"
NA,canvas-keyboard-response,221,238800,0.0-6.0-5.35,5013,NA,NA,NA,NA,clear_screen,null,null,NA,NA,critical,d,t,c,154.6796,220.0396,164,240,240,164,spektor,0.14,h,164,240,240,164,154.6796,220.0396,39360,39360,34035.6388,dc,null,null,null,null,null,null,"[1,3]"
NA,canvas-keyboard-response,222,239014,0.0-6.0-0.36,5013,NA,NA,NA,NA,pre trial waiting period,null,null,NA,NA,critical,t,c,d,164,240,240,164,158.0083,227.1683,trueblood,0.09,h,164,240,240,164,158.0083,227.1683,39360,39360,35894.4834,td,null,null,null,null,null,null,"[1,3]"
NA,canvas-keyboard-response,223,239174,0.0-6.0-1.36,5013,NA,NA,NA,NA,clear_screen,null,null,NA,NA,critical,t,c,d,164,240,240,164,158.0083,227.1683,trueblood,0.09,h,164,240,240,164,158.0083,227.1683,39360,39360,35894.4834,td,null,null,null,null,null,null,"[1,3]"
NA,canvas-keyboard-response,224,240519,0.0-6.0-2.36,5013,NA,NA,NA,NA,rectangles,null,null,NA,NA,critical,t,c,d,164,240,240,164,158.0083,227.1683,trueblood,0.09,h,164,240,240,164,158.0083,227.1683,39360,39360,35894.4834,td,null,null,null,null,null,null,"[1,3]"
NA,canvas-keyboard-response,225,240686,0.0-6.0-3.36,5013,NA,NA,NA,NA,clear_screen,null,null,NA,NA,critical,t,c,d,164,240,240,164,158.0083,227.1683,trueblood,0.09,h,164,240,240,164,158.0083,227.1683,39360,39360,35894.4834,td,null,null,null,null,null,null,"[1,3]"
NA,canvas-keyboard-response,226,241205,0.0-6.0-4.36,5013,NA,NA,NA,NA,make choice,500,3,NA,NA,critical,t,c,d,164,240,240,164,158.0083,227.1683,trueblood,0.09,h,164,240,240,164,158.0083,227.1683,39360,39360,35894.4834,td,null,null,null,null,null,null,"[1,3]"
NA,canvas-keyboard-response,227,241369,0.0-6.0-5.36,5013,NA,NA,NA,NA,clear_screen,null,null,NA,NA,critical,t,c,d,164,240,240,164,158.0083,227.1683,trueblood,0.09,h,164,240,240,164,158.0083,227.1683,39360,39360,35894.4834,td,null,null,null,null,null,null,"[1,3]"
NA,canvas-keyboard-response,228,241586,0.0-6.0-0.37,5013,NA,NA,NA,NA,pre trial waiting period,null,null,NA,NA,critical,c,t,d,240,164,164,240,162.6685,237.1485,trueblood,0.02,h,164,240,240,164,162.6685,237.1485,39360,39360,38576.5967,dc,null,null,null,null,null,null,"[3,1]"
NA,canvas-keyboard-response,229,241745,0.0-6.0-1.37,5013,NA,NA,NA,NA,clear_screen,null,null,NA,NA,critical,c,t,d,240,164,164,240,162.6685,237.1485,trueblood,0.02,h,164,240,240,164,162.6685,237.1485,39360,39360,38576.5967,dc,null,null,null,null,null,null,"[3,1]"
NA,canvas-keyboard-response,230,243091,0.0-6.0-2.37,5013,NA,NA,NA,NA,rectangles,null,null,NA,NA,critical,c,t,d,240,164,164,240,162.6685,237.1485,trueblood,0.02,h,164,240,240,164,162.6685,237.1485,39360,39360,38576.5967,dc,null,null,null,null,null,null,"[3,1]"
NA,canvas-keyboard-response,231,243258,0.0-6.0-3.37,5013,NA,NA,NA,NA,clear_screen,null,null,NA,NA,critical,c,t,d,240,164,164,240,162.6685,237.1485,trueblood,0.02,h,164,240,240,164,162.6685,237.1485,39360,39360,38576.5967,dc,null,null,null,null,null,null,"[3,1]"
NA,canvas-keyboard-response,232,243616,0.0-6.0-4.37,5013,NA,NA,NA,NA,make choice,337,1,NA,NA,critical,c,t,d,240,164,164,240,162.6685,237.1485,trueblood,0.02,h,164,240,240,164,162.6685,237.1485,39360,39360,38576.5967,dc,null,null,null,null,null,null,"[3,1]"
NA,canvas-keyboard-response,233,243791,0.0-6.0-5.37,5013,NA,NA,NA,NA,clear_screen,null,null,NA,NA,critical,c,t,d,240,164,164,240,162.6685,237.1485,trueblood,0.02,h,164,240,240,164,162.6685,237.1485,39360,39360,38576.5967,dc,null,null,null,null,null,null,"[3,1]"
NA,canvas-keyboard-response,234,244013,0.0-6.0-0.38,5013,NA,NA,NA,NA,pre trial waiting period,null,null,NA,NA,critical,d,c,t,158.0083,227.1683,240,164,164,240,trueblood,0.09,h,164,240,240,164,158.0083,227.1683,39360,39360,35894.4834,dc,null,null,null,null,null,null,"[1,2]"
NA,canvas-keyboard-response,235,244175,0.0-6.0-1.38,5013,NA,NA,NA,NA,clear_screen,null,null,NA,NA,critical,d,c,t,158.0083,227.1683,240,164,164,240,trueblood,0.09,h,164,240,240,164,158.0083,227.1683,39360,39360,35894.4834,dc,null,null,null,null,null,null,"[1,2]"
NA,canvas-keyboard-response,236,245514,0.0-6.0-2.38,5013,NA,NA,NA,NA,rectangles,null,null,NA,NA,critical,d,c,t,158.0083,227.1683,240,164,164,240,trueblood,0.09,h,164,240,240,164,158.0083,227.1683,39360,39360,35894.4834,dc,null,null,null,null,null,null,"[1,2]"
NA,canvas-keyboard-response,237,245684,0.0-6.0-3.38,5013,NA,NA,NA,NA,clear_screen,null,null,NA,NA,critical,d,c,t,158.0083,227.1683,240,164,164,240,trueblood,0.09,h,164,240,240,164,158.0083,227.1683,39360,39360,35894.4834,dc,null,null,null,null,null,null,"[1,2]"
NA,canvas-keyboard-response,238,246542,0.0-6.0-4.38,5013,NA,NA,NA,NA,make choice,844,2,NA,NA,critical,d,c,t,158.0083,227.1683,240,164,164,240,trueblood,0.09,h,164,240,240,164,158.0083,227.1683,39360,39360,35894.4834,dc,null,null,null,null,null,null,"[1,2]"
NA,canvas-keyboard-response,239,246710,0.0-6.0-5.38,5013,NA,NA,NA,NA,clear_screen,null,null,NA,NA,critical,d,c,t,158.0083,227.1683,240,164,164,240,trueblood,0.09,h,164,240,240,164,158.0083,227.1683,39360,39360,35894.4834,dc,null,null,null,null,null,null,"[1,2]"
NA,canvas-keyboard-response,240,246925,0.0-6.0-0.39,5013,NA,NA,NA,NA,pre trial waiting period,null,null,NA,NA,critical,d,t,c,160.6713,232.8713,164,240,240,164,trueblood,0.05,h,164,240,240,164,160.6713,232.8713,39360,39360,37415.7294,tc,null,null,null,null,null,null,"[2,3]"
NA,canvas-keyboard-response,241,247083,0.0-6.0-1.39,5013,NA,NA,NA,NA,clear_screen,null,null,NA,NA,critical,d,t,c,160.6713,232.8713,164,240,240,164,trueblood,0.05,h,164,240,240,164,160.6713,232.8713,39360,39360,37415.7294,tc,null,null,null,null,null,null,"[2,3]"
NA,canvas-keyboard-response,242,248428,0.0-6.0-2.39,5013,NA,NA,NA,NA,rectangles,null,null,NA,NA,critical,d,t,c,160.6713,232.8713,164,240,240,164,trueblood,0.05,h,164,240,240,164,160.6713,232.8713,39360,39360,37415.7294,tc,null,null,null,null,null,null,"[2,3]"
NA,canvas-keyboard-response,243,248597,0.0-6.0-3.39,5013,NA,NA,NA,NA,clear_screen,null,null,NA,NA,critical,d,t,c,160.6713,232.8713,164,240,240,164,trueblood,0.05,h,164,240,240,164,160.6713,232.8713,39360,39360,37415.7294,tc,null,null,null,null,null,null,"[2,3]"
NA,canvas-keyboard-response,244,249566,0.0-6.0-4.39,5013,NA,NA,NA,NA,make choice,951,3,NA,NA,critical,d,t,c,160.6713,232.8713,164,240,240,164,trueblood,0.05,h,164,240,240,164,160.6713,232.8713,39360,39360,37415.7294,tc,null,null,null,null,null,null,"[2,3]"
NA,canvas-keyboard-response,245,249736,0.0-6.0-5.39,5013,NA,NA,NA,NA,clear_screen,null,null,NA,NA,critical,d,t,c,160.6713,232.8713,164,240,240,164,trueblood,0.05,h,164,240,240,164,160.6713,232.8713,39360,39360,37415.7294,tc,null,null,null,null,null,null,"[2,3]"
NA,canvas-keyboard-response,246,249951,0.0-6.0-0.40,5013,NA,NA,NA,NA,pre trial waiting period,null,null,NA,NA,catch,l,sh,sw,288,191,171,174,141,228,trueblood,null,null,null,null,null,null,null,null,null,null,null,NA,180,200,260,200,36000,52000,"[1,2]"
NA,canvas-keyboard-response,247,250106,0.0-6.0-1.40,5013,NA,NA,NA,NA,clear_screen,null,null,NA,NA,catch,l,sh,sw,288,191,171,174,141,228,trueblood,null,null,null,null,null,null,null,null,null,null,null,NA,180,200,260,200,36000,52000,"[1,2]"
NA,canvas-keyboard-response,248,251450,0.0-6.0-2.40,5013,NA,NA,NA,NA,rectangles,null,null,NA,NA,catch,l,sh,sw,288,191,171,174,141,228,trueblood,null,null,null,null,null,null,null,null,null,null,null,NA,180,200,260,200,36000,52000,"[1,2]"
NA,canvas-keyboard-response,249,251622,0.0-6.0-3.40,5013,NA,NA,NA,NA,clear_screen,null,null,NA,NA,catch,l,sh,sw,288,191,171,174,141,228,trueblood,null,null,null,null,null,null,null,null,null,null,null,NA,180,200,260,200,36000,52000,"[1,2]"
NA,canvas-keyboard-response,250,251919,0.0-6.0-4.40,5013,NA,NA,NA,NA,make choice,276,1,NA,NA,catch,l,sh,sw,288,191,171,174,141,228,trueblood,null,null,null,null,null,null,null,null,null,null,null,NA,180,200,260,200,36000,52000,"[1,2]"
NA,canvas-keyboard-response,251,252088,0.0-6.0-5.40,5013,NA,NA,NA,NA,clear_screen,null,null,NA,NA,catch,l,sh,sw,288,191,171,174,141,228,trueblood,null,null,null,null,null,null,null,null,null,null,null,NA,180,200,260,200,36000,52000,"[1,2]"
NA,canvas-keyboard-response,252,252307,0.0-6.0-0.41,5013,NA,NA,NA,NA,pre trial waiting period,null,null,NA,NA,catch,sw,sh,l,180,200,166,190,274,174,spektor,null,null,null,null,null,null,null,null,null,null,null,NA,180,200,260,200,36000,52000,"[1,3]"
NA,canvas-keyboard-response,253,252465,0.0-6.0-1.41,5013,NA,NA,NA,NA,clear_screen,null,null,NA,NA,catch,sw,sh,l,180,200,166,190,274,174,spektor,null,null,null,null,null,null,null,null,null,null,null,NA,180,200,260,200,36000,52000,"[1,3]"
NA,canvas-keyboard-response,254,253807,0.0-6.0-2.41,5013,NA,NA,NA,NA,rectangles,null,null,NA,NA,catch,sw,sh,l,180,200,166,190,274,174,spektor,null,null,null,null,null,null,null,null,null,null,null,NA,180,200,260,200,36000,52000,"[1,3]"
NA,canvas-keyboard-response,255,253973,0.0-6.0-3.41,5013,NA,NA,NA,NA,clear_screen,null,null,NA,NA,catch,sw,sh,l,180,200,166,190,274,174,spektor,null,null,null,null,null,null,null,null,null,null,null,NA,180,200,260,200,36000,52000,"[1,3]"
NA,canvas-keyboard-response,256,254591,0.0-6.0-4.41,5013,NA,NA,NA,NA,make choice,596,3,NA,NA,catch,sw,sh,l,180,200,166,190,274,174,spektor,null,null,null,null,null,null,null,null,null,null,null,NA,180,200,260,200,36000,52000,"[1,3]"
NA,canvas-keyboard-response,257,254757,0.0-6.0-5.41,5013,NA,NA,NA,NA,clear_screen,null,null,NA,NA,catch,sw,sh,l,180,200,166,190,274,174,spektor,null,null,null,null,null,null,null,null,null,null,null,NA,180,200,260,200,36000,52000,"[1,3]"
NA,canvas-keyboard-response,258,254972,0.0-6.0-0.42,5013,NA,NA,NA,NA,pre trial waiting period,null,null,NA,NA,critical,d,c,t,227.1683,158.0083,164,240,240,164,trueblood,0.09,w,240,164,164,240,227.1683,158.0083,39360,39360,35894.4834,tc,null,null,null,null,null,null,"[3,2]"
NA,canvas-keyboard-response,259,255135,0.0-6.0-1.42,5013,NA,NA,NA,NA,clear_screen,null,null,NA,NA,critical,d,c,t,227.1683,158.0083,164,240,240,164,trueblood,0.09,w,240,164,164,240,227.1683,158.0083,39360,39360,35894.4834,tc,null,null,null,null,null,null,"[3,2]"
NA,canvas-keyboard-response,260,256482,0.0-6.0-2.42,5013,NA,NA,NA,NA,rectangles,null,null,NA,NA,critical,d,c,t,227.1683,158.0083,164,240,240,164,trueblood,0.09,w,240,164,164,240,227.1683,158.0083,39360,39360,35894.4834,tc,null,null,null,null,null,null,"[3,2]"
NA,canvas-keyboard-response,261,256651,0.0-6.0-3.42,5013,NA,NA,NA,NA,clear_screen,null,null,NA,NA,critical,d,c,t,227.1683,158.0083,164,240,240,164,trueblood,0.09,w,240,164,164,240,227.1683,158.0083,39360,39360,35894.4834,tc,null,null,null,null,null,null,"[3,2]"
NA,canvas-keyboard-response,262,257007,0.0-6.0-4.42,5013,NA,NA,NA,NA,make choice,337,2,NA,NA,critical,d,c,t,227.1683,158.0083,164,240,240,164,trueblood,0.09,w,240,164,164,240,227.1683,158.0083,39360,39360,35894.4834,tc,null,null,null,null,null,null,"[3,2]"
NA,canvas-keyboard-response,263,257173,0.0-6.0-5.42,5013,NA,NA,NA,NA,clear_screen,null,null,NA,NA,critical,d,c,t,227.1683,158.0083,164,240,240,164,trueblood,0.09,w,240,164,164,240,227.1683,158.0083,39360,39360,35894.4834,tc,null,null,null,null,null,null,"[3,2]"
NA,canvas-keyboard-response,264,257380,0.0-6.0-0.43,5013,NA,NA,NA,NA,pre trial waiting period,null,null,NA,NA,critical,d,t,c,160.6713,232.8713,164,240,240,164,trueblood,0.05,h,164,240,240,164,160.6713,232.8713,39360,39360,37415.7294,td,null,null,null,null,null,null,"[2,1]"
NA,canvas-keyboard-response,265,257543,0.0-6.0-1.43,5013,NA,NA,NA,NA,clear_screen,null,null,NA,NA,critical,d,t,c,160.6713,232.8713,164,240,240,164,trueblood,0.05,h,164,240,240,164,160.6713,232.8713,39360,39360,37415.7294,td,null,null,null,null,null,null,"[2,1]"
NA,canvas-keyboard-response,266,258888,0.0-6.0-2.43,5013,NA,NA,NA,NA,rectangles,null,null,NA,NA,critical,d,t,c,160.6713,232.8713,164,240,240,164,trueblood,0.05,h,164,240,240,164,160.6713,232.8713,39360,39360,37415.7294,td,null,null,null,null,null,null,"[2,1]"
NA,canvas-keyboard-response,267,259059,0.0-6.0-3.43,5013,NA,NA,NA,NA,clear_screen,null,null,NA,NA,critical,d,t,c,160.6713,232.8713,164,240,240,164,trueblood,0.05,h,164,240,240,164,160.6713,232.8713,39360,39360,37415.7294,td,null,null,null,null,null,null,"[2,1]"
NA,canvas-keyboard-response,268,260167,0.0-6.0-4.43,5013,NA,NA,NA,NA,make choice,1087,2,NA,NA,critical,d,t,c,160.6713,232.8713,164,240,240,164,trueblood,0.05,h,164,240,240,164,160.6713,232.8713,39360,39360,37415.7294,td,null,null,null,null,null,null,"[2,1]"
NA,canvas-keyboard-response,269,260335,0.0-6.0-5.43,5013,NA,NA,NA,NA,clear_screen,null,null,NA,NA,critical,d,t,c,160.6713,232.8713,164,240,240,164,trueblood,0.05,h,164,240,240,164,160.6713,232.8713,39360,39360,37415.7294,td,null,null,null,null,null,null,"[2,1]"
NA,canvas-keyboard-response,270,260554,0.0-6.0-0.44,5013,NA,NA,NA,NA,pre trial waiting period,null,null,NA,NA,critical,t,c,d,240,164,164,240,237.1485,162.6685,spektor,0.02,w,240,164,164,240,237.1485,162.6685,39360,39360,38576.5967,tc,null,null,null,null,null,null,"[1,2]"
NA,canvas-keyboard-response,271,260714,0.0-6.0-1.44,5013,NA,NA,NA,NA,clear_screen,null,null,NA,NA,critical,t,c,d,240,164,164,240,237.1485,162.6685,spektor,0.02,w,240,164,164,240,237.1485,162.6685,39360,39360,38576.5967,tc,null,null,null,null,null,null,"[1,2]"
NA,canvas-keyboard-response,272,262057,0.0-6.0-2.44,5013,NA,NA,NA,NA,rectangles,null,null,NA,NA,critical,t,c,d,240,164,164,240,237.1485,162.6685,spektor,0.02,w,240,164,164,240,237.1485,162.6685,39360,39360,38576.5967,tc,null,null,null,null,null,null,"[1,2]"
NA,canvas-keyboard-response,273,262225,0.0-6.0-3.44,5013,NA,NA,NA,NA,clear_screen,null,null,NA,NA,critical,t,c,d,240,164,164,240,237.1485,162.6685,spektor,0.02,w,240,164,164,240,237.1485,162.6685,39360,39360,38576.5967,tc,null,null,null,null,null,null,"[1,2]"
NA,canvas-keyboard-response,274,263214,0.0-6.0-4.44,5013,NA,NA,NA,NA,make choice,970,1,NA,NA,critical,t,c,d,240,164,164,240,237.1485,162.6685,spektor,0.02,w,240,164,164,240,237.1485,162.6685,39360,39360,38576.5967,tc,null,null,null,null,null,null,"[1,2]"
NA,canvas-keyboard-response,275,263382,0.0-6.0-5.44,5013,NA,NA,NA,NA,clear_screen,null,null,NA,NA,critical,t,c,d,240,164,164,240,237.1485,162.6685,spektor,0.02,w,240,164,164,240,237.1485,162.6685,39360,39360,38576.5967,tc,null,null,null,null,null,null,"[1,2]"
NA,canvas-keyboard-response,276,263601,0.0-6.0-0.45,5013,NA,NA,NA,NA,pre trial waiting period,null,null,NA,NA,critical,c,t,d,240,164,164,240,154.6796,220.0396,spektor,0.14,h,164,240,240,164,154.6796,220.0396,39360,39360,34035.6388,tc,null,null,null,null,null,null,"[2,1]"
NA,canvas-keyboard-response,277,263761,0.0-6.0-1.45,5013,NA,NA,NA,NA,clear_screen,null,null,NA,NA,critical,c,t,d,240,164,164,240,154.6796,220.0396,spektor,0.14,h,164,240,240,164,154.6796,220.0396,39360,39360,34035.6388,tc,null,null,null,null,null,null,"[2,1]"
NA,canvas-keyboard-response,278,265105,0.0-6.0-2.45,5013,NA,NA,NA,NA,rectangles,null,null,NA,NA,critical,c,t,d,240,164,164,240,154.6796,220.0396,spektor,0.14,h,164,240,240,164,154.6796,220.0396,39360,39360,34035.6388,tc,null,null,null,null,null,null,"[2,1]"
NA,canvas-keyboard-response,279,265272,0.0-6.0-3.45,5013,NA,NA,NA,NA,clear_screen,null,null,NA,NA,critical,c,t,d,240,164,164,240,154.6796,220.0396,spektor,0.14,h,164,240,240,164,154.6796,220.0396,39360,39360,34035.6388,tc,null,null,null,null,null,null,"[2,1]"
NA,canvas-keyboard-response,280,265830,0.0-6.0-4.45,5013,NA,NA,NA,NA,make choice,538,1,NA,NA,critical,c,t,d,240,164,164,240,154.6796,220.0396,spektor,0.14,h,164,240,240,164,154.6796,220.0396,39360,39360,34035.6388,tc,null,null,null,null,null,null,"[2,1]"
NA,canvas-keyboard-response,281,265999,0.0-6.0-5.45,5013,NA,NA,NA,NA,clear_screen,null,null,NA,NA,critical,c,t,d,240,164,164,240,154.6796,220.0396,spektor,0.14,h,164,240,240,164,154.6796,220.0396,39360,39360,34035.6388,tc,null,null,null,null,null,null,"[2,1]"
NA,canvas-keyboard-response,282,266215,0.0-6.0-0.46,5013,NA,NA,NA,NA,pre trial waiting period,null,null,NA,NA,catch,l,sw,sh,204,276,164,215,192,209,trueblood,null,null,null,null,null,null,null,null,null,null,null,NA,180,200,260,200,36000,52000,"[1,3]"
NA,canvas-keyboard-response,283,266378,0.0-6.0-1.46,5013,NA,NA,NA,NA,clear_screen,null,null,NA,NA,catch,l,sw,sh,204,276,164,215,192,209,trueblood,null,null,null,null,null,null,null,null,null,null,null,NA,180,200,260,200,36000,52000,"[1,3]"
NA,canvas-keyboard-response,284,267724,0.0-6.0-2.46,5013,NA,NA,NA,NA,rectangles,null,null,NA,NA,catch,l,sw,sh,204,276,164,215,192,209,trueblood,null,null,null,null,null,null,null,null,null,null,null,NA,180,200,260,200,36000,52000,"[1,3]"
NA,canvas-keyboard-response,285,267893,0.0-6.0-3.46,5013,NA,NA,NA,NA,clear_screen,null,null,NA,NA,catch,l,sw,sh,204,276,164,215,192,209,trueblood,null,null,null,null,null,null,null,null,null,null,null,NA,180,200,260,200,36000,52000,"[1,3]"
NA,canvas-keyboard-response,286,268750,0.0-6.0-4.46,5013,NA,NA,NA,NA,make choice,837,1,NA,NA,catch,l,sw,sh,204,276,164,215,192,209,trueblood,null,null,null,null,null,null,null,null,null,null,null,NA,180,200,260,200,36000,52000,"[1,3]"
NA,canvas-keyboard-response,287,268919,0.0-6.0-5.46,5013,NA,NA,NA,NA,clear_screen,null,null,NA,NA,catch,l,sw,sh,204,276,164,215,192,209,trueblood,null,null,null,null,null,null,null,null,null,null,null,NA,180,200,260,200,36000,52000,"[1,3]"
NA,canvas-keyboard-response,288,269135,0.0-6.0-0.47,5013,NA,NA,NA,NA,pre trial waiting period,null,null,NA,NA,critical,t,c,d,240,164,164,240,240,164,spektor,0,w,240,164,164,240,240,164,39360,39360,39360,dc,null,null,null,null,null,null,"[3,2]"
NA,canvas-keyboard-response,289,269289,0.0-6.0-1.47,5013,NA,NA,NA,NA,clear_screen,null,null,NA,NA,critical,t,c,d,240,164,164,240,240,164,spektor,0,w,240,164,164,240,240,164,39360,39360,39360,dc,null,null,null,null,null,null,"[3,2]"
NA,canvas-keyboard-response,290,270636,0.0-6.0-2.47,5013,NA,NA,NA,NA,rectangles,null,null,NA,NA,critical,t,c,d,240,164,164,240,240,164,spektor,0,w,240,164,164,240,240,164,39360,39360,39360,dc,null,null,null,null,null,null,"[3,2]"
NA,canvas-keyboard-response,291,270806,0.0-6.0-3.47,5013,NA,NA,NA,NA,clear_screen,null,null,NA,NA,critical,t,c,d,240,164,164,240,240,164,spektor,0,w,240,164,164,240,240,164,39360,39360,39360,dc,null,null,null,null,null,null,"[3,2]"
NA,canvas-keyboard-response,292,271304,0.0-6.0-4.47,5013,NA,NA,NA,NA,make choice,476,3,NA,NA,critical,t,c,d,240,164,164,240,240,164,spektor,0,w,240,164,164,240,240,164,39360,39360,39360,dc,null,null,null,null,null,null,"[3,2]"
NA,canvas-keyboard-response,293,271467,0.0-6.0-5.47,5013,NA,NA,NA,NA,clear_screen,null,null,NA,NA,critical,t,c,d,240,164,164,240,240,164,spektor,0,w,240,164,164,240,240,164,39360,39360,39360,dc,null,null,null,null,null,null,"[3,2]"
NA,canvas-keyboard-response,294,271682,0.0-6.0-0.48,5013,NA,NA,NA,NA,pre trial waiting period,null,null,NA,NA,critical,d,t,c,240,164,240,164,164,240,trueblood,0,w,240,164,164,240,240,164,39360,39360,39360,td,null,null,null,null,null,null,"[2,1]"
NA,canvas-keyboard-response,295,271842,0.0-6.0-1.48,5013,NA,NA,NA,NA,clear_screen,null,null,NA,NA,critical,d,t,c,240,164,240,164,164,240,trueblood,0,w,240,164,164,240,240,164,39360,39360,39360,td,null,null,null,null,null,null,"[2,1]"
NA,canvas-keyboard-response,296,273188,0.0-6.0-2.48,5013,NA,NA,NA,NA,rectangles,null,null,NA,NA,critical,d,t,c,240,164,240,164,164,240,trueblood,0,w,240,164,164,240,240,164,39360,39360,39360,td,null,null,null,null,null,null,"[2,1]"
NA,canvas-keyboard-response,297,273360,0.0-6.0-3.48,5013,NA,NA,NA,NA,clear_screen,null,null,NA,NA,critical,d,t,c,240,164,240,164,164,240,trueblood,0,w,240,164,164,240,240,164,39360,39360,39360,td,null,null,null,null,null,null,"[2,1]"
NA,canvas-keyboard-response,298,273703,0.0-6.0-4.48,5013,NA,NA,NA,NA,make choice,324,2,NA,NA,critical,d,t,c,240,164,240,164,164,240,trueblood,0,w,240,164,164,240,240,164,39360,39360,39360,td,null,null,null,null,null,null,"[2,1]"
NA,canvas-keyboard-response,299,273871,0.0-6.0-5.48,5013,NA,NA,NA,NA,clear_screen,null,null,NA,NA,critical,d,t,c,240,164,240,164,164,240,trueblood,0,w,240,164,164,240,240,164,39360,39360,39360,td,null,null,null,null,null,null,"[2,1]"
NA,canvas-keyboard-response,300,274079,0.0-6.0-0.49,5013,NA,NA,NA,NA,pre trial waiting period,null,null,NA,NA,catch,sw,sh,l,180,200,161,148,205,231,trueblood,null,null,null,null,null,null,null,null,null,null,null,NA,180,200,260,200,36000,52000,"[2,3]"
NA,canvas-keyboard-response,301,274243,0.0-6.0-1.49,5013,NA,NA,NA,NA,clear_screen,null,null,NA,NA,catch,sw,sh,l,180,200,161,148,205,231,trueblood,null,null,null,null,null,null,null,null,null,null,null,NA,180,200,260,200,36000,52000,"[2,3]"
NA,canvas-keyboard-response,302,275585,0.0-6.0-2.49,5013,NA,NA,NA,NA,rectangles,null,null,NA,NA,catch,sw,sh,l,180,200,161,148,205,231,trueblood,null,null,null,null,null,null,null,null,null,null,null,NA,180,200,260,200,36000,52000,"[2,3]"
NA,canvas-keyboard-response,303,275756,0.0-6.0-3.49,5013,NA,NA,NA,NA,clear_screen,null,null,NA,NA,catch,sw,sh,l,180,200,161,148,205,231,trueblood,null,null,null,null,null,null,null,null,null,null,null,NA,180,200,260,200,36000,52000,"[2,3]"
NA,canvas-keyboard-response,304,275838,0.0-6.0-4.49,5013,NA,NA,NA,NA,make choice,63,3,NA,NA,catch,sw,sh,l,180,200,161,148,205,231,trueblood,null,null,null,null,null,null,null,null,null,null,null,NA,180,200,260,200,36000,52000,"[2,3]"
NA,canvas-keyboard-response,305,276014,0.0-6.0-5.49,5013,NA,NA,NA,NA,clear_screen,null,null,NA,NA,catch,sw,sh,l,180,200,161,148,205,231,trueblood,null,null,null,null,null,null,null,null,null,null,null,NA,180,200,260,200,36000,52000,"[2,3]"
NA,canvas-keyboard-response,306,276241,0.0-6.0-0.50,5013,NA,NA,NA,NA,pre trial waiting period,null,null,NA,NA,critical,d,t,c,232.8713,160.6713,240,164,164,240,spektor,0.05,w,240,164,164,240,232.8713,160.6713,39360,39360,37415.7294,tc,null,null,null,null,null,null,"[2,3]"
NA,canvas-keyboard-response,307,276398,0.0-6.0-1.50,5013,NA,NA,NA,NA,clear_screen,null,null,NA,NA,critical,d,t,c,232.8713,160.6713,240,164,164,240,spektor,0.05,w,240,164,164,240,232.8713,160.6713,39360,39360,37415.7294,tc,null,null,null,null,null,null,"[2,3]"
NA,canvas-keyboard-response,308,277743,0.0-6.0-2.50,5013,NA,NA,NA,NA,rectangles,null,null,NA,NA,critical,d,t,c,232.8713,160.6713,240,164,164,240,spektor,0.05,w,240,164,164,240,232.8713,160.6713,39360,39360,37415.7294,tc,null,null,null,null,null,null,"[2,3]"
NA,canvas-keyboard-response,309,277915,0.0-6.0-3.50,5013,NA,NA,NA,NA,clear_screen,null,null,NA,NA,critical,d,t,c,232.8713,160.6713,240,164,164,240,spektor,0.05,w,240,164,164,240,232.8713,160.6713,39360,39360,37415.7294,tc,null,null,null,null,null,null,"[2,3]"
NA,canvas-keyboard-response,310,278319,0.0-6.0-4.50,5013,NA,NA,NA,NA,make choice,384,2,NA,NA,critical,d,t,c,232.8713,160.6713,240,164,164,240,spektor,0.05,w,240,164,164,240,232.8713,160.6713,39360,39360,37415.7294,tc,null,null,null,null,null,null,"[2,3]"
NA,canvas-keyboard-response,311,278490,0.0-6.0-5.50,5013,NA,NA,NA,NA,clear_screen,null,null,NA,NA,critical,d,t,c,232.8713,160.6713,240,164,164,240,spektor,0.05,w,240,164,164,240,232.8713,160.6713,39360,39360,37415.7294,tc,null,null,null,null,null,null,"[2,3]"
NA,canvas-keyboard-response,312,278705,0.0-6.0-0.51,5013,NA,NA,NA,NA,pre trial waiting period,null,null,NA,NA,catch,sh,l,sw,164,163,260,162,169,219,trueblood,null,null,null,null,null,null,null,null,null,null,null,NA,180,200,260,200,36000,52000,"[1,2]"
NA,canvas-keyboard-response,313,278864,0.0-6.0-1.51,5013,NA,NA,NA,NA,clear_screen,null,null,NA,NA,catch,sh,l,sw,164,163,260,162,169,219,trueblood,null,null,null,null,null,null,null,null,null,null,null,NA,180,200,260,200,36000,52000,"[1,2]"
NA,canvas-keyboard-response,314,280205,0.0-6.0-2.51,5013,NA,NA,NA,NA,rectangles,null,null,NA,NA,catch,sh,l,sw,164,163,260,162,169,219,trueblood,null,null,null,null,null,null,null,null,null,null,null,NA,180,200,260,200,36000,52000,"[1,2]"
NA,canvas-keyboard-response,315,280377,0.0-6.0-3.51,5013,NA,NA,NA,NA,clear_screen,null,null,NA,NA,catch,sh,l,sw,164,163,260,162,169,219,trueblood,null,null,null,null,null,null,null,null,null,null,null,NA,180,200,260,200,36000,52000,"[1,2]"
NA,canvas-keyboard-response,316,281070,0.0-6.0-4.51,5013,NA,NA,NA,NA,make choice,672,2,NA,NA,catch,sh,l,sw,164,163,260,162,169,219,trueblood,null,null,null,null,null,null,null,null,null,null,null,NA,180,200,260,200,36000,52000,"[1,2]"
NA,canvas-keyboard-response,317,281241,0.0-6.0-5.51,5013,NA,NA,NA,NA,clear_screen,null,null,NA,NA,catch,sh,l,sw,164,163,260,162,169,219,trueblood,null,null,null,null,null,null,null,null,null,null,null,NA,180,200,260,200,36000,52000,"[1,2]"
NA,canvas-keyboard-response,318,281460,0.0-6.0-0.52,5013,NA,NA,NA,NA,pre trial waiting period,null,null,NA,NA,catch,l,sh,sw,227,196,166,178,155,212,spektor,null,null,null,null,null,null,null,null,null,null,null,NA,180,200,260,200,36000,52000,"[1,3]"
NA,canvas-keyboard-response,319,281619,0.0-6.0-1.52,5013,NA,NA,NA,NA,clear_screen,null,null,NA,NA,catch,l,sh,sw,227,196,166,178,155,212,spektor,null,null,null,null,null,null,null,null,null,null,null,NA,180,200,260,200,36000,52000,"[1,3]"
NA,canvas-keyboard-response,320,282967,0.0-6.0-2.52,5013,NA,NA,NA,NA,rectangles,null,null,NA,NA,catch,l,sh,sw,227,196,166,178,155,212,spektor,null,null,null,null,null,null,null,null,null,null,null,NA,180,200,260,200,36000,52000,"[1,3]"
NA,canvas-keyboard-response,321,283139,0.0-6.0-3.52,5013,NA,NA,NA,NA,clear_screen,null,null,NA,NA,catch,l,sh,sw,227,196,166,178,155,212,spektor,null,null,null,null,null,null,null,null,null,null,null,NA,180,200,260,200,36000,52000,"[1,3]"
NA,canvas-keyboard-response,322,285909,0.0-6.0-4.52,5013,NA,NA,NA,NA,make choice,2749,1,NA,NA,catch,l,sh,sw,227,196,166,178,155,212,spektor,null,null,null,null,null,null,null,null,null,null,null,NA,180,200,260,200,36000,52000,"[1,3]"
NA,canvas-keyboard-response,323,286076,0.0-6.0-5.52,5013,NA,NA,NA,NA,clear_screen,null,null,NA,NA,catch,l,sh,sw,227,196,166,178,155,212,spektor,null,null,null,null,null,null,null,null,null,null,null,NA,180,200,260,200,36000,52000,"[1,3]"
NA,canvas-keyboard-response,324,286295,0.0-6.0-0.53,5013,NA,NA,NA,NA,pre trial waiting period,null,null,NA,NA,critical,t,d,c,164,240,162.6685,237.1485,240,164,spektor,0.02,h,164,240,240,164,162.6685,237.1485,39360,39360,38576.5967,dc,null,null,null,null,null,null,"[2,3]"
NA,canvas-keyboard-response,325,286456,0.0-6.0-1.53,5013,NA,NA,NA,NA,clear_screen,null,null,NA,NA,critical,t,d,c,164,240,162.6685,237.1485,240,164,spektor,0.02,h,164,240,240,164,162.6685,237.1485,39360,39360,38576.5967,dc,null,null,null,null,null,null,"[2,3]"
NA,canvas-keyboard-response,326,287802,0.0-6.0-2.53,5013,NA,NA,NA,NA,rectangles,null,null,NA,NA,critical,t,d,c,164,240,162.6685,237.1485,240,164,spektor,0.02,h,164,240,240,164,162.6685,237.1485,39360,39360,38576.5967,dc,null,null,null,null,null,null,"[2,3]"
NA,canvas-keyboard-response,327,287970,0.0-6.0-3.53,5013,NA,NA,NA,NA,clear_screen,null,null,NA,NA,critical,t,d,c,164,240,162.6685,237.1485,240,164,spektor,0.02,h,164,240,240,164,162.6685,237.1485,39360,39360,38576.5967,dc,null,null,null,null,null,null,"[2,3]"
NA,canvas-keyboard-response,328,288358,0.0-6.0-4.53,5013,NA,NA,NA,NA,make choice,367,3,NA,NA,critical,t,d,c,164,240,162.6685,237.1485,240,164,spektor,0.02,h,164,240,240,164,162.6685,237.1485,39360,39360,38576.5967,dc,null,null,null,null,null,null,"[2,3]"
NA,canvas-keyboard-response,329,288528,0.0-6.0-5.53,5013,NA,NA,NA,NA,clear_screen,null,null,NA,NA,critical,t,d,c,164,240,162.6685,237.1485,240,164,spektor,0.02,h,164,240,240,164,162.6685,237.1485,39360,39360,38576.5967,dc,null,null,null,null,null,null,"[2,3]"
NA,canvas-keyboard-response,330,288751,0.0-6.0-0.54,5013,NA,NA,NA,NA,pre trial waiting period,null,null,NA,NA,critical,t,d,c,164,240,160.6713,232.8713,240,164,spektor,0.05,h,164,240,240,164,160.6713,232.8713,39360,39360,37415.7294,tc,null,null,null,null,null,null,"[1,3]"
NA,canvas-keyboard-response,331,288913,0.0-6.0-1.54,5013,NA,NA,NA,NA,clear_screen,null,null,NA,NA,critical,t,d,c,164,240,160.6713,232.8713,240,164,spektor,0.05,h,164,240,240,164,160.6713,232.8713,39360,39360,37415.7294,tc,null,null,null,null,null,null,"[1,3]"
NA,canvas-keyboard-response,332,290259,0.0-6.0-2.54,5013,NA,NA,NA,NA,rectangles,null,null,NA,NA,critical,t,d,c,164,240,160.6713,232.8713,240,164,spektor,0.05,h,164,240,240,164,160.6713,232.8713,39360,39360,37415.7294,tc,null,null,null,null,null,null,"[1,3]"
NA,canvas-keyboard-response,333,290431,0.0-6.0-3.54,5013,NA,NA,NA,NA,clear_screen,null,null,NA,NA,critical,t,d,c,164,240,160.6713,232.8713,240,164,spektor,0.05,h,164,240,240,164,160.6713,232.8713,39360,39360,37415.7294,tc,null,null,null,null,null,null,"[1,3]"
NA,canvas-keyboard-response,334,293407,0.0-6.0-4.54,5013,NA,NA,NA,NA,make choice,2954,3,NA,NA,critical,t,d,c,164,240,160.6713,232.8713,240,164,spektor,0.05,h,164,240,240,164,160.6713,232.8713,39360,39360,37415.7294,tc,null,null,null,null,null,null,"[1,3]"
NA,canvas-keyboard-response,335,293577,0.0-6.0-5.54,5013,NA,NA,NA,NA,clear_screen,null,null,NA,NA,critical,t,d,c,164,240,160.6713,232.8713,240,164,spektor,0.05,h,164,240,240,164,160.6713,232.8713,39360,39360,37415.7294,tc,null,null,null,null,null,null,"[1,3]"
NA,canvas-keyboard-response,336,293796,0.0-6.0-0.55,5013,NA,NA,NA,NA,pre trial waiting period,null,null,NA,NA,catch,sw,sh,l,180,200,234,149,250,199,spektor,null,null,null,null,null,null,null,null,null,null,null,NA,180,200,260,200,36000,52000,"[2,3]"
NA,canvas-keyboard-response,337,293954,0.0-6.0-1.55,5013,NA,NA,NA,NA,clear_screen,null,null,NA,NA,catch,sw,sh,l,180,200,234,149,250,199,spektor,null,null,null,null,null,null,null,null,null,null,null,NA,180,200,260,200,36000,52000,"[2,3]"
NA,canvas-keyboard-response,338,295301,0.0-6.0-2.55,5013,NA,NA,NA,NA,rectangles,null,null,NA,NA,catch,sw,sh,l,180,200,234,149,250,199,spektor,null,null,null,null,null,null,null,null,null,null,null,NA,180,200,260,200,36000,52000,"[2,3]"
NA,canvas-keyboard-response,339,295469,0.0-6.0-3.55,5013,NA,NA,NA,NA,clear_screen,null,null,NA,NA,catch,sw,sh,l,180,200,234,149,250,199,spektor,null,null,null,null,null,null,null,null,null,null,null,NA,180,200,260,200,36000,52000,"[2,3]"
NA,canvas-keyboard-response,340,295510,0.0-6.0-4.55,5013,NA,NA,NA,NA,make choice,19,3,NA,NA,catch,sw,sh,l,180,200,234,149,250,199,spektor,null,null,null,null,null,null,null,null,null,null,null,NA,180,200,260,200,36000,52000,"[2,3]"
NA,canvas-keyboard-response,341,295676,0.0-6.0-5.55,5013,NA,NA,NA,NA,clear_screen,null,null,NA,NA,catch,sw,sh,l,180,200,234,149,250,199,spektor,null,null,null,null,null,null,null,null,null,null,null,NA,180,200,260,200,36000,52000,"[2,3]"
NA,canvas-keyboard-response,342,295893,0.0-6.0-0.56,5013,NA,NA,NA,NA,pre trial waiting period,null,null,NA,NA,critical,t,c,d,164,240,240,164,158.0083,227.1683,spektor,0.09,h,164,240,240,164,158.0083,227.1683,39360,39360,35894.4834,td,null,null,null,null,null,null,"[1,3]"
NA,canvas-keyboard-response,343,296053,0.0-6.0-1.56,5013,NA,NA,NA,NA,clear_screen,null,null,NA,NA,critical,t,c,d,164,240,240,164,158.0083,227.1683,spektor,0.09,h,164,240,240,164,158.0083,227.1683,39360,39360,35894.4834,td,null,null,null,null,null,null,"[1,3]"
NA,canvas-keyboard-response,344,297401,0.0-6.0-2.56,5013,NA,NA,NA,NA,rectangles,null,null,NA,NA,critical,t,c,d,164,240,240,164,158.0083,227.1683,spektor,0.09,h,164,240,240,164,158.0083,227.1683,39360,39360,35894.4834,td,null,null,null,null,null,null,"[1,3]"
NA,canvas-keyboard-response,345,297571,0.0-6.0-3.56,5013,NA,NA,NA,NA,clear_screen,null,null,NA,NA,critical,t,c,d,164,240,240,164,158.0083,227.1683,spektor,0.09,h,164,240,240,164,158.0083,227.1683,39360,39360,35894.4834,td,null,null,null,null,null,null,"[1,3]"
NA,canvas-keyboard-response,346,299694,0.0-6.0-4.56,5013,NA,NA,NA,NA,make choice,2102,1,NA,NA,critical,t,c,d,164,240,240,164,158.0083,227.1683,spektor,0.09,h,164,240,240,164,158.0083,227.1683,39360,39360,35894.4834,td,null,null,null,null,null,null,"[1,3]"
NA,canvas-keyboard-response,347,299866,0.0-6.0-5.56,5013,NA,NA,NA,NA,clear_screen,null,null,NA,NA,critical,t,c,d,164,240,240,164,158.0083,227.1683,spektor,0.09,h,164,240,240,164,158.0083,227.1683,39360,39360,35894.4834,td,null,null,null,null,null,null,"[1,3]"
NA,canvas-keyboard-response,348,300077,0.0-6.0-0.57,5013,NA,NA,NA,NA,pre trial waiting period,null,null,NA,NA,catch,l,sw,sh,237,247,189,236,175,193,spektor,null,null,null,null,null,null,null,null,null,null,null,NA,180,200,260,200,36000,52000,"[1,2]"
NA,canvas-keyboard-response,349,300236,0.0-6.0-1.57,5013,NA,NA,NA,NA,clear_screen,null,null,NA,NA,catch,l,sw,sh,237,247,189,236,175,193,spektor,null,null,null,null,null,null,null,null,null,null,null,NA,180,200,260,200,36000,52000,"[1,2]"
NA,canvas-keyboard-response,350,301582,0.0-6.0-2.57,5013,NA,NA,NA,NA,rectangles,null,null,NA,NA,catch,l,sw,sh,237,247,189,236,175,193,spektor,null,null,null,null,null,null,null,null,null,null,null,NA,180,200,260,200,36000,52000,"[1,2]"
NA,canvas-keyboard-response,351,301754,0.0-6.0-3.57,5013,NA,NA,NA,NA,clear_screen,null,null,NA,NA,catch,l,sw,sh,237,247,189,236,175,193,spektor,null,null,null,null,null,null,null,null,null,null,null,NA,180,200,260,200,36000,52000,"[1,2]"
NA,canvas-keyboard-response,352,302222,0.0-6.0-4.57,5013,NA,NA,NA,NA,make choice,447,1,NA,NA,catch,l,sw,sh,237,247,189,236,175,193,spektor,null,null,null,null,null,null,null,null,null,null,null,NA,180,200,260,200,36000,52000,"[1,2]"
NA,canvas-keyboard-response,353,302395,0.0-6.0-5.57,5013,NA,NA,NA,NA,clear_screen,null,null,NA,NA,catch,l,sw,sh,237,247,189,236,175,193,spektor,null,null,null,null,null,null,null,null,null,null,null,NA,180,200,260,200,36000,52000,"[1,2]"
NA,canvas-keyboard-response,354,302612,0.0-6.0-0.58,5013,NA,NA,NA,NA,pre trial waiting period,null,null,NA,NA,critical,c,t,d,164,240,240,164,237.1485,162.6685,spektor,0.02,w,240,164,164,240,237.1485,162.6685,39360,39360,38576.5967,dc,null,null,null,null,null,null,"[3,1]"
NA,canvas-keyboard-response,355,302770,0.0-6.0-1.58,5013,NA,NA,NA,NA,clear_screen,null,null,NA,NA,critical,c,t,d,164,240,240,164,237.1485,162.6685,spektor,0.02,w,240,164,164,240,237.1485,162.6685,39360,39360,38576.5967,dc,null,null,null,null,null,null,"[3,1]"
NA,canvas-keyboard-response,356,304119,0.0-6.0-2.58,5013,NA,NA,NA,NA,rectangles,null,null,NA,NA,critical,c,t,d,164,240,240,164,237.1485,162.6685,spektor,0.02,w,240,164,164,240,237.1485,162.6685,39360,39360,38576.5967,dc,null,null,null,null,null,null,"[3,1]"
NA,canvas-keyboard-response,357,304293,0.0-6.0-3.58,5013,NA,NA,NA,NA,clear_screen,null,null,NA,NA,critical,c,t,d,164,240,240,164,237.1485,162.6685,spektor,0.02,w,240,164,164,240,237.1485,162.6685,39360,39360,38576.5967,dc,null,null,null,null,null,null,"[3,1]"
NA,canvas-keyboard-response,358,304734,0.0-6.0-4.58,5013,NA,NA,NA,NA,make choice,421,3,NA,NA,critical,c,t,d,164,240,240,164,237.1485,162.6685,spektor,0.02,w,240,164,164,240,237.1485,162.6685,39360,39360,38576.5967,dc,null,null,null,null,null,null,"[3,1]"
NA,canvas-keyboard-response,359,304904,0.0-6.0-5.58,5013,NA,NA,NA,NA,clear_screen,null,null,NA,NA,critical,c,t,d,164,240,240,164,237.1485,162.6685,spektor,0.02,w,240,164,164,240,237.1485,162.6685,39360,39360,38576.5967,dc,null,null,null,null,null,null,"[3,1]"
NA,canvas-keyboard-response,360,305120,0.0-6.0-0.59,5013,NA,NA,NA,NA,pre trial waiting period,null,null,NA,NA,catch,sh,sw,l,235,178,162,182,273,195,spektor,null,null,null,null,null,null,null,null,null,null,null,NA,180,200,260,200,36000,52000,"[1,3]"
NA,canvas-keyboard-response,361,305275,0.0-6.0-1.59,5013,NA,NA,NA,NA,clear_screen,null,null,NA,NA,catch,sh,sw,l,235,178,162,182,273,195,spektor,null,null,null,null,null,null,null,null,null,null,null,NA,180,200,260,200,36000,52000,"[1,3]"
NA,canvas-keyboard-response,362,306621,0.0-6.0-2.59,5013,NA,NA,NA,NA,rectangles,null,null,NA,NA,catch,sh,sw,l,235,178,162,182,273,195,spektor,null,null,null,null,null,null,null,null,null,null,null,NA,180,200,260,200,36000,52000,"[1,3]"
NA,canvas-keyboard-response,363,306792,0.0-6.0-3.59,5013,NA,NA,NA,NA,clear_screen,null,null,NA,NA,catch,sh,sw,l,235,178,162,182,273,195,spektor,null,null,null,null,null,null,null,null,null,null,null,NA,180,200,260,200,36000,52000,"[1,3]"
NA,canvas-keyboard-response,364,307319,0.0-6.0-4.59,5013,NA,NA,NA,NA,make choice,504,3,NA,NA,catch,sh,sw,l,235,178,162,182,273,195,spektor,null,null,null,null,null,null,null,null,null,null,null,NA,180,200,260,200,36000,52000,"[1,3]"
NA,canvas-keyboard-response,365,307500,0.0-6.0-5.59,5013,NA,NA,NA,NA,clear_screen,null,null,NA,NA,catch,sh,sw,l,235,178,162,182,273,195,spektor,null,null,null,null,null,null,null,null,null,null,null,NA,180,200,260,200,36000,52000,"[1,3]"
NA,canvas-keyboard-response,366,307729,0.0-6.0-0.60,5013,NA,NA,NA,NA,pre trial waiting period,null,null,NA,NA,catch,l,sh,sw,190,262,229,205,181,180,trueblood,null,null,null,null,null,null,null,null,null,null,null,NA,180,200,260,200,36000,52000,"[1,2]"
NA,canvas-keyboard-response,367,307892,0.0-6.0-1.60,5013,NA,NA,NA,NA,clear_screen,null,null,NA,NA,catch,l,sh,sw,190,262,229,205,181,180,trueblood,null,null,null,null,null,null,null,null,null,null,null,NA,180,200,260,200,36000,52000,"[1,2]"
NA,canvas-keyboard-response,368,309240,0.0-6.0-2.60,5013,NA,NA,NA,NA,rectangles,null,null,NA,NA,catch,l,sh,sw,190,262,229,205,181,180,trueblood,null,null,null,null,null,null,null,null,null,null,null,NA,180,200,260,200,36000,52000,"[1,2]"
NA,canvas-keyboard-response,369,309416,0.0-6.0-3.60,5013,NA,NA,NA,NA,clear_screen,null,null,NA,NA,catch,l,sh,sw,190,262,229,205,181,180,trueblood,null,null,null,null,null,null,null,null,null,null,null,NA,180,200,260,200,36000,52000,"[1,2]"
NA,canvas-keyboard-response,370,310031,0.0-6.0-4.60,5013,NA,NA,NA,NA,make choice,592,1,NA,NA,catch,l,sh,sw,190,262,229,205,181,180,trueblood,null,null,null,null,null,null,null,null,null,null,null,NA,180,200,260,200,36000,52000,"[1,2]"
NA,canvas-keyboard-response,371,310201,0.0-6.0-5.60,5013,NA,NA,NA,NA,clear_screen,null,null,NA,NA,catch,l,sh,sw,190,262,229,205,181,180,trueblood,null,null,null,null,null,null,null,null,null,null,null,NA,180,200,260,200,36000,52000,"[1,2]"
NA,canvas-keyboard-response,372,310421,0.0-6.0-0.61,5013,NA,NA,NA,NA,pre trial waiting period,null,null,NA,NA,critical,c,d,t,164,240,232.8713,160.6713,240,164,spektor,0.05,w,240,164,164,240,232.8713,160.6713,39360,39360,37415.7294,dc,null,null,null,null,null,null,"[2,1]"
NA,canvas-keyboard-response,373,310581,0.0-6.0-1.61,5013,NA,NA,NA,NA,clear_screen,null,null,NA,NA,critical,c,d,t,164,240,232.8713,160.6713,240,164,spektor,0.05,w,240,164,164,240,232.8713,160.6713,39360,39360,37415.7294,dc,null,null,null,null,null,null,"[2,1]"
NA,canvas-keyboard-response,374,311932,0.0-6.0-2.61,5013,NA,NA,NA,NA,rectangles,null,null,NA,NA,critical,c,d,t,164,240,232.8713,160.6713,240,164,spektor,0.05,w,240,164,164,240,232.8713,160.6713,39360,39360,37415.7294,dc,null,null,null,null,null,null,"[2,1]"
NA,canvas-keyboard-response,375,312106,0.0-6.0-3.61,5013,NA,NA,NA,NA,clear_screen,null,null,NA,NA,critical,c,d,t,164,240,232.8713,160.6713,240,164,spektor,0.05,w,240,164,164,240,232.8713,160.6713,39360,39360,37415.7294,dc,null,null,null,null,null,null,"[2,1]"
NA,canvas-keyboard-response,376,313910,0.0-6.0-4.61,5013,NA,NA,NA,NA,make choice,1782,2,NA,NA,critical,c,d,t,164,240,232.8713,160.6713,240,164,spektor,0.05,w,240,164,164,240,232.8713,160.6713,39360,39360,37415.7294,dc,null,null,null,null,null,null,"[2,1]"
NA,canvas-keyboard-response,377,314081,0.0-6.0-5.61,5013,NA,NA,NA,NA,clear_screen,null,null,NA,NA,critical,c,d,t,164,240,232.8713,160.6713,240,164,spektor,0.05,w,240,164,164,240,232.8713,160.6713,39360,39360,37415.7294,dc,null,null,null,null,null,null,"[2,1]"
NA,canvas-keyboard-response,378,314301,0.0-6.0-0.62,5013,NA,NA,NA,NA,pre trial waiting period,null,null,NA,NA,critical,c,t,d,164,240,240,164,220.0396,154.6796,spektor,0.14,w,240,164,164,240,220.0396,154.6796,39360,39360,34035.6388,tc,null,null,null,null,null,null,"[2,1]"
NA,canvas-keyboard-response,379,314466,0.0-6.0-1.62,5013,NA,NA,NA,NA,clear_screen,null,null,NA,NA,critical,c,t,d,164,240,240,164,220.0396,154.6796,spektor,0.14,w,240,164,164,240,220.0396,154.6796,39360,39360,34035.6388,tc,null,null,null,null,null,null,"[2,1]"
NA,canvas-keyboard-response,380,315813,0.0-6.0-2.62,5013,NA,NA,NA,NA,rectangles,null,null,NA,NA,critical,c,t,d,164,240,240,164,220.0396,154.6796,spektor,0.14,w,240,164,164,240,220.0396,154.6796,39360,39360,34035.6388,tc,null,null,null,null,null,null,"[2,1]"
NA,canvas-keyboard-response,381,315986,0.0-6.0-3.62,5013,NA,NA,NA,NA,clear_screen,null,null,NA,NA,critical,c,t,d,164,240,240,164,220.0396,154.6796,spektor,0.14,w,240,164,164,240,220.0396,154.6796,39360,39360,34035.6388,tc,null,null,null,null,null,null,"[2,1]"
NA,canvas-keyboard-response,382,316487,0.0-6.0-4.62,5013,NA,NA,NA,NA,make choice,481,1,NA,NA,critical,c,t,d,164,240,240,164,220.0396,154.6796,spektor,0.14,w,240,164,164,240,220.0396,154.6796,39360,39360,34035.6388,tc,null,null,null,null,null,null,"[2,1]"
NA,canvas-keyboard-response,383,316652,0.0-6.0-5.62,5013,NA,NA,NA,NA,clear_screen,null,null,NA,NA,critical,c,t,d,164,240,240,164,220.0396,154.6796,spektor,0.14,w,240,164,164,240,220.0396,154.6796,39360,39360,34035.6388,tc,null,null,null,null,null,null,"[2,1]"
NA,canvas-keyboard-response,384,316871,0.0-6.0-0.63,5013,NA,NA,NA,NA,pre trial waiting period,null,null,NA,NA,critical,d,t,c,227.1683,158.0083,240,164,164,240,trueblood,0.09,w,240,164,164,240,227.1683,158.0083,39360,39360,35894.4834,dc,null,null,null,null,null,null,"[1,3]"
NA,canvas-keyboard-response,385,317032,0.0-6.0-1.63,5013,NA,NA,NA,NA,clear_screen,null,null,NA,NA,critical,d,t,c,227.1683,158.0083,240,164,164,240,trueblood,0.09,w,240,164,164,240,227.1683,158.0083,39360,39360,35894.4834,dc,null,null,null,null,null,null,"[1,3]"
NA,canvas-keyboard-response,386,318379,0.0-6.0-2.63,5013,NA,NA,NA,NA,rectangles,null,null,NA,NA,critical,d,t,c,227.1683,158.0083,240,164,164,240,trueblood,0.09,w,240,164,164,240,227.1683,158.0083,39360,39360,35894.4834,dc,null,null,null,null,null,null,"[1,3]"
NA,canvas-keyboard-response,387,318553,0.0-6.0-3.63,5013,NA,NA,NA,NA,clear_screen,null,null,NA,NA,critical,d,t,c,227.1683,158.0083,240,164,164,240,trueblood,0.09,w,240,164,164,240,227.1683,158.0083,39360,39360,35894.4834,dc,null,null,null,null,null,null,"[1,3]"
NA,canvas-keyboard-response,388,319133,0.0-6.0-4.63,5013,NA,NA,NA,NA,make choice,559,3,NA,NA,critical,d,t,c,227.1683,158.0083,240,164,164,240,trueblood,0.09,w,240,164,164,240,227.1683,158.0083,39360,39360,35894.4834,dc,null,null,null,null,null,null,"[1,3]"
NA,canvas-keyboard-response,389,319306,0.0-6.0-5.63,5013,NA,NA,NA,NA,clear_screen,null,null,NA,NA,critical,d,t,c,227.1683,158.0083,240,164,164,240,trueblood,0.09,w,240,164,164,240,227.1683,158.0083,39360,39360,35894.4834,dc,null,null,null,null,null,null,"[1,3]"
NA,canvas-keyboard-response,390,319527,0.0-6.0-0.64,5013,NA,NA,NA,NA,pre trial waiting period,null,null,NA,NA,critical,c,d,t,164,240,237.1485,162.6685,240,164,spektor,0.02,w,240,164,164,240,237.1485,162.6685,39360,39360,38576.5967,td,null,null,null,null,null,null,"[3,2]"
NA,canvas-keyboard-response,391,319685,0.0-6.0-1.64,5013,NA,NA,NA,NA,clear_screen,null,null,NA,NA,critical,c,d,t,164,240,237.1485,162.6685,240,164,spektor,0.02,w,240,164,164,240,237.1485,162.6685,39360,39360,38576.5967,td,null,null,null,null,null,null,"[3,2]"
NA,canvas-keyboard-response,392,321033,0.0-6.0-2.64,5013,NA,NA,NA,NA,rectangles,null,null,NA,NA,critical,c,d,t,164,240,237.1485,162.6685,240,164,spektor,0.02,w,240,164,164,240,237.1485,162.6685,39360,39360,38576.5967,td,null,null,null,null,null,null,"[3,2]"
NA,canvas-keyboard-response,393,321205,0.0-6.0-3.64,5013,NA,NA,NA,NA,clear_screen,null,null,NA,NA,critical,c,d,t,164,240,237.1485,162.6685,240,164,spektor,0.02,w,240,164,164,240,237.1485,162.6685,39360,39360,38576.5967,td,null,null,null,null,null,null,"[3,2]"
NA,canvas-keyboard-response,394,322270,0.0-6.0-4.64,5013,NA,NA,NA,NA,make choice,1042,2,NA,NA,critical,c,d,t,164,240,237.1485,162.6685,240,164,spektor,0.02,w,240,164,164,240,237.1485,162.6685,39360,39360,38576.5967,td,null,null,null,null,null,null,"[3,2]"
NA,canvas-keyboard-response,395,322441,0.0-6.0-5.64,5013,NA,NA,NA,NA,clear_screen,null,null,NA,NA,critical,c,d,t,164,240,237.1485,162.6685,240,164,spektor,0.02,w,240,164,164,240,237.1485,162.6685,39360,39360,38576.5967,td,null,null,null,null,null,null,"[3,2]"
